Time_Host,Time_Arduino,easingdata,CH1_Oxy,CH1_Deoxy,CH2_Oxy,CH2_Deoxy,CH3_Oxy,CH3_Deoxy,CH4_Oxy,CH4_Deoxy,CH1_PD730,CH1_PD850,CH2_PD730,CH2_PD850,CH3_PD730,CH3_PD850,CH4_PD730,CH4_PD850,Answers,airplane_playstate,trail_times,frameRate,Airplane X,Airplane Y,Correct,Wrong,Slow,AnswerRate,CorrectRate,VFTstates,VFTchoose,VFTCount,Culfstates,ax,ay,az,gx,gy,gz
1.059,0.04,0.00,0.00,0.00,0.00,0.00,0.00,0.00,0.00,0.00,647.00,1200.00,356.00,758.00,511.00,1071.00,1833.00,3632.00,,,,,,,,,,,,0,0,0,,-3020,15940,-116,-391,943,-267
1.081,0.10,0.00,0.00,0.00,0.00,0.00,0.00,0.00,0.00,0.00,656.00,1195.00,336.00,750.00,553.00,1055.00,1873.00,3619.00,,,,,,,,,,,,0,0,0,,-2832,15956,-144,-615,891,-163
1.102,0.15,0.00,0.00,0.00,0.00,0.00,0.00,0.00,0.00,0.00,683.00,1195.00,370.00,742.00,529.00,1089.00,1851.00,3726.00,,,,,,,,,,,,0,0,0,,-2752,15960,-160,-593,612,-220
1.123,0.21,0.00,0.00,0.00,0.00,0.00,0.00,0.00,0.00,0.00,656.00,1231.00,355.00,781.00,511.00,1074.00,1857.00,3683.00,,,,,,,,,,,,0,0,0,,-2796,16172,-248,-458,215,-412
1.144,0.26,0.00,0.00,0.00,0.00,0.00,0.00,0.00,0.00,0.00,649.00,1204.00,347.00,763.00,544.00,1071.00,1890.00,3741.00,,,,,,,,,,,,0,0,0,,-2940,15848,52,-210,-313,-345
1.164,1.05,0.00,0.00,0.00,0.00,0.00,0.00,0.00,0.00,0.00,687.00,1184.00,374.00,771.00,529.00,1081.00,1861.00,3776.00,,,,,,,,,,,,0,0,0,,-3192,16056,628,33,-766,-356
1.185,1.11,0.00,0.00,0.00,0.00,0.00,0.00,0.00,0.00,0.00,655.00,1216.00,359.00,784.00,522.00,1063.00,1869.00,3749.00,,,,,,,,,,,,0,0,0,,-3156,15968,172,108,-298,-568
1.247,1.16,0.00,0.00,0.00,0.00,0.00,0.00,0.00,0.00,0.00,637.00,1211.00,348.00,784.00,533.00,1063.00,1899.00,3798.00,,,,,,,,,,,,0,0,0,,-3064,15820,-76,54,-254,-462
1.309,1.22,0.00,0.00,0.00,0.00,0.00,0.00,0.00,0.00,0.00,662.00,1187.00,368.00,784.00,531.00,1074.00,1899.00,3851.00,,,,,,,,,,,,0,0,0,,-3100,15668,-32,-67,-551,-202
1.392,1.27,0.00,0.00,0.00,0.00,0.00,0.00,0.00,0.00,0.00,667.00,1233.00,372.00,780.00,528.00,1069.00,1875.00,3755.00,,,,,,,,,,,,0,0,0,,-3360,15808,388,-118,-133,-48
1.413,1.33,0.01,-0.34,0.68,-0.61,0.54,0.11,0.68,0.72,0.07,640.00,1200.00,352.00,777.00,509.00,1047.00,1839.00,3621.00,,,,,,,,,,,,0,0,0,,-3176,15836,500,-49,327,219
1.474,1.38,0.11,0.76,0.02,-0.20,0.67,2.05,-1.20,1.64,-0.43,650.00,1169.00,347.00,762.00,544.00,1020.00,1859.00,3540.00,,,,,,,,,,,,0,0,0,,-2980,16044,328,43,608,362
1.516,1.44,0.11,1.48,-1.00,1.98,-1.15,0.18,0.58,1.28,0.19,678.00,1168.00,368.00,734.00,511.00,1047.00,1809.00,3531.00,,,,,,,,,,,,0,0,0,,-2788,16208,-212,152,335,133
1.579,1.49,0.13,-0.29,0.61,0.20,0.43,0.55,0.97,1.59,0.25,642.00,1200.00,349.00,755.00,497.00,1021.00,1793.00,3482.00,,,,,,,,,,,,0,0,0,,-2692,16056,-364,341,-310,-282
1.622,1.55,0.23,0.28,0.73,0.32,1.14,2.13,-0.89,1.96,-0.37,631.00,1169.00,335.00,737.00,534.00,1008.00,1842.00,3489.00,,,,,,,,,,,,0,0,0,,-2872,15912,-212,291,-704,-295
1.682,1.60,0.27,1.31,-0.53,1.89,-0.66,0.94,0.33,1.28,0.23,663.00,1161.00,359.00,727.00,511.00,1023.00,1805.00,3527.00,,,,,,,,,,,,0,0,0,,-2876,15988,-260,299,-921,-446
1.764,1.66,0.29,0.33,0.31,0.40,0.52,0.71,0.88,1.42,0.11,645.00,1180.00,346.00,747.00,498.00,1017.00,1812.00,3519.00,,,,,,,,,,,,0,0,0,,-3024,16164,-132,391,-1203,-565
1.806,1.71,0.33,-0.12,1.07,-0.31,1.03,1.10,0.27,1.33,-0.20,624.00,1177.00,341.00,758.00,511.00,1018.00,1846.00,3561.00,,,,,,,,,,,,0,0,0,,-3172,16284,-220,717,-1554,-461
1.846,1.77,0.41,1.54,-0.41,0.07,0.42,1.90,-1.01,0.87,0.00,656.00,1147.00,350.00,759.00,540.00,1021.00,1841.00,3606.00,,,,,,,,,,,,0,0,0,,-3248,15768,132,926,-1106,-607
1.908,1.82,0.41,-0.20,0.04,0.79,-0.65,0.34,0.10,0.46,0.02,661.00,1214.00,366.00,759.00,523.00,1054.00,1853.00,3664.00,,,,,,,,,,,,0,0,0,,-3396,15628,60,328,-353,-415
1.95,1.88,0.39,-0.12,0.29,-0.40,-0.10,0.08,0.80,0.41,0.14,651.00,1202.00,363.00,784.00,506.00,1045.00,1843.00,3659.00,,,,,,,,,,,,0,0,0,,-3420,15756,-124,-440,492,-157
2.012,1.93,0.48,0.41,-0.03,-1.25,1.34,2.22,-1.56,0.87,-0.49,656.00,1187.00,341.00,780.00,553.00,1023.00,1891.00,3655.00,,,,,,,,,,,,0,0,0,,-3248,15860,-36,-512,912,-56
2.073,1.99,0.43,1.13,-1.15,1.18,-1.91,-0.55,0.22,-0.16,0.20,688.00,1189.00,389.00,773.00,528.00,1088.00,1856.00,3737.00,,,,,,,,,,,,0,0,0,,-3144,16044,-108,-396,916,-1
2.135,2.04,0.44,-0.57,0.30,-0.99,0.31,0.74,0.68,1.26,-0.05,656.00,1223.00,359.00,794.00,503.00,1021.00,1833.00,3556.00,,,,,,,,,,,,0,0,0,,-3148,15908,-116,-363,908,68
2.198,2.10,0.52,0.46,0.50,0.07,1.01,1.96,-0.51,2.00,-0.24,637.00,1168.00,339.00,747.00,525.00,1005.00,1827.00,3471.00,,,,,,,,,,,,0,0,0,,-3140,15948,12,-314,886,186
2.239,2.15,0.56,1.85,-0.51,1.62,-0.36,1.29,0.35,1.89,0.19,656.00,1136.00,355.00,729.00,507.00,1008.00,1789.00,3446.00,,,,,,,,,,,,0,0,0,,-2908,15872,-352,-273,766,13
2.3,2.21,0.58,0.76,0.28,1.15,0.43,1.07,0.87,2.24,0.14,641.00,1161.00,343.00,727.00,495.00,1003.00,1782.00,3403.00,,,,,,,,,,,,0,0,0,,-3136,16012,-244,-240,482,-110
2.362,2.26,0.64,0.31,1.08,0.28,1.10,1.66,0.41,2.06,0.08,619.00,1157.00,336.00,739.00,502.00,992.00,1794.00,3433.00,,,,,,,,,,,,0,0,0,,-3060,15832,-264,-380,229,-25
2.404,2.32,0.74,1.66,-0.17,0.47,0.82,2.58,-0.72,2.15,-0.09,646.00,1134.00,340.00,739.00,525.00,986.00,1808.00,3437.00,,,,,,,,,,,,0,0,0,,-2980,15968,28,-297,33,-127
2.508,2.37,0.76,1.31,-0.33,1.89,-0.76,1.19,0.24,1.52,0.12,656.00,1155.00,361.00,729.00,511.00,1015.00,1808.00,3504.00,,,,,,,,,,,,0,0,0,,-2964,16108,76,-175,-24,-127
2.528,2.43,0.79,0.31,0.37,-0.25,0.16,1.33,0.71,1.12,0.80,643.00,1179.00,357.00,774.00,497.00,997.00,1755.00,3495.00,,,,,,,,,,,,0,0,0,,-3116,16040,-28,22,-43,-168
2.569,2.48,0.88,0.90,0.23,-1.28,1.63,2.57,-0.93,1.79,-0.51,641.00,1156.00,336.00,775.00,531.00,992.00,1861.00,3525.00,,,,,,,,,,,,0,0,0,,-2944,15920,-116,139,-66,-185
2.61,2.54,0.89,2.00,-1.23,1.62,-1.52,1.10,0.27,0.67,0.19,680.00,1151.00,378.00,752.00,511.00,1018.00,1829.00,3617.00,,,,,,,,,,,,0,0,0,,-3072,15812,-208,89,-56,-96
2.673,2.59,0.91,0.19,0.30,-0.90,0.69,1.29,0.54,0.98,0.13,647.00,1187.00,351.00,783.00,502.00,1003.00,1825.00,3579.00,,,,,,,,,,,,0,0,0,,-3112,16024,-192,-36,149,-165
2.734,2.65,0.96,0.29,0.79,-0.39,0.95,2.02,-0.47,1.19,-0.22,629.00,1167.00,343.00,762.00,523.00,1001.00,1853.00,3583.00,,,,,,,,,,,,0,0,0,,-3128,15904,-96,-93,265,-107
2.774,2.70,0.97,1.65,-0.45,0.35,-0.20,1.16,0.25,0.56,0.07,656.00,1143.00,360.00,763.00,511.00,1016.00,1845.00,3645.00,,,,,,,,,,,,0,0,0,,-3016,15852,-164,-44,307,-106
2.879,2.76,0.99,0.63,-0.19,0.10,-0.11,1.23,0.37,1.35,-0.08,659.00,1182.00,360.00,769.00,507.00,1010.00,1833.00,3546.00,,,,,,,,,,,,0,0,0,,-2980,16160,-264,4,282,-286
2.921,2.81,1.01,0.16,1.01,0.34,0.81,1.53,0.72,2.21,0.04,623.00,1166.00,341.00,743.00,495.00,989.00,1793.00,3417.00,,,,,,,,,,,,0,0,0,,-3016,16028,-128,-67,140,-106
2.941,2.87,1.12,1.49,-0.05,0.57,1.28,3.25,-0.98,2.74,-0.24,644.00,1138.00,331.00,727.00,526.00,967.00,1803.00,3371.00,,,,,,,,,,,,0,0,0,,-2880,16052,-96,70,188,-92
3.002,2.92,1.15,2.07,-0.84,3.04,-1.05,1.59,0.55,2.35,0.20,665.00,1136.00,359.00,702.00,499.00,991.00,1773.00,3383.00,,,,,,,,,,,,0,0,0,,-2896,16160,-152,69,272,-242
3.064,2.98,1.19,0.64,0.55,0.78,0.88,1.97,1.02,2.70,0.26,633.00,1158.00,337.00,729.00,483.00,964.00,1756.00,3331.00,,,,,,,,,,,,0,0,0,,-3096,15768,-80,-99,195,-252
3.125,3.03,1.31,1.32,0.50,0.75,1.84,3.56,-1.05,3.14,-0.37,627.00,1129.00,320.00,711.00,525.00,957.00,1802.00,3329.00,,,,,,,,,,,,0,0,0,,-2976,15996,-272,-41,-2,-315
3.229,3.09,1.34,2.68,-1.07,3.14,-0.82,1.99,0.52,2.10,0.40,666.00,1116.00,354.00,695.00,496.00,976.00,1762.00,3399.00,,,,,,,,,,,,0,0,0,,-3116,15828,24,-214,-28,-152
3.249,3.14,1.38,1.31,0.18,1.32,0.64,2.06,0.69,2.42,0.25,638.00,1139.00,338.00,718.00,491.00,969.00,1766.00,3370.00,,,,,,,,,,,,0,0,0,,-3100,16088,-36,-113,46,-247
3.269,3.20,1.44,0.72,1.12,0.59,1.61,2.66,0.04,2.45,-0.06,613.00,1137.00,325.00,720.00,503.00,963.00,1795.00,3394.00,,,,,,,,,,,,0,0,0,,-3156,15868,-172,-3,113,-267
3.332,3.25,1.50,2.38,-0.49,1.45,0.71,2.62,-0.06,2.19,0.05,649.00,1112.00,336.00,713.00,506.00,967.00,1793.00,3419.00,,,,,,,,,,,,0,0,0,,-3256,15964,-28,-8,121,-146
3.394,3.31,1.50,1.38,-0.24,1.75,0.01,1.53,0.68,1.84,0.15,652.00,1149.00,347.00,718.00,496.00,990.00,1795.00,3458.00,,,,,,,,,,,,0,0,0,,-3136,15824,-276,-32,160,-125
3.455,3.36,1.57,0.46,0.73,0.21,0.85,2.88,0.22,1.59,0.20,629.00,1161.00,341.00,746.00,496.00,950.00,1798.00,3487.00,,,,,,,,,,,,0,0,0,,-3160,15828,-56,-211,304,-138
3.497,3.42,1.65,1.23,-0.02,-0.26,1.39,3.22,-1.29,1.90,-0.39,646.00,1149.00,334.00,749.00,535.00,976.00,1845.00,3498.00,,,,,,,,,,,,0,0,0,,-3072,15900,36,-106,505,-53
3.6,3.47,1.63,1.64,-0.91,1.54,-1.10,1.19,0.28,0.81,0.18,673.00,1158.00,370.00,746.00,510.00,1014.00,1825.00,3597.00,,,,,,,,,,,,0,0,0,,-3064,15880,-112,-22,615,8
3.62,3.53,1.63,-0.06,0.38,-0.87,0.79,1.63,0.65,2.24,-0.40,647.00,1196.00,349.00,780.00,496.00,987.00,1835.00,3453.00,,,,,,,,,,,,0,0,0,,-2964,16136,-68,15,557,-220
3.661,3.58,1.71,0.98,0.38,0.87,1.52,3.19,-0.43,3.22,-0.36,635.00,1148.00,325.00,714.00,511.00,955.00,1799.00,3318.00,,,,,,,,,,,,0,0,0,,-3064,15948,-196,-47,430,-65
3.723,3.64,1.75,2.31,-0.50,2.62,0.31,2.50,0.39,2.83,0.36,650.00,1115.00,336.00,688.00,495.00,960.00,1742.00,3305.00,,,,,,,,,,,,0,0,0,,-2956,15960,-184,17,317,26
3.784,3.69,1.77,1.76,0.12,2.33,0.75,2.21,1.09,3.49,0.25,635.00,1121.00,330.00,688.00,479.00,953.00,1732.00,3230.00,,,,,,,,,,,,0,0,0,,-2940,16040,-140,-44,381,-34
3.826,3.75,1.83,0.88,1.62,1.42,2.15,2.86,0.61,3.40,0.26,595.00,1115.00,311.00,687.00,486.00,941.00,1734.00,3241.00,,,,,,,,,,,,0,0,0,,-2916,16064,-212,-80,358,-191
3.888,3.80,1.89,2.97,-0.35,2.56,0.95,3.12,0.07,3.33,0.16,637.00,1082.00,325.00,678.00,498.00,945.00,1745.00,3258.00,,,,,,,,,,,,0,0,0,,-2924,16012,-348,-86,211,-99
3.971,3.86,1.92,1.98,-0.02,3.34,-0.04,2.50,0.32,3.10,0.24,637.00,1115.00,338.00,675.00,497.00,962.00,1745.00,3281.00,,,,,,,,,,,,0,0,0,,-2884,15824,-200,-139,2,-57
3.991,3.91,1.93,1.20,0.54,1.19,1.41,2.17,0.99,3.00,0.40,627.00,1133.00,325.00,707.00,482.00,957.00,1733.00,3280.00,,,,,,,,,,,,0,0,0,,-2836,16112,-132,-96,67,-61
4.054,3.97,2.03,1.81,0.25,1.48,1.95,3.95,-1.08,3.37,-0.22,630.00,1115.00,314.00,689.00,522.00,943.00,1780.00,3286.00,,,,,,,,,,,,0,0,0,,-2864,16048,-112,45,74,-209
4.096,4.02,2.02,2.71,-1.05,3.47,-0.78,1.83,0.58,2.40,0.37,665.00,1114.00,351.00,685.00,496.00,981.00,1755.00,3361.00,,,,,,,,,,,,0,0,0,,-2996,15964,-172,46,98,-122
4.159,4.08,2.03,0.94,0.33,0.80,1.26,2.20,0.83,2.55,0.28,637.00,1151.00,330.00,721.00,486.00,960.00,1759.00,3350.00,,,,,,,,,,,,0,0,0,,-2968,15956,-292,34,136,-199
4.222,4.13,2.07,1.27,0.61,0.91,1.50,2.76,0.04,2.48,-0.03,624.00,1128.00,325.00,713.00,502.00,959.00,1791.00,3387.00,,,,,,,,,,,,0,0,0,,-2956,15956,-92,-92,139,-152
4.284,4.19,2.06,2.85,-1.13,1.65,0.32,1.93,0.51,1.97,0.26,666.00,1110.00,342.00,715.00,497.00,979.00,1780.00,3430.00,,,,,,,,,,,,0,0,0,,-2896,16012,-228,-76,145,-225
4.346,4.24,2.04,1.43,-0.09,1.07,0.30,1.63,0.65,1.85,0.17,646.00,1142.00,346.00,732.00,496.00,987.00,1792.00,3454.00,,,,,,,,,,,,0,0,0,,-2804,16020,-264,-53,36,-161
4.407,4.30,2.03,0.24,1.28,-0.16,1.25,1.85,0.35,1.82,0.03,613.00,1154.00,336.00,749.00,502.00,986.00,1807.00,3471.00,,,,,,,,,,,,0,0,0,,-2840,16072,-216,-3,-46,-23
4.468,4.35,2.07,1.86,-0.23,0.73,0.95,2.82,-0.16,2.85,-0.07,646.00,1127.00,336.00,729.00,507.00,962.00,1783.00,3341.00,,,,,,,,,,,,0,0,0,,-2784,15940,-288,107,-143,-445
4.488,4.41,2.06,2.29,-0.66,3.00,-0.51,1.79,0.44,2.79,0.34,656.00,1121.00,349.00,693.00,500.00,986.00,1746.00,3313.00,,,,,,,,,,,,0,0,0,,-3104,16132,-148,212,-119,-465
4.551,4.46,2.07,1.14,0.47,2.95,0.59,2.31,1.02,3.43,0.36,630.00,1138.00,329.00,674.00,480.00,951.00,1723.00,3227.00,,,,,,,,,,,,0,0,0,,-3020,15824,-240,197,-38,-368
4.592,4.52,2.16,2.24,0.28,2.17,2.13,3.95,-0.69,4.30,-0.17,624.00,1095.00,307.00,667.00,511.00,933.00,1746.00,3164.00,,,,,,,,,,,,0,0,0,,-3132,15848,-288,1,-89,-362
4.653,4.57,2.18,3.37,-1.11,4.74,-0.40,2.44,0.63,3.40,0.55,659.00,1087.00,336.00,645.00,489.00,956.00,1707.00,3216.00,,,,,,,,,,,,0,0,0,,-3144,15888,-220,-46,-56,-272
4.717,4.63,2.20,2.49,-0.36,2.50,1.37,2.55,0.98,3.65,0.39,643.00,1103.00,318.00,672.00,479.00,943.00,1714.00,3198.00,,,,,,,,,,,,0,0,0,,-3116,16048,-276,-26,-33,-281
4.756,4.68,2.26,1.63,1.12,2.43,1.87,3.40,0.09,3.77,0.12,603.00,1097.00,310.00,665.00,495.00,934.00,1735.00,3205.00,,,,,,,,,,,,0,0,0,,-3232,15948,-204,-78,100,-251
4.819,4.74,2.29,3.19,-0.36,3.24,1.01,3.02,0.18,3.42,0.35,635.00,1073.00,320.00,659.00,496.00,946.00,1725.00,3230.00,,,,,,,,,,,,0,0,0,,-3164,15948,-276,-31,149,-226
4.882,4.79,2.29,2.30,-0.18,3.25,0.61,2.14,1.00,3.24,0.44,639.00,1106.00,327.00,666.00,482.00,958.00,1722.00,3245.00,,,,,,,,,,,,0,0,0,,-3260,15928,-400,25,160,-242
4.922,4.85,2.28,1.31,0.98,1.86,1.82,2.20,0.83,3.20,0.24,611.00,1115.00,314.00,681.00,486.00,960.00,1742.00,3268.00,,,,,,,,,,,,0,0,0,,-3236,15960,-268,50,104,-191
4.984,4.90,2.33,2.10,-0.06,1.66,2.07,3.22,-0.44,3.40,-0.19,637.00,1111.00,311.00,682.00,511.00,954.00,1776.00,3279.00,,,,,,,,,,,,0,0,0,,-3228,15876,-280,-74,218,-117
5.109,4.96,2.29,2.79,-1.14,4.07,-0.66,1.53,0.64,2.46,0.31,667.00,1113.00,345.00,667.00,497.00,991.00,1759.00,3359.00,,,,,,,,,,,,0,0,0,,-3240,15948,-520,-155,288,-133
5.13,5.01,2.26,0.51,0.71,1.16,1.14,1.70,0.96,2.57,0.33,629.00,1159.00,330.00,713.00,487.00,976.00,1754.00,3343.00,,,,,,,,,,,,0,0,0,,-3236,15932,-240,-200,319,-80
5.171,5.07,2.31,1.54,0.31,1.22,2.27,3.30,-1.14,2.92,-0.35,631.00,1125.00,310.00,690.00,530.00,969.00,1808.00,3357.00,,,,,,,,,,,,0,0,0,,-3192,15932,-172,-168,222,-35
5.213,5.12,2.29,2.64,-1.11,3.89,-1.28,1.82,0.18,1.98,0.29,668.00,1119.00,358.00,683.00,507.00,992.00,1776.00,3425.00,,,,,,,,,,,,0,0,0,,-3064,15940,-236,-73,266,43
5.274,5.18,2.26,1.30,-0.13,1.39,1.06,1.69,0.51,2.09,0.20,649.00,1149.00,330.00,708.00,499.00,988.00,1781.00,3418.00,,,,,,,,,,,,0,0,0,,-3156,15988,-160,-104,357,89
5.316,5.23,2.26,2.28,0.32,1.65,1.43,2.26,0.32,3.17,-0.10,622.00,1092.00,322.00,694.00,499.00,971.00,1775.00,3301.00,,,,,,,,,,,,0,0,0,,-3120,15908,-360,-36,353,-136
5.358,5.29,2.27,2.89,-0.44,3.19,1.20,2.56,0.15,3.46,0.23,641.00,1088.00,317.00,657.00,501.00,964.00,1735.00,3236.00,,,,,,,,,,,,0,0,0,,-3052,15896,-252,-184,216,-7
5.44,5.34,2.26,2.64,-0.41,1.98,3.38,1.96,0.61,3.54,0.39,643.00,1098.00,288.00,650.00,494.00,975.00,1717.00,3211.00,,,,,,,,,,,,0,0,0,,-2904,15940,-120,-118,300,70
5.522,5.40,2.26,1.83,0.42,2.84,1.43,2.24,1.01,3.75,0.56,624.00,1109.00,315.00,662.00,481.00,954.00,1695.00,3170.00,,,,,,,,,,,,0,0,0,,-3016,16188,-256,-76,322,-184
5.543,5.45,2.34,2.50,0.13,2.65,2.27,3.91,-1.07,4.14,-0.00,626.00,1088.00,302.00,652.00,522.00,944.00,1735.00,3169.00,,,,,,,,,,,,0,0,0,,-2840,15840,-432,71,300,-152
5.585,5.51,2.31,3.11,-0.96,5.30,-0.59,1.86,0.60,3.24,0.56,657.00,1094.00,336.00,634.00,495.00,979.00,1711.00,3235.00,,,,,,,,,,,,0,0,0,,-2840,15960,-316,-8,146,-176
5.647,5.56,2.30,1.15,0.62,2.80,1.16,2.04,1.04,3.59,0.45,625.00,1133.00,320.00,668.00,482.00,961.00,1710.00,3200.00,,,,,,,,,,,,0,0,0,,-2860,15972,-260,-103,123,-98
5.751,5.62,2.35,1.80,0.70,2.61,2.17,3.23,-0.30,3.77,0.00,615.00,1102.00,304.00,655.00,507.00,950.00,1746.00,3215.00,,,,,,,,,,,,0,0,0,,-3008,16120,-344,20,112,-182
5.772,5.67,2.33,2.77,-0.22,4.05,0.62,2.06,0.50,3.07,0.53,635.00,1087.00,322.00,645.00,496.00,974.00,1719.00,3259.00,,,,,,,,,,,,0,0,0,,-3116,16020,-300,89,98,-180
5.834,5.73,2.31,1.95,-0.03,2.64,1.56,1.90,0.78,3.16,0.35,638.00,1117.00,314.00,665.00,490.00,973.00,1733.00,3264.00,,,,,,,,,,,,0,0,0,,-2980,15968,-380,83,96,-201
5.875,5.78,2.32,0.86,1.32,2.14,1.97,2.39,0.17,3.13,0.15,605.00,1125.00,310.00,671.00,502.00,970.00,1753.00,3285.00,,,,,,,,,,,,0,0,0,,-2944,15960,-308,-14,60,-170
5.936,5.84,2.33,2.64,-0.41,2.84,1.26,2.51,-0.20,3.02,0.01,643.00,1098.00,318.00,665.00,511.00,975.00,1770.00,3312.00,,,,,,,,,,,,0,0,0,,-2920,15884,-624,-165,107,-210
6.0,5.89,2.29,1.99,-0.39,3.64,-0.03,1.55,0.30,2.32,0.21,650.00,1126.00,336.00,667.00,506.00,999.00,1773.00,3386.00,,,,,,,,,,,,0,0,0,,-3008,15944,-496,-291,-7,-258
6.039,5.95,2.24,0.67,0.51,1.26,1.05,1.30,0.76,2.15,0.23,634.00,1158.00,331.00,712.00,496.00,997.00,1777.00,3408.00,,,,,,,,,,,,0,0,0,,-2952,16064,-376,-367,-108,-218
6.102,6.00,2.28,1.51,0.06,1.13,1.66,3.01,-1.35,2.34,-0.40,640.00,1134.00,321.00,704.00,539.00,986.00,1832.00,3440.00,,,,,,,,,,,,0,0,0,,-3168,16096,-76,-194,-70,-278
6.183,6.06,2.21,2.46,-1.41,2.80,-0.97,0.94,0.33,1.18,0.22,681.00,1136.00,359.00,707.00,511.00,1023.00,1809.00,3542.00,,,,,,,,,,,,0,0,0,,-3104,16020,-80,-8,46,-160
6.204,6.11,2.15,0.25,0.34,0.16,1.03,1.03,0.66,1.53,0.12,645.00,1183.00,338.00,744.00,501.00,1010.00,1808.00,3503.00,,,,,,,,,,,,0,0,0,,-3088,16184,-388,166,123,-166
6.246,6.17,2.16,0.92,0.40,1.09,1.50,2.42,-0.60,2.80,-0.28,635.00,1150.00,324.00,708.00,523.00,989.00,1805.00,3367.00,,,,,,,,,,,,0,0,0,,-3108,15728,-260,32,63,-282
6.308,6.22,2.15,2.63,-0.49,3.44,0.32,1.95,0.20,2.71,0.34,646.00,1101.00,331.00,666.00,505.00,986.00,1748.00,3323.00,,,,,,,,,,,,0,0,0,,-3200,15784,-360,-172,17,-206
6.37,6.28,2.13,1.76,-0.06,3.00,0.92,1.73,0.65,3.09,0.27,641.00,1126.00,323.00,667.00,495.00,983.00,1743.00,3280.00,,,,,,,,,,,,0,0,0,,-3160,15960,-84,-103,261,-98
6.431,6.33,2.13,1.15,1.22,2.29,1.74,2.16,0.47,3.39,0.27,605.00,1115.00,313.00,671.00,496.00,971.00,1733.00,3241.00,,,,,,,,,,,,0,0,0,,-3104,15988,-348,-132,296,-221
6.473,6.39,2.17,2.94,-0.16,2.42,2.05,2.92,-0.34,3.47,0.06,631.00,1078.00,307.00,662.00,511.00,963.00,1750.00,3248.00,,,,,,,,,,,,0,0,0,,-3164,15744,-184,62,119,-91
6.535,6.44,2.14,2.59,-0.53,3.94,0.04,1.46,0.44,2.76,0.37,648.00,1104.00,333.00,658.00,503.00,999.00,1744.00,3314.00,,,,,,,,,,,,0,0,0,,-3080,15912,-464,-3,12,-146
6.598,6.50,2.12,1.22,0.42,1.70,1.41,1.86,0.75,2.98,0.36,631.00,1136.00,322.00,693.00,491.00,975.00,1738.00,3286.00,,,,,,,,,,,,0,0,0,,-3160,15916,-216,-12,142,-135
6.661,6.55,2.19,1.97,0.34,1.17,2.29,3.44,-1.19,3.47,-0.37,625.00,1105.00,310.00,691.00,530.00,965.00,1792.00,3287.00,,,,,,,,,,,,0,0,0,,-3148,15904,-424,-87,192,-115
6.681,6.61,2.15,3.08,-1.26,4.37,-0.60,1.36,0.66,2.46,0.31,668.00,1104.00,342.00,658.00,498.00,997.00,1759.00,3359.00,,,,,,,,,,,,0,0,0,,-3044,16080,-280,-83,216,-130
6.742,6.66,2.12,1.56,0.01,1.93,1.39,1.66,0.63,2.64,0.21,641.00,1133.00,321.00,687.00,496.00,986.00,1763.00,3344.00,,,,,,,,,,,,0,0,0,,-3216,15888,-232,-100,138,-125
6.804,6.72,2.14,1.03,0.87,1.83,1.48,2.38,-0.16,2.62,-0.14,618.00,1131.00,320.00,688.00,511.00,979.00,1797.00,3378.00,,,,,,,,,,,,0,0,0,,-3164,15932,-148,-189,270,-12
6.846,6.77,2.12,2.54,-0.46,2.43,0.60,1.75,0.06,2.14,0.08,646.00,1104.00,332.00,688.00,511.00,998.00,1791.00,3422.00,,,,,,,,,,,,0,0,0,,-3084,16012,-328,-144,425,-44
6.908,6.83,2.08,1.60,-0.17,1.96,0.54,1.42,0.16,1.92,0.14,647.00,1137.00,336.00,702.00,511.00,1008.00,1793.00,3447.00,,,,,,,,,,,,0,0,0,,-3108,15952,-364,-156,307,-75
6.969,6.88,1.98,0.45,1.03,1.13,0.82,0.04,1.98,1.73,0.10,619.00,1152.00,336.00,720.00,475.00,1014.00,1803.00,3477.00,,,,,,,,,,,,0,0,0,,-2988,15848,-220,-109,256,-20
7.011,6.94,2.01,1.40,-0.05,0.94,1.10,2.63,-1.40,1.99,-0.35,645.00,1142.00,332.00,720.00,544.00,1002.00,1839.00,3483.00,,,,,,,,,,,,0,0,0,,-3024,16088,-200,-206,198,-111
7.095,6.99,1.95,2.05,-1.32,2.29,-1.25,0.71,-0.16,0.96,0.15,683.00,1152.00,368.00,727.00,527.00,1046.00,1823.00,3579.00,,,,,,,,,,,,0,0,0,,-2900,16112,-172,-53,143,26
7.158,7.05,1.89,0.11,0.07,-0.20,0.67,0.81,0.52,1.01,0.14,656.00,1198.00,347.00,762.00,507.00,1023.00,1823.00,3574.00,,,,,,,,,,,,0,0,0,,-3076,15740,-72,23,187,-279
7.179,7.10,1.92,0.75,0.11,0.15,1.15,2.56,-1.47,2.14,-0.57,647.00,1167.00,336.00,742.00,547.00,1007.00,1856.00,3483.00,,,,,,,,,,,,0,0,0,,-3096,16140,-268,-47,248,-353
7.282,7.16,1.90,2.19,-1.02,3.09,-0.70,1.45,0.15,2.35,0.20,670.00,1136.00,352.00,694.00,511.00,1007.00,1773.00,3383.00,,,,,,,,,,,,0,0,0,,-3140,16204,-260,-43,186,-108
7.302,7.21,1.89,1.40,0.15,1.91,0.78,1.66,0.63,2.95,0.11,638.00,1136.00,332.00,699.00,496.00,986.00,1762.00,3312.00,,,,,,,,,,,,0,0,0,,-3040,15956,-208,33,138,-76
7.343,7.27,1.91,0.65,1.79,1.88,1.41,2.25,0.18,3.34,0.03,592.00,1120.00,321.00,688.00,503.00,975.00,1757.00,3268.00,,,,,,,,,,,,0,0,0,,-2880,16144,-448,121,248,-202
7.405,7.32,1.94,2.81,-0.32,2.81,0.75,2.58,-0.15,3.24,0.21,638.00,1088.00,327.00,675.00,509.00,971.00,1744.00,3266.00,,,,,,,,,,,,0,0,0,,-2872,15832,-272,6,86,-229
7.466,7.38,1.93,1.96,-0.18,3.20,0.07,1.83,0.58,3.00,0.23,643.00,1121.00,337.00,677.00,496.00,981.00,1749.00,3295.00,,,,,,,,,,,,0,0,0,,-2884,16000,-644,-60,-112,-187
7.507,7.43,1.93,1.35,0.23,2.01,0.52,1.79,0.66,2.97,0.30,636.00,1136.00,336.00,701.00,494.00,980.00,1744.00,3293.00,,,,,,,,,,,,0,0,0,,-3004,15940,-264,-278,-82,-199
7.569,7.49,2.02,1.98,-0.02,1.54,1.64,3.76,-1.47,3.34,-0.32,637.00,1115.00,319.00,693.00,535.00,960.00,1791.00,3299.00,,,,,,,,,,,,0,0,0,,-3080,16124,-220,-225,-28,-311
7.673,7.54,1.99,2.56,-1.17,3.51,-1.00,1.52,0.35,2.44,0.25,671.00,1124.00,355.00,688.00,505.00,999.00,1765.00,3367.00,,,,,,,,,,,,0,0,0,,-3084,16100,-252,-5,116,-324
7.693,7.60,1.99,0.71,0.35,1.09,0.83,1.93,0.51,2.70,0.13,639.00,1161.00,336.00,721.00,497.00,979.00,1769.00,3344.00,,,,,,,,,,,,0,0,0,,-3180,16036,-360,143,117,-342
7.734,7.65,2.05,1.29,0.54,1.22,1.69,3.28,-1.03,2.81,-0.31,626.00,1129.00,320.00,701.00,527.00,967.00,1808.00,3369.00,,,,,,,,,,,,0,0,0,,-3160,15848,-380,-28,166,-268
7.796,7.71,2.05,2.22,-0.50,2.63,-0.01,1.92,0.14,2.15,0.17,651.00,1119.00,342.00,694.00,507.00,989.00,1782.00,3413.00,,,,,,,,,,,,0,0,0,,-3068,15884,-444,-218,150,-146
7.859,7.76,2.03,1.23,-0.02,1.33,0.53,1.79,0.26,2.03,0.09,646.00,1149.00,340.00,720.00,505.00,991.00,1794.00,3437.00,,,,,,,,,,,,0,0,0,,-3128,15924,-192,-256,125,-100
7.901,7.82,2.04,0.25,1.10,0.63,1.04,2.11,-0.07,2.10,-0.09,619.00,1159.00,335.00,730.00,511.00,987.00,1809.00,3443.00,,,,,,,,,,,,0,0,0,,-3212,16100,-188,-36,179,-107
7.962,7.87,2.04,1.95,-0.46,0.60,0.83,2.11,-0.07,1.86,-0.11,653.00,1130.00,339.00,735.00,511.00,987.00,1819.00,3478.00,,,,,,,,,,,,0,0,0,,-3064,16044,-296,68,141,-172
8.024,7.93,2.02,1.10,-0.32,1.98,-0.95,1.50,-0.43,1.38,-0.02,658.00,1164.00,364.00,730.00,527.00,1021.00,1826.00,3536.00,,,,,,,,,,,,0,0,0,,-3092,15944,-352,109,12,-198
8.066,7.98,1.96,-0.29,0.61,-0.36,0.56,0.94,0.77,1.12,0.09,642.00,1200.00,350.00,769.00,499.00,1011.00,1824.00,3563.00,,,,,,,,,,,,0,0,0,,-3176,15624,-204,-34,91,-60
8.127,8.04,2.03,0.94,-0.21,0.07,1.01,3.35,-1.74,2.07,0.09,656.00,1168.00,339.00,747.00,547.00,983.00,1793.00,3431.00,,,,,,,,,,,,0,0,0,,-3216,15920,-416,-251,119,-232
8.187,8.09,2.01,2.31,-1.36,3.63,-1.70,1.52,0.35,2.25,0.32,681.00,1141.00,368.00,698.00,505.00,999.00,1765.00,3386.00,,,,,,,,,,,,0,0,0,,-3264,16092,-124,-235,194,-144
8.25,8.15,2.01,0.49,0.46,1.09,0.83,2.19,0.34,3.08,0.19,638.00,1168.00,336.00,721.00,499.00,973.00,1750.00,3287.00,,,,,,,,,,,,0,0,0,,-3244,15904,-116,-6,339,-71
8.291,8.20,2.08,1.41,0.53,1.83,1.42,3.26,-0.45,3.54,-0.03,625.00,1124.00,321.00,689.00,511.00,953.00,1757.00,3248.00,,,,,,,,,,,,0,0,0,,-3144,15952,-384,80,390,-143
8.392,8.26,2.11,2.85,-0.45,2.52,0.74,2.70,0.25,3.18,0.26,642.00,1090.00,329.00,683.00,497.00,956.00,1741.00,3269.00,,,,,,,,,,,,0,0,0,,-3024,15684,-348,-80,287,136
8.414,8.31,2.12,1.66,-0.14,2.53,0.35,2.33,0.41,3.25,0.18,645.00,1133.00,336.00,690.00,496.00,966.00,1746.00,3267.00,,,,,,,,,,,,0,0,0,,-3036,15880,-392,-211,275,12
8.475,8.37,2.15,0.84,1.05,1.48,1.20,2.77,0.26,3.29,0.16,614.00,1134.00,327.00,703.00,496.00,953.00,1747.00,3264.00,,,,,,,,,,,,0,0,0,,-3044,16072,-424,-308,234,33
8.516,8.42,2.22,1.97,-0.13,1.23,1.57,3.53,-0.55,3.38,-0.10,641.00,1119.00,322.00,703.00,511.00,945.00,1769.00,3275.00,,,,,,,,,,,,0,0,0,,-2996,16076,-276,-142,149,-33
8.577,8.48,2.23,2.17,-0.62,3.28,-0.92,2.41,-0.13,2.74,0.13,656.00,1125.00,355.00,693.00,510.00,977.00,1767.00,3338.00,,,,,,,,,,,,0,0,0,,-2992,15972,-208,34,147,-96
8.639,8.53,2.22,0.46,0.44,0.86,0.91,2.10,0.75,2.75,0.26,639.00,1170.00,336.00,726.00,489.00,966.00,1754.00,3324.00,,,,,,,,,,,,0,0,0,,-3060,15888,-252,34,120,-96
8.66,8.59,2.30,1.40,0.15,1.10,1.44,3.78,-1.27,3.16,-0.47,638.00,1136.00,325.00,709.00,529.00,954.00,1811.00,3335.00,,,,,,,,,,,,0,0,0,,-3016,16056,-304,-82,253,-59
8.743,8.64,2.28,2.55,-1.39,3.26,-1.43,1.85,0.20,2.07,0.23,679.00,1131.00,365.00,703.00,506.00,990.00,1779.00,3418.00,,,,,,,,,,,,0,0,0,,-2804,15984,-72,-133,208,-62
8.784,8.70,2.27,0.98,0.09,0.75,0.62,2.03,0.47,2.41,-0.01,645.00,1157.00,342.00,735.00,497.00,976.00,1791.00,3394.00,,,,,,,,,,,,0,0,0,,-3000,15992,-208,-129,178,-98
8.825,8.75,2.31,0.61,0.77,0.41,1.06,3.12,-0.87,2.32,-0.20,626.00,1153.00,336.00,736.00,524.00,969.00,1813.00,3424.00,,,,,,,,,,,,0,0,0,,-2932,16016,-308,-61,214,-80
8.888,8.81,2.31,1.97,-0.55,-0.88,2.86,2.38,-0.16,1.95,0.03,656.00,1132.00,312.00,738.00,511.00,979.00,1803.00,3454.00,,,,,,,,,,,,0,0,0,,-2896,16004,-392,-10,92,-212
8.949,8.86,2.27,1.12,-0.43,1.14,-0.56,1.42,0.35,1.79,-0.12,662.00,1167.00,362.00,747.00,506.00,1003.00,1822.00,3488.00,,,,,,,,,,,,0,0,0,,-2836,16000,-388,18,46,-65
8.99,8.92,2.23,0.18,0.56,-0.78,1.13,1.59,0.29,1.50,0.05,638.00,1179.00,342.00,770.00,506.00,998.00,1815.00,3513.00,,,,,,,,,,,,0,0,0,,-2940,16128,-368,46,117,-89
9.052,8.97,2.31,0.97,-0.22,-0.15,1.08,3.70,-1.41,2.96,-0.46,656.00,1167.00,339.00,752.00,534.00,961.00,1817.00,3361.00,,,,,,,,,,,,0,0,0,,-3048,15948,-384,-68,23,-297
9.116,9.03,2.29,1.95,-1.04,3.53,-1.62,1.99,0.27,2.75,0.22,674.00,1148.00,367.00,699.00,503.00,983.00,1758.00,3328.00,,,,,,,,,,,,0,0,0,,-3152,16012,-452,-140,-51,-199
9.177,9.08,2.31,0.57,0.40,1.00,0.86,2.75,0.42,3.42,0.21,639.00,1166.00,336.00,723.00,492.00,950.00,1738.00,3242.00,,,,,,,,,,,,0,0,0,,-2936,15972,-144,32,87,-247
9.238,9.14,2.43,1.56,0.48,1.69,1.53,4.60,-1.44,4.05,-0.22,625.00,1119.00,320.00,691.00,526.00,928.00,1759.00,3200.00,,,,,,,,,,,,0,0,0,,-2952,15904,-504,-82,134,-357
9.28,9.19,2.46,2.79,-0.83,3.44,-0.29,3.15,0.13,3.37,0.43,656.00,1104.00,342.00,677.00,496.00,942.00,1719.00,3230.00,,,,,,,,,,,,0,0,0,,-3024,15756,-276,-45,-7,-351
9.341,9.25,2.43,1.81,0.02,2.29,0.65,1.86,2.32,3.49,0.29,638.00,1122.00,332.00,691.00,451.00,935.00,1728.00,3226.00,,,,,,,,,,,,0,0,0,,-3092,16056,-488,-63,-130,-287
9.422,9.30,2.49,1.27,0.87,1.85,1.19,3.57,-0.05,3.58,0.07,615.00,1120.00,325.00,693.00,497.00,931.00,1746.00,3234.00,,,,,,,,,,,,0,0,0,,-3192,15908,-148,-204,9,-255
9.484,9.36,2.55,2.90,-0.55,2.57,0.33,3.77,-0.26,3.39,0.14,645.00,1091.00,336.00,689.00,501.00,929.00,1745.00,3252.00,,,,,,,,,,,,0,0,0,,-3104,16064,-384,-150,50,-238
9.504,9.41,2.58,2.11,-0.40,2.72,-0.37,2.97,-0.06,3.17,0.07,649.00,1121.00,348.00,698.00,503.00,954.00,1759.00,3287.00,,,,,,,,,,,,0,0,0,,-3176,15988,-180,-16,78,-240
9.567,9.47,2.59,1.12,0.28,1.28,0.49,2.78,0.48,2.88,0.22,637.00,1145.00,341.00,722.00,490.00,947.00,1754.00,3311.00,,,,,,,,,,,,0,0,0,,-3228,15864,-336,4,104,-217
9.607,9.52,2.68,1.63,0.05,0.59,1.61,4.42,-1.38,3.27,-0.42,639.00,1129.00,325.00,720.00,526.00,933.00,1803.00,3317.00,,,,,,,,,,,,0,0,0,,-3192,15832,-236,24,142,-143
9.669,9.58,2.65,2.67,-1.42,3.07,-1.32,2.19,0.20,2.15,0.25,679.00,1127.00,364.00,706.00,503.00,977.00,1775.00,3406.00,,,,,,,,,,,,0,0,0,,-3244,15972,-324,-26,194,-151
9.731,9.63,2.65,0.46,0.41,-0.15,1.19,2.54,0.56,2.40,0.14,640.00,1171.00,337.00,750.00,490.00,954.00,1777.00,3382.00,,,,,,,,,,,,0,0,0,,-3092,15900,-284,9,204,-125
9.792,9.69,2.67,0.77,0.60,0.37,1.13,3.19,-0.43,2.45,-0.19,630.00,1151.00,335.00,736.00,511.00,955.00,1808.00,3406.00,,,,,,,,,,,,0,0,0,,-3256,15964,-372,-3,192,-86
9.855,9.74,2.66,2.01,-0.68,1.85,-0.54,2.36,0.18,1.92,0.13,660.00,1134.00,357.00,726.00,502.00,971.00,1794.00,3448.00,,,,,,,,,,,,0,0,0,,-3000,16000,-284,-108,66,-52
9.876,9.80,2.63,0.91,-0.20,0.42,0.25,2.12,0.29,1.83,0.01,656.00,1169.00,351.00,752.00,501.00,977.00,1808.00,3471.00,,,,,,,,,,,,0,0,0,,-3060,15848,-228,-71,6,-32
9.939,9.85,2.61,-0.07,1.00,0.08,0.26,2.18,-0.02,1.67,-0.06,626.00,1177.00,353.00,762.00,509.00,983.00,1820.00,3499.00,,,,,,,,,,,,0,0,0,,-3076,15904,-312,-106,80,-284
9.98,9.91,2.65,1.50,-0.48,0.38,0.26,3.44,-1.22,2.44,-0.36,659.00,1151.00,351.00,753.00,531.00,966.00,1825.00,3423.00,,,,,,,,,,,,0,0,0,,-2992,16128,-396,-222,59,-221
10.042,9.96,2.64,1.30,-0.36,2.81,-0.71,2.38,-0.05,3.02,-0.00,657.00,1156.00,354.00,702.00,508.00,976.00,1771.00,3313.00,,,,,,,,,,,,0,0,0,,-3112,16136,-124,-199,90,-133
10.103,10.02,2.65,0.52,0.42,1.41,0.72,2.85,0.50,3.57,0.26,639.00,1168.00,336.00,714.00,489.00,944.00,1728.00,3218.00,,,,,,,,,,,,0,0,0,,-2956,15916,-60,-42,125,-91
10.144,10.07,2.75,1.87,0.05,2.16,1.49,4.65,-1.35,4.31,-0.17,636.00,1118.00,318.00,679.00,523.00,924.00,1746.00,3163.00,,,,,,,,,,,,0,0,0,,-2988,16064,-156,67,256,-159
10.247,10.13,2.76,3.01,-1.15,4.80,-1.01,3.02,0.18,3.65,0.48,665.00,1104.00,347.00,654.00,496.00,946.00,1705.00,3189.00,,,,,,,,,,,,0,0,0,,-3008,16084,-612,14,188,-231
10.268,10.18,2.78,1.17,0.49,2.08,1.28,3.14,0.66,3.86,0.27,629.00,1136.00,322.00,685.00,482.00,929.00,1718.00,3181.00,,,,,,,,,,,,0,0,0,,-3016,15784,-544,-121,37,-47
10.309,10.24,2.84,1.38,0.81,2.11,1.56,4.00,-0.15,3.87,0.05,616.00,1117.00,317.00,679.00,496.00,918.00,1739.00,3199.00,,,,,,,,,,,,0,0,0,,-3032,16072,-180,-59,-52,-153
10.371,10.29,2.88,2.88,-0.46,3.05,0.67,3.57,-0.01,3.41,0.33,642.00,1089.00,327.00,670.00,496.00,930.00,1727.00,3233.00,,,,,,,,,,,,0,0,0,,-2992,16036,-236,-66,105,-171
10.433,10.35,2.88,1.64,-0.10,2.72,0.28,2.98,0.19,3.33,0.28,644.00,1133.00,336.00,686.00,496.00,947.00,1734.00,3248.00,,,,,,,,,,,,0,0,0,,-3056,15844,-300,17,163,-310
10.474,10.40,2.88,0.86,0.95,1.85,1.13,2.89,0.45,3.42,0.16,617.00,1136.00,326.00,694.00,490.00,944.00,1743.00,3247.00,,,,,,,,,,,,0,0,0,,-2984,15936,-504,22,-39,-212
10.577,10.46,2.95,1.79,-0.09,1.37,1.52,4.30,-1.20,3.31,-0.23,642.00,1126.00,322.00,700.00,522.00,933.00,1783.00,3295.00,,,,,,,,,,,,0,0,0,,-3084,15980,-308,-57,-149,-121
10.597,10.51,2.92,2.16,-1.06,3.82,-1.62,2.22,0.19,2.43,0.17,672.00,1139.00,365.00,691.00,503.00,976.00,1773.00,3375.00,,,,,,,,,,,,0,0,0,,-3096,16020,-312,-101,7,-211
10.638,10.57,2.90,0.54,0.38,0.24,1.06,2.50,0.43,2.42,0.21,640.00,1168.00,337.00,741.00,494.00,959.00,1770.00,3373.00,,,,,,,,,,,,0,0,0,,-2968,15988,-340,-121,-104,-263
10.722,10.62,2.93,1.28,0.16,0.46,1.66,3.65,-1.19,2.63,-0.47,639.00,1141.00,325.00,723.00,528.00,957.00,1829.00,3407.00,,,,,,,,,,,,0,0,0,,-3172,15880,-204,-179,-19,-146
10.764,10.68,2.91,2.26,-1.18,2.21,-0.72,2.35,-0.00,1.74,0.14,675.00,1138.00,358.00,719.00,507.00,976.00,1799.00,3472.00,,,,,,,,,,,,0,0,0,,-3112,16088,-360,-231,98,-185
10.803,10.73,2.86,0.89,-0.11,0.24,0.47,2.09,0.34,1.70,0.10,653.00,1167.00,348.00,753.00,500.00,977.00,1804.00,3481.00,,,,,,,,,,,,0,0,0,,-3060,16028,-348,-79,43,-222
10.864,10.79,2.85,0.39,0.61,0.29,0.24,2.51,-0.20,1.50,-0.20,634.00,1168.00,352.00,756.00,511.00,975.00,1840.00,3537.00,,,,,,,,,,,,0,0,0,,-3052,15720,-240,-103,58,-137
10.967,10.84,2.85,1.71,-0.46,0.72,0.15,2.95,-0.81,2.10,-0.22,656.00,1141.00,351.00,745.00,524.00,974.00,1822.00,3456.00,,,,,,,,,,,,0,0,0,,-3052,15688,28,-196,-24,-147
10.987,10.90,2.83,1.39,-0.36,2.30,-0.17,2.49,0.17,2.63,0.13,656.00,1152.00,347.00,706.00,501.00,966.00,1771.00,3353.00,,,,,,,,,,,,0,0,0,,-2988,15848,-164,-56,157,-221
11.049,10.95,2.82,1.07,0.18,1.61,0.11,2.64,0.42,2.94,0.28,641.00,1150.00,346.00,720.00,493.00,954.00,1747.00,3299.00,,,,,,,,,,,,0,0,0,,-3076,16028,-144,29,198,-234
11.111,11.01,2.90,1.79,0.11,1.65,1.37,4.41,-1.45,3.71,-0.29,635.00,1120.00,323.00,695.00,528.00,935.00,1776.00,3248.00,,,,,,,,,,,,0,0,0,,-3228,15932,-480,12,145,-200
11.132,11.06,2.87,2.90,-1.23,4.05,-1.08,2.16,0.39,2.75,0.37,669.00,1111.00,353.00,675.00,498.00,973.00,1744.00,3315.00,,,,,,,,,,,,0,0,0,,-3048,15860,-32,-10,151,-134
11.194,11.12,2.86,0.92,0.37,1.17,0.91,2.78,0.48,3.13,0.21,636.00,1151.00,334.00,717.00,490.00,947.00,1747.00,3280.00,,,,,,,,,,,,0,0,0,,-3240,15828,-264,26,123,-411
11.257,11.17,2.90,1.61,0.43,2.04,1.07,3.64,-0.58,3.38,-0.19,626.00,1118.00,326.00,690.00,511.00,942.00,1777.00,3282.00,,,,,,,,,,,,0,0,0,,-3284,15956,-448,-22,107,-135
11.319,11.23,2.89,2.54,-0.46,2.91,-0.05,2.70,0.10,2.67,0.29,646.00,1104.00,341.00,687.00,501.00,960.00,1754.00,3333.00,,,,,,,,,,,,0,0,0,,-3208,15876,-216,-31,46,-175
11.382,11.28,2.88,1.53,-0.01,2.06,0.45,2.64,0.31,2.72,0.22,642.00,1135.00,337.00,701.00,496.00,957.00,1759.00,3332.00,,,,,,,,,,,,0,0,0,,-3284,15928,-348,21,62,-164
11.444,11.34,2.87,0.63,1.06,1.27,0.83,2.73,0.16,2.63,0.01,616.00,1143.00,335.00,716.00,499.00,957.00,1782.00,3363.00,,,,,,,,,,,,0,0,0,,-3176,15928,-284,70,140,-133
11.504,11.39,2.87,2.58,-0.56,1.67,0.91,2.95,-0.35,2.57,-0.06,649.00,1105.00,331.00,703.00,511.00,962.00,1791.00,3378.00,,,,,,,,,,,,0,0,0,,-3192,15936,-448,128,136,-14
11.525,11.45,2.83,1.87,-0.77,3.25,-1.58,1.98,-0.02,2.01,0.09,665.00,1143.00,368.00,706.00,511.00,991.00,1795.00,3440.00,,,,,,,,,,,,0,0,0,,-3260,15980,-600,-112,108,-50
11.586,11.50,2.79,0.26,0.51,-0.00,0.87,2.02,0.33,1.96,0.15,639.00,1177.00,342.00,752.00,501.00,980.00,1790.00,3440.00,,,,,,,,,,,,0,0,0,,-3084,15992,-504,-328,-31,-23
11.669,11.56,2.82,1.41,-0.25,0.27,1.27,3.35,-1.40,2.21,-0.43,652.00,1148.00,333.00,736.00,537.00,974.00,1839.00,3460.00,,,,,,,,,,,,0,0,0,,-3256,15992,-284,-315,-22,-89
11.69,11.61,2.73,2.15,-1.44,2.33,-1.52,1.10,0.27,0.76,0.25,686.00,1151.00,373.00,731.00,511.00,1018.00,1820.00,3598.00,,,,,,,,,,,,0,0,0,,-3156,15916,108,-201,264,-117
11.751,11.67,2.69,0.42,0.03,-0.08,0.05,1.86,0.46,1.70,-0.06,654.00,1185.00,358.00,771.00,499.00,983.00,1819.00,3495.00,,,,,,,,,,,,0,0,0,,-3236,16252,16,-265,588,-249
11.813,11.72,2.70,1.15,0.32,1.13,0.82,2.88,-0.33,2.75,-0.13,635.00,1142.00,336.00,720.00,511.00,964.00,1792.00,3360.00,,,,,,,,,,,,0,0,0,,-3008,16008,228,-263,882,-112
11.853,11.78,2.69,2.51,-0.42,2.53,0.07,2.53,0.16,2.87,0.29,645.00,1104.00,341.00,695.00,501.00,965.00,1748.00,3307.00,,,,,,,,,,,,0,0,0,,-2816,16264,-364,1,883,-146
11.915,11.83,2.68,1.85,-0.09,2.43,0.66,2.47,0.36,3.28,0.36,641.00,1123.00,331.00,687.00,496.00,962.00,1728.00,3247.00,,,,,,,,,,,,0,0,0,,-2884,15984,-640,182,393,-217
11.979,11.89,2.67,0.95,1.41,2.56,0.89,2.61,0.50,3.53,0.31,601.00,1118.00,326.00,679.00,491.00,953.00,1725.00,3219.00,,,,,,,,,,,,0,0,0,,-2840,15816,-856,255,-327,-24
12.081,11.94,2.72,2.04,0.14,2.31,1.32,3.60,-0.57,3.42,0.04,631.00,1108.00,320.00,678.00,511.00,943.00,1754.00,3257.00,,,,,,,,,,,,0,0,0,,-3036,16032,-408,-286,-814,-346
12.102,12.00,2.69,2.60,-0.79,4.05,-1.02,2.05,0.24,2.67,0.28,657.00,1111.00,352.00,674.00,503.00,981.00,1755.00,3334.00,,,,,,,,,,,,0,0,0,,-3144,15944,-64,-401,-600,-272
12.144,12.05,2.67,1.00,0.32,1.41,0.78,2.27,0.65,2.66,0.39,637.00,1149.00,335.00,713.00,490.00,962.00,1745.00,3325.00,,,,,,,,,,,,0,0,0,,-3332,15892,-116,-71,-709,-481
12.206,12.11,2.72,1.87,0.26,1.36,1.64,3.82,-1.28,2.94,-0.36,629.00,1112.00,320.00,698.00,529.00,953.00,1808.00,3355.00,,,,,,,,,,,,0,0,0,,-3508,15956,100,-273,-161,-296
12.268,12.16,2.70,2.97,-1.20,3.00,-0.77,2.18,0.05,2.09,0.26,667.00,1107.00,354.00,698.00,507.00,981.00,1776.00,3413.00,,,,,,,,,,,,0,0,0,,-3464,15868,88,230,196,-290
12.289,12.22,2.67,1.48,0.04,1.73,0.50,2.09,0.38,2.32,0.11,641.00,1136.00,338.00,709.00,499.00,976.00,1783.00,3396.00,,,,,,,,,,,,0,0,0,,-3452,15824,-152,112,175,-206
12.35,12.27,2.67,0.84,1.05,3.39,0.06,2.79,-0.15,2.14,-0.08,614.00,1134.00,336.00,672.00,507.00,963.00,1807.00,3437.00,,,,,,,,,,,,0,0,0,,-3444,15724,-176,-55,169,-48
12.432,12.33,2.65,2.38,-0.44,1.28,0.60,2.31,-0.13,1.65,0.07,647.00,1110.00,339.00,720.00,511.00,981.00,1808.00,3490.00,,,,,,,,,,,,0,0,0,,-3528,15976,-64,150,-302,138
12.452,12.38,2.59,1.49,-0.31,1.84,-0.39,1.45,0.19,1.28,0.14,653.00,1146.00,354.00,723.00,510.00,1006.00,1814.00,3536.00,,,,,,,,,,,,0,0,0,,-3560,15944,312,491,-243,407
12.514,12.44,2.54,0.54,0.38,0.42,0.25,1.49,0.43,1.29,0.09,640.00,1168.00,351.00,752.00,503.00,998.00,1818.00,3538.00,,,,,,,,,,,,0,0,0,,-3232,15680,-32,724,516,189
12.574,12.49,2.57,1.23,-0.02,0.78,1.43,3.22,-1.29,2.86,-0.40,646.00,1149.00,327.00,718.00,535.00,976.00,1815.00,3370.00,,,,,,,,,,,,0,0,0,,-3152,15788,-596,379,993,-140
12.637,12.55,2.55,2.17,-0.98,4.80,-1.12,2.02,0.29,2.94,0.41,669.00,1136.00,349.00,656.00,502.00,981.00,1734.00,3286.00,,,,,,,,,,,,0,0,0,,-2996,15712,-1056,-146,1236,105
12.678,12.60,2.53,0.81,0.47,2.41,1.23,2.14,0.81,3.76,0.44,634.00,1153.00,321.00,677.00,487.00,963.00,1706.00,3179.00,,,,,,,,,,,,0,0,0,,-2952,15872,-1080,-446,1192,264
12.761,12.66,2.58,1.84,0.50,3.06,2.01,3.64,-0.51,4.53,0.01,621.00,1106.00,304.00,646.00,509.00,940.00,1722.00,3120.00,,,,,,,,,,,,0,0,0,,-2756,16064,-1268,-380,627,502
12.823,12.71,2.59,2.78,-0.31,4.56,0.56,2.71,0.28,3.94,0.62,638.00,1089.00,320.00,633.00,496.00,955.00,1684.00,3142.00,,,,,,,,,,,,0,0,0,,-2532,15904,-1168,-102,253,512
12.844,12.77,2.58,2.03,0.09,3.53,1.44,2.51,0.76,3.97,0.57,633.00,1110.00,311.00,644.00,485.00,950.00,1687.00,3142.00,,,,,,,,,,,,0,0,0,,-2452,16128,-1068,-284,154,331
12.907,12.82,2.61,1.08,1.49,2.61,2.17,3.18,0.01,3.84,0.37,597.00,1110.00,304.00,655.00,499.00,944.00,1710.00,3175.00,,,,,,,,,,,,0,0,0,,-2516,15928,-588,-830,171,18
12.948,12.88,2.63,2.78,-0.11,3.33,1.56,3.03,-0.16,3.64,0.25,631.00,1083.00,310.00,647.00,505.00,954.00,1727.00,3211.00,,,,,,,,,,,,0,0,0,,-2440,16348,-340,-1172,159,-84
13.011,12.93,2.60,2.00,-0.11,4.08,-0.18,1.92,0.29,2.95,0.34,640.00,1117.00,336.00,658.00,503.00,985.00,1740.00,3291.00,,,,,,,,,,,,0,0,0,,-2496,16332,220,-916,-12,-382
13.072,12.99,2.57,0.97,0.62,1.04,0.96,1.96,0.64,2.48,0.44,627.00,1141.00,334.00,720.00,493.00,974.00,1746.00,3344.00,,,,,,,,,,,,0,0,0,,-2772,16180,508,-639,-112,-508
13.155,13.04,2.61,1.98,-0.02,1.27,1.61,3.34,-1.12,2.79,-0.29,637.00,1115.00,321.00,701.00,529.00,967.00,1806.00,3369.00,,,,,,,,,,,,0,0,0,,-2752,16132,488,-231,34,-391
13.176,13.10,2.54,2.43,-0.54,3.41,-1.17,1.20,0.53,2.09,0.25,650.00,1111.00,359.00,694.00,503.00,1007.00,1777.00,3414.00,,,,,,,,,,,,0,0,0,,-2868,16020,172,76,-45,-395
13.238,13.15,2.50,1.00,0.03,0.86,0.91,1.83,0.65,2.23,0.22,647.00,1158.00,336.00,726.00,494.00,979.00,1775.00,3398.00,,,,,,,,,,,,0,0,0,,-3052,15984,256,-60,64,-255
13.28,13.21,2.50,1.18,0.63,1.11,1.33,2.44,-0.18,2.14,-0.08,624.00,1131.00,327.00,711.00,511.00,977.00,1807.00,3437.00,,,,,,,,,,,,0,0,0,,-2908,15972,368,-32,98,-112
13.341,13.26,2.46,2.20,-0.26,2.21,-0.03,1.75,0.06,1.69,0.15,643.00,1113.00,345.00,706.00,511.00,998.00,1799.00,3477.00,,,,,,,,,,,,0,0,0,,-3024,16160,340,13,545,-111
13.426,13.32,2.43,1.54,-0.15,1.96,0.54,1.93,0.54,2.77,0.17,647.00,1139.00,336.00,702.00,496.00,978.00,1762.00,3330.00,,,,,,,,,,,,0,0,0,,-2792,16100,344,-20,627,-456
13.467,13.37,2.43,1.03,1.20,1.54,1.75,2.47,0.44,3.46,0.20,607.00,1121.00,317.00,691.00,494.00,960.00,1737.00,3237.00,,,,,,,,,,,,0,0,0,,-2936,16136,132,297,574,-399
13.53,13.43,2.49,2.44,-0.08,2.79,1.45,3.44,-0.33,4.08,0.09,634.00,1097.00,315.00,663.00,506.00,943.00,1728.00,3169.00,,,,,,,,,,,,0,0,0,,-2824,16100,-392,623,304,-300
13.592,13.48,2.48,2.90,-0.70,5.61,-0.69,2.30,0.42,3.82,0.53,650.00,1095.00,336.00,628.00,496.00,967.00,1695.00,3163.00,,,,,,,,,,,,0,0,0,,-2836,15896,-672,373,277,-463
13.612,13.54,2.48,1.49,0.71,2.98,1.62,2.49,1.04,4.06,0.62,618.00,1115.00,311.00,655.00,478.00,944.00,1680.00,3127.00,,,,,,,,,,,,0,0,0,,-2988,15488,-848,15,-84,-648
13.675,13.59,2.55,2.22,0.56,3.31,2.11,3.88,-0.66,4.39,-0.05,615.00,1088.00,301.00,638.00,511.00,935.00,1731.00,3141.00,,,,,,,,,,,,0,0,0,,-3240,15668,-728,-526,-809,-428
13.737,13.65,2.53,3.56,-0.97,5.00,-0.32,2.30,0.68,3.24,0.61,652.00,1075.00,333.00,637.00,489.00,960.00,1706.00,3230.00,,,,,,,,,,,,0,0,0,,-3436,16128,360,-590,-717,-260
13.798,13.70,2.55,1.92,0.45,1.67,2.54,2.75,0.60,3.51,0.34,622.00,1104.00,303.00,673.00,487.00,945.00,1723.00,3220.00,,,,,,,,,,,,0,0,0,,-3504,16284,372,5,82,-453
13.903,13.76,2.57,1.62,1.06,2.58,1.70,3.08,0.16,3.47,0.13,605.00,1099.00,312.00,664.00,496.00,944.00,1744.00,3243.00,,,,,,,,,,,,0,0,0,,-3408,15880,20,253,418,-446
13.924,13.81,2.59,3.16,-0.35,3.14,0.98,2.94,0.17,3.09,0.27,635.00,1074.00,321.00,662.00,497.00,949.00,1743.00,3280.00,,,,,,,,,,,,0,0,0,,-3256,15872,36,243,522,-190
13.966,13.87,2.58,2.15,0.05,3.25,0.33,2.30,0.53,2.98,0.34,633.00,1106.00,332.00,671.00,493.00,964.00,1739.00,3287.00,,,,,,,,,,,,0,0,0,,-3060,15888,-268,261,525,-73
14.007,13.92,2.56,1.53,0.52,1.90,1.06,2.17,0.84,2.96,0.30,624.00,1119.00,327.00,694.00,486.00,961.00,1744.00,3294.00,,,,,,,,,,,,0,0,0,,-2956,16036,-216,147,483,-77
14.049,13.98,2.62,2.10,0.12,1.79,1.44,3.86,-1.26,3.28,-0.16,631.00,1106.00,321.00,690.00,528.00,951.00,1777.00,3292.00,,,,,,,,,,,,0,0,0,,-3112,16208,-248,178,275,-536
14.111,14.03,2.58,2.61,-0.94,3.76,-0.88,1.72,0.21,2.37,0.32,662.00,1115.00,351.00,679.00,507.00,995.00,1761.00,3370.00,,,,,,,,,,,,0,0,0,,-3068,15916,-568,484,251,-522
14.172,14.09,2.54,0.77,0.39,0.99,1.03,1.83,0.84,2.55,0.37,637.00,1157.00,333.00,720.00,489.00,974.00,1750.00,3341.00,,,,,,,,,,,,0,0,0,,-3084,15548,-684,562,27,-619
14.256,14.14,2.59,1.34,0.38,1.45,2.32,3.66,-1.05,3.61,-0.27,631.00,1132.00,308.00,683.00,524.00,953.00,1777.00,3259.00,,,,,,,,,,,,0,0,0,,-3240,15644,-864,-38,-201,-572
14.277,14.20,2.61,2.77,-0.37,4.45,0.20,2.98,0.19,3.64,0.57,640.00,1091.00,327.00,642.00,496.00,947.00,1698.00,3184.00,,,,,,,,,,,,0,0,0,,-3432,15932,-672,-519,-224,-426
14.338,14.25,2.62,2.06,0.34,2.93,1.64,2.72,0.77,4.03,0.56,624.00,1101.00,311.00,656.00,483.00,942.00,1686.00,3135.00,,,,,,,,,,,,0,0,0,,-3492,15828,-432,-318,-66,-350
14.379,14.31,2.66,1.57,1.48,3.16,2.04,3.53,0.38,4.42,0.55,592.00,1089.00,303.00,643.00,486.00,922.00,1675.00,3088.00,,,,,,,,,,,,0,0,0,,-3644,15896,-224,-14,218,-343
14.442,14.36,2.73,3.59,-0.17,3.83,1.76,3.93,-0.09,4.50,0.44,624.00,1051.00,304.00,631.00,495.00,919.00,1683.00,3088.00,,,,,,,,,,,,0,0,0,,-3616,15748,-384,-79,300,-239
14.504,14.42,2.74,2.76,-0.04,4.77,0.49,2.99,0.30,4.08,0.54,629.00,1082.00,320.00,629.00,493.00,944.00,1687.00,3131.00,,,,,,,,,,,,0,0,0,,-3504,15600,-652,-383,242,127
14.545,14.47,2.75,1.67,0.65,3.14,1.33,2.94,1.04,4.12,0.62,618.00,1109.00,315.00,656.00,474.00,927.00,1678.00,3119.00,,,,,,,,,,,,0,0,0,,-3300,15656,-512,-669,168,194
14.65,14.53,2.85,2.73,0.14,2.77,2.79,4.70,-0.94,4.54,-0.01,623.00,1078.00,293.00,640.00,511.00,912.00,1723.00,3120.00,,,,,,,,,,,,0,0,0,,-3408,16144,-240,-887,14,287
14.67,14.58,2.84,3.54,-1.08,4.59,-0.24,2.61,0.43,3.46,0.65,656.00,1079.00,334.00,646.00,493.00,955.00,1696.00,3199.00,,,,,,,,,,,,0,0,0,,-3400,16284,220,-656,28,92
14.711,14.64,2.84,1.47,0.54,1.88,1.41,2.86,0.72,3.60,0.44,624.00,1121.00,321.00,688.00,483.00,938.00,1711.00,3200.00,,,,,,,,,,,,0,0,0,,-3352,16368,416,-225,210,-76
14.772,14.69,2.88,1.89,0.69,1.56,2.04,3.77,-0.30,3.62,0.07,614.00,1098.00,312.00,685.00,502.00,930.00,1745.00,3229.00,,,,,,,,,,,,0,0,0,,-3280,15940,120,295,352,-58
14.834,14.75,2.89,3.27,-0.45,3.35,0.40,2.91,0.21,3.05,0.47,637.00,1072.00,330.00,667.00,496.00,949.00,1725.00,3267.00,,,,,,,,,,,,0,0,0,,-3136,15804,-264,272,237,-23
14.894,14.80,2.87,1.99,0.27,2.23,1.01,2.51,0.72,3.23,0.36,627.00,1106.00,326.00,686.00,486.00,951.00,1730.00,3254.00,,,,,,,,,,,,0,0,0,,-3316,15932,-600,216,120,-52
14.935,14.86,2.87,0.97,1.22,1.64,1.60,2.91,0.21,3.14,0.25,607.00,1123.00,319.00,691.00,496.00,949.00,1743.00,3275.00,,,,,,,,,,,,0,0,0,,-3400,15692,-640,88,74,-141
14.998,14.91,2.88,2.39,-0.21,1.83,1.54,3.05,0.20,3.12,0.06,639.00,1103.00,319.00,687.00,495.00,944.00,1762.00,3295.00,,,,,,,,,,,,0,0,0,,-3456,15556,-552,-175,135,188
15.081,14.97,2.82,2.28,-0.71,3.14,-0.46,1.69,0.37,2.22,0.33,658.00,1123.00,347.00,688.00,503.00,992.00,1765.00,3389.00,,,,,,,,,,,,0,0,0,,-3272,15736,-320,-567,434,20
15.103,15.02,2.79,0.75,0.43,0.96,0.82,2.24,0.78,3.08,0.20,636.00,1157.00,337.00,725.00,487.00,960.00,1749.00,3286.00,,,,,,,,,,,,0,0,0,,-3152,16180,-132,-945,493,127
15.166,15.08,2.86,1.62,0.73,1.62,1.90,4.11,-1.24,4.13,-0.15,616.00,1109.00,314.00,686.00,525.00,941.00,1749.00,3183.00,,,,,,,,,,,,0,0,0,,-3128,16080,248,-603,559,174
15.208,15.13,2.85,3.57,-1.09,3.98,-0.41,2.82,0.47,3.82,0.59,656.00,1078.00,341.00,665.00,490.00,946.00,1690.00,3159.00,,,,,,,,,,,,0,0,0,,-2916,16180,-4,-76,549,198
15.27,15.19,2.87,2.36,0.24,2.90,1.12,3.22,0.79,4.40,0.58,624.00,1091.00,320.00,666.00,478.00,923.00,1673.00,3088.00,,,,,,,,,,,,0,0,0,,-2768,15984,-204,-79,440,316
15.374,15.24,2.92,2.04,1.19,2.56,2.18,3.85,0.31,4.62,0.37,596.00,1077.00,304.00,656.00,485.00,912.00,1686.00,3079.00,,,,,,,,,,,,0,0,0,,-2744,16176,52,-194,196,362
15.394,15.30,2.95,3.68,-0.20,3.34,0.97,3.55,0.22,4.10,0.48,624.00,1048.00,320.00,657.00,490.00,925.00,1692.00,3134.00,,,,,,,,,,,,0,0,0,,-2676,16000,136,-201,445,351
15.436,15.35,2.95,2.66,0.08,3.25,0.49,2.97,0.84,3.97,0.64,626.00,1083.00,329.00,668.00,479.00,931.00,1681.00,3136.00,,,,,,,,,,,,0,0,0,,-2528,16136,68,-196,351,33
15.497,15.41,2.96,1.71,1.28,2.27,1.22,2.98,0.99,3.90,0.62,597.00,1089.00,322.00,681.00,475.00,927.00,1685.00,3147.00,,,,,,,,,,,,0,0,0,,-2548,16224,212,-165,126,84
15.559,15.46,3.03,2.63,0.15,1.96,1.79,4.43,-0.63,4.22,0.10,624.00,1082.00,314.00,679.00,505.00,914.00,1723.00,3151.00,,,,,,,,,,,,0,0,0,,-2496,16128,344,-110,24,-54
15.622,15.52,2.99,3.37,-1.08,4.10,-1.09,2.30,0.68,3.37,0.44,658.00,1086.00,353.00,674.00,489.00,960.00,1718.00,3229.00,,,,,,,,,,,,0,0,0,,-2564,16324,228,-50,75,-187
15.663,15.57,2.98,1.39,0.57,1.04,0.96,2.69,0.93,3.49,0.44,624.00,1124.00,334.00,720.00,479.00,939.00,1714.00,3213.00,,,,,,,,,,,,0,0,0,,-2496,16056,-68,184,9,-231
15.724,15.63,3.02,2.22,0.37,1.26,1.73,3.92,-0.67,3.74,-0.09,621.00,1093.00,319.00,699.00,511.00,934.00,1756.00,3227.00,,,,,,,,,,,,0,0,0,,-2648,16000,-156,161,-136,-328
15.787,15.68,3.01,3.32,-1.01,3.48,-0.67,2.70,0.14,3.00,0.39,656.00,1086.00,349.00,683.00,500.00,959.00,1734.00,3280.00,,,,,,,,,,,,0,0,0,,-2700,16080,-68,70,-102,-379
15.829,15.74,2.98,1.82,0.15,1.02,1.24,2.44,0.67,3.01,0.38,633.00,1117.00,329.00,715.00,488.00,955.00,1735.00,3280.00,,,,,,,,,,,,0,0,0,,-2688,16100,0,-127,-212,-461
15.892,15.79,2.97,1.31,0.98,0.66,1.25,2.80,0.14,2.86,0.04,611.00,1115.00,331.00,725.00,499.00,955.00,1772.00,3330.00,,,,,,,,,,,,0,0,0,,-2812,16020,132,78,-90,-359
15.934,15.85,2.97,2.86,-0.43,0.47,0.93,3.02,-0.37,2.60,0.07,641.00,1089.00,338.00,737.00,511.00,960.00,1777.00,3361.00,,,,,,,,,,,,0,0,0,,-2816,15876,-124,294,-36,-624
15.975,15.90,2.93,1.63,-0.16,1.84,-0.33,2.15,0.10,2.81,0.13,646.00,1135.00,353.00,722.00,506.00,981.00,1765.00,3329.00,,,,,,,,,,,,0,0,0,,-3004,16108,-592,318,-246,-561
16.037,15.96,2.91,1.40,0.44,2.84,-1.24,2.58,0.66,3.63,0.42,628.00,1127.00,364.00,711.00,487.00,950.00,1712.00,3198.00,,,,,,,,,,,,0,0,0,,-2996,15932,-260,29,-303,-599
16.1,16.01,2.98,2.71,-0.17,1.37,2.16,4.23,-0.78,4.38,-0.16,634.00,1088.00,311.00,688.00,511.00,925.00,1742.00,3152.00,,,,,,,,,,,,0,0,0,,-2964,15912,-96,-195,-263,-417
16.142,16.07,2.97,3.39,-1.14,4.26,-0.73,2.71,0.28,3.63,0.56,660.00,1087.00,345.00,663.00,496.00,955.00,1699.00,3186.00,,,,,,,,,,,,0,0,0,,-3028,15960,-32,-170,-92,-475
16.203,16.12,2.95,1.72,0.51,1.42,1.45,2.63,1.34,3.87,0.68,622.00,1111.00,323.00,700.00,469.00,931.00,1680.00,3145.00,,,,,,,,,,,,0,0,0,,-3188,15904,-116,-32,-137,-496
16.265,16.18,2.99,2.33,0.46,1.92,1.63,3.85,-0.21,4.07,0.08,617.00,1086.00,317.00,683.00,499.00,925.00,1729.00,3170.00,,,,,,,,,,,,0,0,0,,-3148,16020,-104,-75,-108,-450
16.327,16.23,3.00,3.31,-0.43,3.15,0.14,3.16,0.24,3.28,0.59,636.00,1070.00,336.00,677.00,493.00,939.00,1707.00,3227.00,,,,,,,,,,,,0,0,0,,-3296,15836,60,-110,-61,-483
16.411,16.29,2.99,2.43,0.04,2.38,0.56,2.65,0.79,3.43,0.45,630.00,1094.00,333.00,690.00,483.00,944.00,1715.00,3220.00,,,,,,,,,,,,0,0,0,,-3344,15896,-116,-138,-75,-304
16.472,16.34,3.00,1.94,0.86,1.18,1.59,3.30,0.19,3.25,0.22,608.00,1091.00,322.00,704.00,493.00,935.00,1742.00,3263.00,,,,,,,,,,,,0,0,0,,-3472,15876,280,-142,-8,-340
16.493,16.40,3.04,3.26,-0.36,1.62,0.98,3.72,-0.43,3.18,0.08,634.00,1070.00,330.00,703.00,506.00,935.00,1758.00,3285.00,,,,,,,,,,,,0,0,0,,-3392,15916,24,-93,138,-211
16.534,16.45,3.00,2.51,-0.42,2.72,-0.42,2.32,0.19,2.69,0.13,645.00,1104.00,349.00,699.00,502.00,972.00,1769.00,3345.00,,,,,,,,,,,,0,0,0,,-3516,15776,216,51,159,-120
16.616,16.51,2.96,1.19,0.43,0.44,0.72,2.17,0.88,2.52,0.31,631.00,1137.00,342.00,742.00,485.00,960.00,1757.00,3351.00,,,,,,,,,,,,0,0,0,,-3376,15888,68,55,304,-83
16.636,16.56,3.01,2.17,0.01,0.33,1.64,3.95,-1.39,2.87,-0.34,634.00,1106.00,326.00,727.00,531.00,951.00,1808.00,3362.00,,,,,,,,,,,,0,0,0,,-3384,15768,-48,-142,501,-93
16.698,16.62,2.94,3.19,-1.49,2.65,-1.43,1.69,0.44,1.72,0.38,675.00,1106.00,369.00,720.00,501.00,990.00,1776.00,3452.00,,,,,,,,,,,,0,0,0,,-3336,16056,44,-112,436,8
16.759,16.67,2.90,0.99,0.23,0.37,0.37,2.03,0.51,1.91,0.27,640.00,1152.00,349.00,751.00,496.00,975.00,1781.00,3437.00,,,,,,,,,,,,0,0,0,,-3188,15980,-156,-35,364,96
16.842,16.73,2.89,1.10,0.66,-0.14,0.97,2.68,-0.26,2.05,-0.15,624.00,1134.00,341.00,754.00,511.00,970.00,1817.00,3456.00,,,,,,,,,,,,0,0,0,,-3216,15772,108,42,382,208
16.863,16.78,2.86,2.69,-0.68,1.40,-0.29,2.36,0.18,2.51,0.06,652.00,1104.00,355.00,734.00,502.00,971.00,1781.00,3374.00,,,,,,,,,,,,0,0,0,,-3192,15756,44,19,439,-24
16.926,16.84,2.84,2.05,-0.18,1.88,0.18,2.54,0.41,3.11,0.30,642.00,1117.00,343.00,711.00,494.00,958.00,1739.00,3274.00,,,,,,,,,,,,0,0,0,,-3212,15900,-64,-126,302,215
16.967,16.89,2.85,1.27,1.24,1.21,1.07,2.92,0.40,3.52,0.22,603.00,1109.00,331.00,713.00,491.00,944.00,1734.00,3229.00,,,,,,,,,,,,0,0,0,,-3072,15904,24,-116,391,183
17.03,16.95,2.90,2.61,-0.02,1.66,1.14,3.89,-0.52,3.91,0.03,630.00,1088.00,327.00,699.00,507.00,931.00,1739.00,3195.00,,,,,,,,,,,,0,0,0,,-3016,15924,-4,-42,430,224
17.091,17.00,2.88,3.52,-0.82,3.77,-0.61,2.56,0.15,3.13,0.55,647.00,1072.00,346.00,674.00,501.00,964.00,1715.00,3250.00,,,,,,,,,,,,0,0,0,,-2944,15912,-52,-142,537,81
17.153,17.06,2.88,1.50,0.50,0.90,1.00,2.75,0.60,3.48,0.35,625.00,1121.00,334.00,723.00,487.00,945.00,1723.00,3223.00,,,,,,,,,,,,0,0,0,,-2872,16012,-228,-108,478,150
17.194,17.11,2.95,2.30,0.26,1.45,1.73,4.29,-1.26,3.78,-0.18,624.00,1093.00,318.00,694.00,524.00,935.00,1763.00,3230.00,,,,,,,,,,,,0,0,0,,-2840,16116,-220,-174,415,179
17.278,17.17,2.92,3.45,-1.16,3.42,-0.87,2.37,0.47,2.93,0.41,660.00,1085.00,353.00,688.00,494.00,963.00,1734.00,3287.00,,,,,,,,,,,,0,0,0,,-2704,16000,-116,-148,282,172
17.298,17.22,2.90,2.33,-0.16,1.11,1.33,2.65,0.56,3.13,0.32,638.00,1104.00,327.00,711.00,489.00,950.00,1737.00,3270.00,,,,,,,,,,,,0,0,0,,-2712,16112,-196,-152,160,6
17.361,17.28,2.92,1.50,1.10,1.59,0.83,3.28,-0.13,3.05,0.09,605.00,1103.00,333.00,707.00,502.00,944.00,1761.00,3301.00,,,,,,,,,,,,0,0,0,,-2764,16032,-196,-109,109,38
17.402,17.33,2.91,3.15,-0.43,1.68,0.69,2.73,0.05,2.57,0.27,638.00,1077.00,335.00,707.00,502.00,960.00,1759.00,3348.00,,,,,,,,,,,,0,0,0,,-2632,16004,-40,-77,149,41
17.464,17.39,2.87,2.03,-0.12,1.56,0.29,2.06,0.50,2.44,0.17,640.00,1116.00,343.00,718.00,496.00,974.00,1773.00,3374.00,,,,,,,,,,,,0,0,0,,-2724,16132,-160,-115,193,-13
17.567,17.44,2.83,0.21,0.96,0.04,0.86,1.99,0.52,2.15,0.23,624.00,1165.00,342.00,751.00,496.00,976.00,1777.00,3408.00,,,,,,,,,,,,0,0,0,,-2600,15988,-116,-127,130,-81
17.588,17.50,2.85,1.93,-0.17,-0.15,1.08,3.29,-1.28,2.33,-0.26,643.00,1122.00,339.00,752.00,534.00,973.00,1818.00,3428.00,,,,,,,,,,,,0,0,0,,-2576,16136,76,-117,49,-168
17.63,17.55,2.77,2.82,-1.29,2.19,-1.86,1.29,0.24,1.22,0.22,672.00,1116.00,381.00,742.00,510.00,1011.00,1808.00,3536.00,,,,,,,,,,,,0,0,0,,-2580,16020,-164,-53,50,-165
17.714,17.61,2.72,0.48,0.32,-1.18,0.58,1.72,0.36,1.31,0.22,643.00,1173.00,355.00,794.00,503.00,991.00,1805.00,3524.00,,,,,,,,,,,,0,0,0,,-2712,16092,80,34,68,-388
17.755,17.66,2.74,1.53,-0.03,-0.36,0.62,3.22,-1.29,2.28,-0.51,643.00,1136.00,349.00,768.00,535.00,976.00,1845.00,3458.00,,,,,,,,,,,,0,0,0,,-2748,16280,-76,7,108,-434
17.817,17.72,2.72,2.65,-0.72,2.48,-0.86,2.19,0.23,2.55,0.40,654.00,1107.00,359.00,714.00,502.00,976.00,1747.00,3338.00,,,,,,,,,,,,0,0,0,,-2684,16068,-12,-66,60,-356
17.942,17.77,2.70,2.07,-0.10,1.23,0.67,2.40,0.42,3.07,0.28,639.00,1114.00,338.00,720.00,495.00,963.00,1742.00,3281.00,,,,,,,,,,,,0,0,0,,-2752,16092,-64,78,-63,-338
17.962,17.83,2.72,1.70,0.88,1.72,0.95,3.05,0.17,3.51,0.12,610.00,1101.00,330.00,701.00,496.00,945.00,1743.00,3238.00,,,,,,,,,,,,0,0,0,,-2648,16024,-44,64,-67,-429
17.982,17.88,2.75,3.35,-0.36,1.86,0.85,3.31,-0.14,3.42,0.32,633.00,1066.00,331.00,699.00,502.00,943.00,1727.00,3232.00,,,,,,,,,,,,0,0,0,,-2864,16032,-136,3,-84,-506
18.024,17.94,2.73,2.77,-0.37,2.67,0.24,2.40,0.50,3.07,0.33,640.00,1091.00,337.00,688.00,493.00,961.00,1738.00,3277.00,,,,,,,,,,,,0,0,0,,-2732,15984,-412,58,-168,-445
18.066,17.99,2.70,2.03,0.29,1.64,0.53,2.14,1.08,3.09,0.36,626.00,1104.00,338.00,711.00,480.00,956.00,1734.00,3271.00,,,,,,,,,,,,0,0,0,,-2852,15848,-52,-180,-463,-436
18.129,18.05,2.78,2.32,0.19,1.27,1.61,4.34,-1.42,3.59,-0.28,626.00,1094.00,321.00,701.00,528.00,937.00,1779.00,3263.00,,,,,,,,,,,,0,0,0,,-2896,16152,-144,-283,-668,-500
18.191,18.10,2.75,3.20,-1.14,3.41,-1.33,2.06,0.43,2.29,0.37,662.00,1095.00,362.00,697.00,498.00,976.00,1759.00,3376.00,,,,,,,,,,,,0,0,0,,-3080,15988,148,-213,-547,-431
18.254,18.16,2.71,1.55,0.37,0.50,1.03,2.03,0.85,2.46,0.25,629.00,1123.00,336.00,734.00,487.00,966.00,1765.00,3364.00,,,,,,,,,,,,0,0,0,,-3244,16036,172,-52,-104,-399
18.295,18.21,2.76,1.98,0.37,0.90,1.06,3.66,-1.09,3.08,-0.95,624.00,1104.00,333.00,722.00,525.00,954.00,1862.00,3390.00,,,,,,,,,,,,0,0,0,,-3116,16000,88,52,130,-431
18.357,18.27,2.73,2.79,-0.63,1.84,-0.23,2.19,0.23,1.92,0.19,649.00,1098.00,351.00,720.00,502.00,976.00,1788.00,3442.00,,,,,,,,,,,,0,0,0,,-3192,15832,-56,41,148,-311
18.419,18.32,2.69,1.65,0.21,0.98,0.27,1.99,0.52,1.90,0.16,633.00,1123.00,347.00,735.00,496.00,976.00,1791.00,3447.00,,,,,,,,,,,,0,0,0,,-3156,15924,24,-52,103,-260
18.461,18.38,2.67,0.86,0.95,0.34,0.81,2.29,0.16,1.91,-0.01,617.00,1136.00,341.00,743.00,503.00,974.00,1808.00,3463.00,,,,,,,,,,,,0,0,0,,-3104,15764,-208,-237,-59,-146
18.566,18.43,2.66,2.66,-0.64,0.35,0.70,2.48,-0.19,1.60,-0.04,651.00,1104.00,343.00,745.00,511.00,976.00,1821.00,3508.00,,,,,,,,,,,,0,0,0,,-3048,16032,-152,-302,-207,-238
18.586,18.49,2.62,1.90,-0.59,0.96,-0.55,1.86,-0.41,1.08,-0.07,658.00,1136.00,363.00,752.00,523.00,1006.00,1841.00,3583.00,,,,,,,,,,,,0,0,0,,-3196,15872,360,-184,-46,-135
18.67,18.54,2.55,0.45,0.36,-0.92,-0.17,1.20,0.60,0.65,0.09,642.00,1173.00,368.00,802.00,501.00,1005.00,1840.00,3630.00,,,,,,,,,,,,0,0,0,,-3268,16148,188,-68,278,-305
18.691,18.60,2.58,1.53,-0.24,-1.11,0.71,3.14,-1.40,1.61,-0.64,650.00,1142.00,352.00,789.00,539.00,982.00,1881.00,3563.00,,,,,,,,,,,,0,0,0,,-3220,16096,16,63,310,-215
18.733,18.65,2.52,1.70,-1.07,2.43,-1.35,1.39,0.47,1.97,0.13,678.00,1160.00,369.00,725.00,503.00,1001.00,1792.00,3441.00,,,,,,,,,,,,0,0,0,,-3136,15868,-64,-7,165,-47
18.795,18.71,2.50,0.92,0.37,0.80,0.44,2.07,0.76,2.81,0.13,636.00,1151.00,345.00,737.00,489.00,967.00,1765.00,3329.00,,,,,,,,,,,,0,0,0,,-3124,15872,8,-108,53,-83
18.835,18.76,2.53,1.98,0.37,1.45,0.82,3.21,-0.07,3.05,-0.00,624.00,1104.00,334.00,711.00,501.00,945.00,1770.00,3309.00,,,,,,,,,,,,0,0,0,,-3120,15848,152,-227,232,59
18.898,18.82,2.55,3.22,-0.37,2.53,0.13,2.91,0.21,2.92,0.32,635.00,1072.00,340.00,694.00,496.00,949.00,1743.00,3297.00,,,,,,,,,,,,0,0,0,,-3180,15960,92,-184,399,-34
18.962,18.87,2.54,2.28,0.12,1.83,0.25,2.34,0.63,2.77,0.36,629.00,1098.00,342.00,711.00,490.00,960.00,1744.00,3313.00,,,,,,,,,,,,0,0,0,,-3016,15948,-76,3,446,75
19.045,18.93,2.55,1.31,1.38,1.00,0.92,2.75,0.46,2.92,0.15,598.00,1103.00,335.00,722.00,491.00,949.00,1759.00,3312.00,,,,,,,,,,,,0,0,0,,-3112,15980,-60,44,301,77
19.066,18.98,2.60,3.12,-0.22,1.55,0.57,3.41,-0.36,2.85,0.00,631.00,1072.00,338.00,713.00,507.00,945.00,1776.00,3335.00,,,,,,,,,,,,0,0,0,,-2908,16028,128,2,312,162
19.108,19.04,2.57,2.70,-0.60,2.44,-0.59,2.05,0.21,2.28,0.21,649.00,1101.00,354.00,710.00,504.00,982.00,1774.00,3392.00,,,,,,,,,,,,0,0,0,,-3000,15960,-12,-16,288,-85
19.171,19.09,2.56,1.06,0.59,0.28,0.45,2.34,0.63,2.37,0.27,627.00,1138.00,348.00,752.00,490.00,960.00,1766.00,3375.00,,,,,,,,,,,,0,0,0,,-3004,15904,-136,16,343,40
19.233,19.15,2.62,2.25,-0.08,0.41,1.06,3.81,-1.31,2.71,-0.35,636.00,1105.00,336.00,736.00,530.00,954.00,1815.00,3385.00,,,,,,,,,,,,0,0,0,,-2924,16044,-76,-9,244,48
19.295,19.20,2.56,3.06,-1.23,2.34,-1.27,1.49,0.65,1.73,0.26,667.00,1104.00,368.00,726.00,497.00,992.00,1787.00,3462.00,,,,,,,,,,,,0,0,0,,-2856,16004,-84,-140,296,-48
19.337,19.26,2.54,1.29,0.27,-0.19,0.45,2.13,0.48,1.96,0.11,635.00,1137.00,351.00,766.00,496.00,972.00,1794.00,3444.00,,,,,,,,,,,,0,0,0,,-2828,16092,-4,-80,240,-116
19.398,19.31,2.54,1.39,0.57,-0.13,0.86,2.58,-0.22,1.93,-0.18,624.00,1124.00,343.00,756.00,511.00,973.00,1824.00,3475.00,,,,,,,,,,,,0,0,0,,-2784,15996,-16,-14,113,-143
19.46,19.37,2.53,2.69,-0.65,0.75,-0.48,2.31,-0.13,1.34,0.10,651.00,1103.00,363.00,757.00,511.00,981.00,1816.00,3531.00,,,,,,,,,,,,0,0,0,,-2796,16080,-12,21,58,-116
19.502,19.42,2.50,1.78,-0.40,0.12,-0.52,1.81,0.07,1.21,0.00,653.00,1136.00,368.00,777.00,510.00,995.00,1830.00,3559.00,,,,,,,,,,,,0,0,0,,-2832,15992,-124,54,140,-128
19.564,19.48,2.45,0.55,0.85,-1.90,0.72,1.59,0.33,1.07,-0.04,624.00,1153.00,357.00,814.00,505.00,997.00,1839.00,3583.00,,,,,,,,,,,,0,0,0,,-2736,16068,-88,-79,152,-18
19.625,19.53,2.47,1.41,-0.25,-1.37,0.49,2.77,-0.89,1.16,-0.35,652.00,1148.00,358.00,802.00,528.00,983.00,1867.00,3600.00,,,,,,,,,,,,0,0,0,,-2836,16312,-236,-51,232,-371
19.686,19.59,2.42,2.22,-1.22,1.75,-1.86,1.49,0.21,1.78,0.01,677.00,1141.00,384.00,755.00,509.00,1004.00,1810.00,3478.00,,,,,,,,,,,,0,0,0,,-2844,16020,20,-112,34,-213
19.77,19.64,2.38,1.00,0.29,-0.18,0.35,1.66,1.12,2.54,0.16,638.00,1150.00,353.00,768.00,483.00,973.00,1771.00,3362.00,,,,,,,,,,,,0,0,0,,-2764,16084,-96,-9,-99,-345
19.791,19.70,2.46,1.98,0.37,0.10,1.16,3.89,-1.30,3.29,-0.33,624.00,1104.00,336.00,743.00,529.00,951.00,1794.00,3307.00,,,,,,,,,,,,0,0,0,,-2904,16016,76,107,35,-295
19.854,19.75,2.44,3.54,-1.22,2.70,-1.24,2.16,0.47,3.04,0.27,661.00,1083.00,365.00,715.00,496.00,971.00,1744.00,3286.00,,,,,,,,,,,,0,0,0,,-3024,15956,-188,-25,98,-541
19.896,19.81,2.44,2.12,0.32,1.16,0.21,2.51,0.76,2.99,0.22,624.00,1099.00,347.00,731.00,485.00,950.00,1750.00,3296.00,,,,,,,,,,,,0,0,0,,-3012,15896,-128,-49,75,-248
19.938,19.86,2.48,1.92,0.96,0.73,0.95,3.12,0.11,3.02,-0.05,605.00,1089.00,336.00,729.00,497.00,944.00,1775.00,3317.00,,,,,,,,,,,,0,0,0,,-3028,15920,-20,-57,-14,-315
20.0,19.92,2.58,3.44,-0.45,1.75,-0.15,4.59,-0.57,2.64,0.13,635.00,1065.00,350.00,721.00,502.00,907.00,1770.00,3351.00,,,,,,,,,,,,0,0,0,,-3160,15972,-64,-71,46,-249
20.062,19.97,2.61,2.39,-0.24,1.26,-0.35,3.12,0.14,2.45,0.14,640.00,1104.00,357.00,739.00,496.00,943.00,1776.00,3376.00,,,,,,,,,,,,0,0,0,,-3132,15912,36,-9,37,-344
20.144,20.03,2.59,1.31,1.01,-0.06,0.46,2.20,0.64,2.19,0.22,610.00,1114.00,350.00,762.00,491.00,965.00,1776.00,3403.00,,,,,,,,,,,,0,0,0,,-3104,15952,-156,5,85,-265
20.166,20.08,2.65,2.35,-0.05,-0.12,0.69,3.76,-1.12,2.47,-0.27,634.00,1100.00,346.00,759.00,525.00,951.00,1815.00,3410.00,,,,,,,,,,,,0,0,0,,-3100,15912,-152,80,116,-190
20.228,20.14,2.61,2.97,-1.20,1.53,-1.35,1.81,0.03,1.57,0.11,667.00,1107.00,375.00,751.00,511.00,996.00,1807.00,3498.00,,,,,,,,,,,,0,0,0,,-3136,15752,-128,-13,142,-216
20.291,20.19,2.58,1.01,0.37,-0.77,0.03,2.06,0.50,1.66,0.09,635.00,1147.00,363.00,793.00,496.00,974.00,1806.00,3487.00,,,,,,,,,,,,0,0,0,,-3208,15952,-324,-191,-16,-219
20.332,20.25,2.62,1.61,0.17,-0.73,0.53,3.36,-1.27,1.86,-0.58,635.00,1126.00,353.00,781.00,533.00,970.00,1866.00,3522.00,,,,,,,,,,,,0,0,0,,-3256,15828,148,-253,160,-174
20.394,20.30,2.60,2.74,-1.09,0.64,-1.48,2.24,-0.72,0.77,0.11,666.00,1114.00,384.00,781.00,528.00,999.00,1834.00,3611.00,,,,,,,,,,,,0,0,0,,-3260,15956,8,-174,220,-138
20.456,20.36,2.56,1.57,-0.14,-1.29,-0.05,1.72,0.43,0.82,0.03,646.00,1137.00,368.00,811.00,501.00,989.00,1840.00,3611.00,,,,,,,,,,,,0,0,0,,-3184,15956,76,14,275,-33
20.519,20.41,2.55,1.38,0.54,-1.45,0.06,2.39,-0.59,0.75,-0.22,625.00,1125.00,367.00,814.00,523.00,990.00,1867.00,3645.00,,,,,,,,,,,,0,0,0,,-3116,15996,-168,74,277,4
20.559,20.47,2.53,2.27,-0.57,-0.77,-0.77,2.18,-0.69,0.49,-0.04,653.00,1119.00,379.00,810.00,528.00,1001.00,1858.00,3665.00,,,,,,,,,,,,0,0,0,,-3216,16024,-220,-89,479,-104
20.621,20.52,2.48,1.65,-0.45,0.08,-0.66,1.62,0.42,1.88,-0.17,656.00,1143.00,371.00,781.00,502.00,993.00,1825.00,3482.00,,,,,,,,,,,,0,0,0,,-3148,15948,-76,-279,347,88
20.682,20.58,2.46,1.50,0.03,0.15,-0.43,1.99,0.52,2.24,0.06,641.00,1135.00,366.00,774.00,496.00,976.00,1790.00,3411.00,,,,,,,,,,,,0,0,0,,-3024,15956,108,-174,430,91
20.704,20.63,2.53,2.60,-0.28,-0.28,1.13,3.92,-1.32,3.07,-0.40,639.00,1096.00,339.00,755.00,529.00,950.00,1808.00,3342.00,,,,,,,,,,,,0,0,0,,-3004,16024,-148,-73,538,84
20.766,20.69,2.50,3.17,-0.96,2.41,-1.93,1.92,0.43,2.41,0.24,656.00,1091.00,381.00,737.00,499.00,981.00,1767.00,3371.00,,,,,,,,,,,,0,0,0,,-2976,15944,-252,-133,385,61
20.829,20.74,2.50,1.26,0.55,-0.56,0.47,2.41,0.72,2.57,0.27,626.00,1130.00,353.00,777.00,487.00,955.00,1759.00,3347.00,,,,,,,,,,,,0,0,0,,-2848,16048,-284,-86,262,95
20.87,20.80,2.57,2.16,0.34,-0.41,1.17,3.86,-1.26,3.01,-0.41,623.00,1097.00,339.00,758.00,528.00,951.00,1811.00,3351.00,,,,,,,,,,,,0,0,0,,-2952,15964,-92,-70,236,-19
20.933,20.85,2.56,3.26,-0.70,1.01,-0.47,2.46,0.22,2.29,0.21,646.00,1080.00,361.00,749.00,500.00,966.00,1774.00,3390.00,,,,,,,,,,,,0,0,0,,-2808,16068,-192,-138,145,24
20.996,20.91,2.56,2.23,-0.01,-0.09,0.26,2.47,0.40,2.50,0.08,634.00,1104.00,354.00,767.00,495.00,961.00,1780.00,3374.00,,,,,,,,,,,,0,0,0,,-2900,16016,-116,-10,92,-113
21.036,20.96,2.56,1.62,0.78,-0.41,0.63,2.63,0.20,2.41,-0.16,614.00,1107.00,349.00,769.00,499.00,960.00,1806.00,3408.00,,,,,,,,,,,,0,0,0,,-2720,16088,56,-61,104,-133
21.099,21.02,2.57,3.08,-0.41,-0.25,0.16,2.71,-0.27,2.06,-0.06,638.00,1079.00,357.00,774.00,511.00,969.00,1808.00,3447.00,,,,,,,,,,,,0,0,0,,-2892,16140,-184,-70,65,-113
21.161,21.07,2.53,2.05,-0.21,-0.01,-0.63,1.92,0.14,1.49,0.07,643.00,1118.00,371.00,783.00,507.00,989.00,1814.00,3513.00,,,,,,,,,,,,0,0,0,,-2828,16016,-28,-93,82,-158
21.243,21.13,2.46,1.19,0.37,-1.44,-0.10,1.13,0.77,1.37,0.10,633.00,1139.00,370.00,817.00,497.00,1003.00,1815.00,3527.00,,,,,,,,,,,,0,0,0,,-2932,16004,-84,-100,158,-257
21.264,21.18,2.51,1.88,-0.12,-1.55,0.70,3.40,-1.55,1.68,-0.53,642.00,1123.00,355.00,803.00,541.00,976.00,1867.00,3543.00,,,,,,,,,,,,0,0,0,,-2776,15972,-184,-194,196,-198
21.326,21.24,2.44,2.43,-1.23,0.51,-2.06,1.00,0.31,0.65,0.07,675.00,1132.00,397.00,797.00,511.00,1021.00,1842.00,3632.00,,,,,,,,,,,,0,0,0,,-2780,16056,-200,-66,88,-235
21.367,21.29,2.38,0.64,0.23,-1.65,-1.05,1.33,0.49,0.72,-0.01,644.00,1168.00,391.00,845.00,503.00,1003.00,1847.00,3629.00,,,,,,,,,,,,0,0,0,,-2824,15972,-44,-51,-18,-291
21.428,21.35,2.40,1.23,0.24,-1.98,0.33,2.78,-1.18,1.05,-0.44,637.00,1141.00,365.00,825.00,536.00,990.00,1879.00,3623.00,,,,,,,,,,,,0,0,0,,-2920,16072,-216,-74,-56,-313
21.511,21.40,2.37,2.32,-0.64,0.13,-0.87,1.85,0.31,1.78,-0.00,655.00,1119.00,375.00,784.00,503.00,987.00,1811.00,3479.00,,,,,,,,,,,,0,0,0,,-3136,15960,36,-257,-19,-279
21.533,21.46,2.36,1.95,-0.06,-0.08,0.16,2.09,0.45,2.27,0.11,639.00,1118.00,356.00,769.00,497.00,974.00,1784.00,3402.00,,,,,,,,,,,,0,0,0,,-3036,16064,240,-118,-24,-268
21.615,21.51,2.37,1.54,0.90,-0.45,0.70,2.67,0.18,2.63,0.02,611.00,1107.00,348.00,769.00,499.00,959.00,1781.00,3362.00,,,,,,,,,,,,0,0,0,,-3128,15980,56,2,205,-284
21.655,21.57,2.41,3.44,-0.59,0.54,0.31,3.16,-0.38,2.77,0.02,640.00,1069.00,349.00,747.00,510.00,955.00,1777.00,3344.00,,,,,,,,,,,,0,0,0,,-2996,15932,-116,-116,70,-329
21.696,21.62,2.40,2.71,-0.37,1.05,-0.64,2.22,0.08,2.36,0.06,641.00,1094.00,364.00,751.00,506.00,979.00,1786.00,3395.00,,,,,,,,,,,,0,0,0,,-3008,15904,-212,-129,19,-168
21.76,21.68,2.38,1.74,0.24,-0.71,0.21,2.00,0.71,2.36,0.06,631.00,1118.00,359.00,787.00,491.00,971.00,1786.00,3395.00,,,,,,,,,,,,0,0,0,,-3104,15868,96,-46,119,-222
21.803,21.73,2.45,2.46,0.03,-0.56,1.00,3.78,-1.27,2.59,-0.39,630.00,1093.00,343.00,766.00,529.00,954.00,1823.00,3405.00,,,,,,,,,,,,0,0,0,,-3036,15912,40,-124,145,-177
21.863,21.79,2.42,3.19,-1.19,1.75,-1.76,1.69,0.40,1.60,0.20,664.00,1097.00,382.00,753.00,502.00,991.00,1797.00,3485.00,,,,,,,,,,,,0,0,0,,-3160,15936,48,-14,120,-266
21.926,21.84,2.39,1.32,0.27,-0.85,-0.05,1.96,0.72,1.81,0.08,635.00,1136.00,365.00,797.00,491.00,972.00,1802.00,3467.00,,,,,,,,,,,,0,0,0,,-3260,15908,-136,-106,150,-137
21.988,21.90,2.42,1.65,0.48,-1.08,0.80,2.92,-0.73,1.79,-0.29,624.00,1115.00,350.00,786.00,522.00,973.00,1839.00,3505.00,,,,,,,,,,,,0,0,0,,-3148,15932,-12,-101,238,-45
22.029,21.95,2.39,2.69,-0.46,-0.05,-0.47,1.85,0.06,1.16,0.09,644.00,1097.00,368.00,781.00,510.00,994.00,1823.00,3557.00,,,,,,,,,,,,0,0,0,,-3128,15964,-184,-69,302,-40
22.091,22.01,2.44,1.63,-0.18,-0.88,-0.19,3.39,-2.22,1.11,-0.07,647.00,1136.00,368.00,801.00,561.00,994.00,1840.00,3579.00,,,,,,,,,,,,0,0,0,,-3140,15920,152,-95,374,-9
22.153,22.06,2.55,0.80,1.03,-1.54,0.13,4.65,-1.60,1.14,-0.15,615.00,1136.00,366.00,815.00,530.00,930.00,1847.00,3583.00,,,,,,,,,,,,0,0,0,,-3032,16020,-64,-114,392,59
22.194,22.12,2.54,2.48,-0.44,-1.49,0.02,2.24,-0.72,0.78,-0.15,646.00,1106.00,368.00,816.00,528.00,999.00,1859.00,3634.00,,,,,,,,,,,,0,0,0,,-3084,15860,-144,-114,257,82
22.256,22.17,2.49,1.43,-0.31,-0.75,-1.11,1.59,-0.64,0.15,-0.04,654.00,1149.00,386.00,817.00,532.00,1023.00,1870.00,3715.00,,,,,,,,,,,,0,0,0,,-3096,16132,-116,-79,273,91
22.339,22.23,2.43,0.35,0.51,-2.37,-0.42,1.23,0.23,0.46,-0.08,638.00,1173.00,383.00,855.00,511.00,1014.00,1863.00,3673.00,,,,,,,,,,,,0,0,0,,-2936,15968,-180,-106,360,116
22.38,22.28,2.47,1.60,-0.15,-0.68,-0.10,3.31,-1.42,2.33,-0.60,646.00,1136.00,365.00,793.00,538.00,976.00,1852.00,3459.00,,,,,,,,,,,,0,0,0,,-2940,16008,68,-126,268,87
22.441,22.34,2.42,2.95,-1.27,1.61,-1.86,1.55,0.19,1.80,0.19,670.00,1110.00,385.00,759.00,509.00,1002.00,1792.00,3459.00,,,,,,,,,,,,0,0,0,,-2848,15904,-168,-123,177,-4
22.483,22.39,2.40,1.21,0.36,-0.72,0.42,1.96,0.61,2.67,0.09,633.00,1138.00,355.00,783.00,494.00,975.00,1773.00,3350.00,,,,,,,,,,,,0,0,0,,-2780,15976,-108,-143,258,4
22.543,22.45,2.42,1.91,0.57,-0.69,1.05,2.72,-0.13,2.95,-0.11,618.00,1101.00,343.00,769.00,507.00,965.00,1783.00,3331.00,,,,,,,,,,,,0,0,0,,-2752,16124,140,-116,303,-97
22.583,22.50,2.41,3.48,-0.58,1.14,-0.66,2.32,0.01,2.29,0.30,639.00,1067.00,364.00,749.00,507.00,977.00,1765.00,3382.00,,,,,,,,,,,,0,0,0,,-2688,16076,-48,-64,198,-124
22.644,22.56,2.41,2.16,0.10,-1.01,0.52,2.28,0.09,2.42,0.20,631.00,1104.00,355.00,790.00,505.00,976.00,1771.00,3374.00,,,,,,,,,,,,0,0,0,,-2664,16096,-56,-108,59,-215
22.728,22.61,2.40,1.44,1.12,-0.46,0.81,2.29,0.20,2.52,-0.01,605.00,1105.00,346.00,767.00,502.00,973.00,1788.00,3380.00,,,,,,,,,,,,0,0,0,,-2712,16132,-32,-85,69,-132
22.748,22.67,2.43,1.86,1.29,-0.10,0.37,3.04,-0.98,2.45,-0.05,595.00,1082.00,352.00,765.00,528.00,975.00,1794.00,3393.00,,,,,,,,,,,,0,0,0,,-2672,16160,52,-18,-7,-277
22.809,22.72,2.40,2.56,-0.50,0.80,-0.80,1.89,-0.53,1.83,0.03,647.00,1104.00,369.00,762.00,526.00,1008.00,1806.00,3469.00,,,,,,,,,,,,0,0,0,,-2756,16004,68,40,27,-313
22.851,22.78,2.35,1.19,0.43,-1.29,-0.05,1.36,0.73,1.71,0.19,631.00,1137.00,368.00,811.00,496.00,995.00,1795.00,3471.00,,,,,,,,,,,,0,0,0,,-2856,16040,-244,-20,-54,-300
22.934,22.83,2.39,2.06,-0.13,-1.03,0.22,3.18,-1.65,2.01,-0.44,640.00,1115.00,361.00,797.00,546.00,987.00,1847.00,3489.00,,,,,,,,,,,,0,0,0,,-2780,16024,-84,-85,-90,-300
22.975,22.89,2.30,2.88,-1.33,0.51,-1.78,0.55,0.46,0.34,0.85,673.00,1115.00,391.00,791.00,511.00,1035.00,1776.00,3601.00,,,,,,,,,,,,0,0,0,,-2872,15956,40,-173,57,-376
23.017,22.94,2.26,0.77,0.34,-2.31,0.55,1.52,0.42,1.02,0.06,639.00,1159.00,363.00,831.00,503.00,997.00,1830.00,3579.00,,,,,,,,,,,,0,0,0,,-2992,16092,-256,-193,-10,-407
23.081,23.00,2.24,1.18,0.58,-1.75,0.36,1.88,-0.63,0.87,-0.25,626.00,1133.00,363.00,817.00,529.00,1011.00,1867.00,3632.00,,,,,,,,,,,,0,0,0,,-3012,16084,160,-5,-120,-269
23.143,23.05,2.20,2.46,-0.72,-0.42,-1.70,1.34,-0.27,-0.05,0.21,656.00,1115.00,396.00,819.00,524.00,1023.00,1851.00,3719.00,,,,,,,,,,,,0,0,0,,-3092,15832,188,30,52,-484
23.184,23.11,2.14,1.06,0.09,-1.65,-0.42,0.97,0.32,0.90,-0.05,644.00,1153.00,378.00,831.00,511.00,1022.00,1845.00,3607.00,,,,,,,,,,,,0,0,0,,-3180,16040,16,38,207,-549
23.246,23.16,2.11,2.68,-1.70,-0.84,0.41,1.58,0.11,1.92,0.00,689.00,1135.00,356.00,787.00,511.00,1003.00,1806.00,3459.00,,,,,,,,,,,,0,0,0,,-3144,15852,-72,-25,90,-288
23.309,23.22,2.13,2.86,-0.40,-1.02,1.54,2.57,-0.83,2.26,-0.08,640.00,1088.00,336.00,769.00,528.00,989.00,1803.00,3421.00,,,,,,,,,,,,0,0,0,,-3068,15872,60,29,64,-225
23.371,23.27,2.09,2.59,-0.53,1.36,-1.04,1.36,0.19,2.17,0.12,648.00,1104.00,370.00,750.00,511.00,1010.00,1786.00,3414.00,,,,,,,,,,,,0,0,0,,-3168,15832,-96,-21,258,-220
23.455,23.33,2.06,1.51,0.35,-0.36,-0.11,1.49,0.76,2.29,0.36,630.00,1125.00,363.00,783.00,494.00,989.00,1760.00,3377.00,,,,,,,,,,,,0,0,0,,-3256,16012,-20,-48,373,-270
23.476,23.38,2.12,2.33,0.01,-0.27,1.01,3.15,-1.33,2.69,-0.33,632.00,1099.00,341.00,757.00,537.00,980.00,1813.00,3386.00,,,,,,,,,,,,0,0,0,,-3136,15916,-304,-33,209,-110
23.518,23.44,2.07,2.99,-1.07,1.45,-1.22,1.23,0.27,1.68,0.37,662.00,1102.00,373.00,751.00,510.00,1013.00,1778.00,3458.00,,,,,,,,,,,,0,0,0,,-3192,15980,28,-14,139,-37
23.58,23.49,2.04,1.16,0.38,-0.74,0.64,1.49,0.69,2.10,0.23,633.00,1140.00,351.00,779.00,496.00,991.00,1778.00,3414.00,,,,,,,,,,,,0,0,0,,-3248,15956,-64,74,180,-75
23.661,23.55,2.06,1.69,0.58,-0.44,1.07,2.45,-0.68,2.09,-0.07,620.00,1110.00,341.00,761.00,525.00,990.00,1808.00,3444.00,,,,,,,,,,,,0,0,0,,-3140,15904,-168,42,225,-60
23.682,23.60,2.01,2.88,-0.46,0.66,-0.61,0.90,-0.09,1.55,0.17,642.00,1089.00,366.00,762.00,523.00,1036.00,1802.00,3495.00,,,,,,,,,,,,0,0,0,,-3076,15808,-108,13,181,5
23.743,23.66,1.97,1.83,-0.05,-0.33,0.08,1.19,0.31,1.45,0.14,640.00,1123.00,359.00,778.00,509.00,1013.00,1808.00,3512.00,,,,,,,,,,,,0,0,0,,-3120,15868,-80,-70,215,66
23.827,23.71,1.94,0.89,0.94,-1.18,0.58,1.39,0.18,1.36,0.02,617.00,1135.00,355.00,794.00,511.00,1009.00,1823.00,3536.00,,,,,,,,,,,,0,0,0,,-3100,15940,-212,-185,328,40
23.849,23.77,1.94,2.60,-0.62,-0.80,0.45,2.03,-0.92,1.20,-0.10,651.00,1106.00,355.00,785.00,536.00,1013.00,1840.00,3569.00,,,,,,,,,,,,0,0,0,,-3004,15820,-120,-233,341,67
23.908,23.82,1.89,1.77,-0.46,0.34,-1.29,0.83,-0.41,0.55,0.12,655.00,1138.00,382.00,786.00,533.00,1048.00,1840.00,3641.00,,,,,,,,,,,,0,0,0,,-3084,16060,-20,-206,300,167
23.949,23.88,1.81,0.32,0.54,-2.20,0.21,0.30,0.65,-0.62,0.53,637.00,1173.00,369.00,835.00,508.00,1040.00,1838.00,3771.00,,,,,,,,,,,,0,0,0,,-2832,16108,80,-106,310,46
24.033,23.93,1.84,1.65,-0.42,-1.65,0.07,2.42,-1.86,0.99,-0.48,655.00,1142.00,368.00,820.00,560.00,1023.00,1886.00,3637.00,,,,,,,,,,,,0,0,0,,-2908,16072,-124,-60,352,13
24.074,23.99,1.77,2.56,-1.50,1.05,-2.19,0.40,0.51,1.36,0.02,683.00,1134.00,396.00,783.00,511.00,1040.00,1823.00,3536.00,,,,,,,,,,,,0,0,0,,-2816,16076,56,-33,180,73
24.115,24.04,1.73,0.78,0.42,-3.36,4.18,1.03,0.70,2.14,0.24,636.00,1156.00,304.00,786.00,500.00,1009.00,1776.00,3408.00,,,,,,,,,,,,0,0,0,,-2704,16004,-68,-71,189,-99
24.177,24.10,1.76,1.66,0.53,-0.19,1.15,2.35,-0.68,2.60,-0.03,622.00,1113.00,338.00,752.00,526.00,994.00,1787.00,3371.00,,,,,,,,,,,,0,0,0,,-2900,16048,-40,-109,148,-97
24.262,24.15,1.76,2.95,-0.43,1.04,-0.17,1.75,0.06,2.41,0.26,640.00,1085.00,355.00,742.00,511.00,998.00,1765.00,3370.00,,,,,,,,,,,,0,0,0,,-2776,16040,40,-150,173,-100
24.303,24.21,1.73,2.39,-0.21,0.37,0.32,1.23,0.56,2.40,0.18,639.00,1103.00,350.00,752.00,502.00,1005.00,1773.00,3378.00,,,,,,,,,,,,0,0,0,,-2660,16280,76,-17,172,-141
24.345,24.26,1.73,1.43,0.94,-0.19,0.56,1.58,0.11,2.42,0.10,611.00,1111.00,349.00,764.00,511.00,1003.00,1780.00,3383.00,,,,,,,,,,,,0,0,0,,-2784,15924,-88,62,106,-185
24.407,24.32,1.75,3.14,-0.49,0.28,0.45,2.18,-0.63,2.40,0.04,640.00,1079.00,348.00,752.00,526.00,999.00,1787.00,3391.00,,,,,,,,,,,,0,0,0,,-2832,16016,-76,123,100,-170
24.469,24.37,1.71,2.38,-0.44,1.18,-0.73,0.94,0.33,2.07,0.11,647.00,1110.00,365.00,749.00,511.00,1023.00,1791.00,3429.00,,,,,,,,,,,,0,0,0,,-2908,15992,-32,127,113,-225
24.551,24.43,1.68,1.31,0.18,-0.62,0.18,1.23,0.45,1.85,0.34,638.00,1139.00,359.00,785.00,505.00,1008.00,1776.00,3438.00,,,,,,,,,,,,0,0,0,,-2936,15960,-164,55,-22,-241
24.572,24.48,1.73,2.02,-0.17,-0.77,1.08,2.60,-1.39,2.25,-0.32,642.00,1118.00,343.00,771.00,544.00,1003.00,1827.00,3445.00,,,,,,,,,,,,0,0,0,,-2864,16140,-152,32,14,-243
24.613,24.54,1.68,2.69,-1.16,1.36,-1.73,0.80,-0.20,0.98,0.43,669.00,1118.00,384.00,764.00,527.00,1043.00,1795.00,3549.00,,,,,,,,,,,,0,0,0,,-2960,15932,-60,21,81,-271
24.675,24.59,1.65,0.96,0.24,-1.12,0.35,0.97,0.32,1.44,0.24,640.00,1153.00,359.00,797.00,511.00,1022.00,1799.00,3504.00,,,,,,,,,,,,0,0,0,,-2876,16108,-244,48,71,-382
24.738,24.65,1.65,1.32,0.27,-0.72,0.42,1.65,-0.73,1.50,-0.18,635.00,1136.00,355.00,783.00,534.00,1023.00,1838.00,3535.00,,,,,,,,,,,,0,0,0,,-3056,16008,-232,51,-23,-240
24.78,24.70,1.61,2.26,-0.43,-0.34,-0.42,0.96,-0.35,0.80,0.21,648.00,1115.00,369.00,789.00,530.00,1041.00,1823.00,3597.00,,,,,,,,,,,,0,0,0,,-2964,15912,-136,49,18,-384
24.842,24.76,1.58,1.34,-0.09,-0.84,-0.20,0.90,-0.26,1.07,0.06,647.00,1146.00,368.00,800.00,528.00,1041.00,1829.00,3573.00,,,,,,,,,,,,0,0,0,,-3020,16072,-304,-14,67,-321
24.946,24.81,1.57,0.93,0.78,-0.46,0.23,1.36,0.19,2.21,0.02,622.00,1138.00,357.00,779.00,511.00,1010.00,1795.00,3419.00,,,,,,,,,,,,0,0,0,,-3084,15960,-68,-88,-118,-261
24.967,24.87,1.59,2.74,-0.38,0.19,0.54,2.12,-0.64,2.62,0.04,641.00,1093.00,347.00,753.00,527.00,1002.00,1780.00,3362.00,,,,,,,,,,,,0,0,0,,-2984,15872,48,0,18,-230
25.03,24.92,1.58,2.39,-0.24,1.40,-0.39,1.23,0.23,2.54,0.18,640.00,1104.00,357.00,736.00,511.00,1014.00,1769.00,3360.00,,,,,,,,,,,,0,0,0,,-3052,15984,-236,-5,130,-315
25.051,24.98,1.56,1.45,0.55,0.37,0.32,1.30,0.76,2.79,0.41,624.00,1122.00,350.00,752.00,496.00,997.00,1739.00,3306.00,,,,,,,,,,,,0,0,0,,-3072,15920,-332,-12,127,-238
25.113,25.03,1.62,2.40,0.08,0.04,1.46,2.73,-0.95,3.18,-0.24,629.00,1094.00,331.00,739.00,530.00,986.00,1788.00,3312.00,,,,,,,,,,,,0,0,0,,-3180,15972,-260,-20,136,-171
25.174,25.09,1.60,3.08,-0.93,2.24,-1.49,1.23,0.23,2.33,0.44,656.00,1094.00,373.00,733.00,511.00,1014.00,1751.00,3365.00,,,,,,,,,,,,0,0,0,,-3028,15948,-164,-49,158,-220
25.216,25.14,1.59,1.56,0.22,-0.19,0.45,1.46,0.59,2.60,0.41,634.00,1127.00,351.00,766.00,499.00,995.00,1745.00,3331.00,,,,,,,,,,,,0,0,0,,-3112,15952,-292,-76,127,-85
25.279,25.20,1.62,1.84,0.56,-0.20,1.26,2.18,-0.09,2.73,0.04,619.00,1104.00,336.00,750.00,511.00,985.00,1776.00,3347.00,,,,,,,,,,,,0,0,0,,-3024,16008,-232,-42,66,-119
25.34,25.25,1.65,3.01,-0.45,1.13,-0.36,2.19,-0.45,2.23,0.40,640.00,1083.00,358.00,743.00,521.00,994.00,1758.00,3382.00,,,,,,,,,,,,0,0,0,,-3012,15908,-216,-38,183,-138
25.383,25.31,1.63,1.93,0.06,-0.03,0.61,1.32,0.31,2.23,0.21,635.00,1115.00,347.00,758.00,508.00,1008.00,1776.00,3399.00,,,,,,,,,,,,0,0,0,,-3172,15884,-236,-65,124,-92
25.446,25.36,1.63,1.25,1.00,-0.12,0.69,1.49,0.14,2.14,0.12,611.00,1117.00,346.00,759.00,511.00,1006.00,1787.00,3418.00,,,,,,,,,,,,0,0,0,,-3120,15900,-164,-151,258,-48
25.508,25.42,1.66,2.46,-0.35,-0.32,0.60,2.24,-0.82,2.04,0.00,643.00,1104.00,349.00,767.00,531.00,1002.00,1802.00,3443.00,,,,,,,,,,,,0,0,0,,-3148,15992,-220,-285,324,-59
25.57,25.47,1.64,2.03,-0.52,0.71,-0.72,1.24,-0.41,1.61,0.12,654.00,1128.00,368.00,763.00,529.00,1031.00,1805.00,3491.00,,,,,,,,,,,,0,0,0,,-3040,15936,-200,-163,230,13
25.654,25.53,1.59,1.09,0.29,-0.60,-0.13,0.78,0.56,1.41,0.29,637.00,1146.00,365.00,791.00,506.00,1023.00,1795.00,3503.00,,,,,,,,,,,,0,0,0,,-3136,16116,-212,-45,290,116
25.675,25.58,1.64,1.79,-0.07,-1.51,1.11,2.52,-1.53,2.00,-0.39,641.00,1125.00,347.00,793.00,549.00,1010.00,1842.00,3485.00,,,,,,,,,,,,0,0,0,,-3016,15992,-240,-32,434,-20
25.716,25.64,1.61,2.88,-1.30,1.53,-1.40,0.97,0.32,2.19,0.22,672.00,1114.00,376.00,752.00,511.00,1022.00,1776.00,3403.00,,,,,,,,,,,,0,0,0,,-3012,15892,-204,-112,231,49
25.779,25.69,1.61,1.79,0.14,0.02,0.60,1.59,0.62,2.94,0.37,634.00,1119.00,347.00,757.00,497.00,989.00,1738.00,3290.00,,,,,,,,,,,,0,0,0,,-2764,16068,124,-63,282,38
25.82,25.75,1.66,2.15,0.52,0.72,1.06,2.71,-0.27,3.53,0.11,617.00,1092.00,334.00,727.00,511.00,969.00,1744.00,3237.00,,,,,,,,,,,,0,0,0,,-2712,16008,-88,-20,366,-16
25.883,25.80,1.70,3.35,-0.21,1.79,0.32,2.45,0.07,3.42,0.54,628.00,1062.00,341.00,711.00,504.00,970.00,1707.00,3214.00,,,,,,,,,,,,0,0,0,,-2724,16036,-260,-64,196,-96
25.944,25.86,1.72,2.60,0.16,1.09,0.83,2.03,0.51,3.49,0.47,624.00,1083.00,336.00,721.00,496.00,975.00,1711.00,3210.00,,,,,,,,,,,,0,0,0,,-2820,15852,-276,-48,194,18
26.026,25.91,1.75,2.77,0.86,0.81,1.09,2.30,0.42,3.56,0.34,599.00,1056.00,333.00,724.00,496.00,967.00,1721.00,3213.00,,,,,,,,,,,,0,0,0,,-2808,15980,-352,-110,94,-120
26.047,25.97,1.80,3.46,-0.13,1.13,0.82,2.79,-0.11,3.57,0.27,624.00,1055.00,336.00,720.00,506.00,962.00,1727.00,3217.00,,,,,,,,,,,,0,0,0,,-2856,15972,-100,-157,111,-97
26.109,26.02,1.82,3.12,-0.40,2.07,-0.31,2.28,-0.02,3.20,0.39,637.00,1077.00,351.00,715.00,508.00,979.00,1728.00,3255.00,,,,,,,,,,,,0,0,0,,-2672,16176,-100,-18,51,-165
26.151,26.08,1.82,2.00,0.33,-0.09,0.90,1.76,0.79,3.14,0.44,625.00,1104.00,342.00,754.00,491.00,978.00,1725.00,3258.00,,,,,,,,,,,,0,0,0,,-2824,16088,-200,91,80,-244
26.214,26.13,1.91,2.76,-0.04,0.36,1.19,3.55,-1.16,3.49,-0.12,629.00,1082.00,334.00,735.00,528.00,960.00,1767.00,3262.00,,,,,,,,,,,,0,0,0,,-2880,15992,-436,60,65,-231
26.274,26.19,1.89,3.24,-0.95,2.47,-1.31,1.59,0.44,2.55,0.39,655.00,1088.00,368.00,723.00,502.00,994.00,1748.00,3339.00,,,,,,,,,,,,0,0,0,,-2844,15872,-188,-93,100,-240
26.399,26.24,1.89,1.65,0.48,-0.71,1.27,1.79,0.59,2.82,0.32,624.00,1115.00,339.00,765.00,496.00,982.00,1747.00,3311.00,,,,,,,,,,,,0,0,0,,-2856,16052,-248,-160,99,-255
26.419,26.30,1.93,2.10,0.36,-0.67,2.21,2.79,-0.65,2.87,-0.01,623.00,1099.00,322.00,745.00,521.00,976.00,1776.00,3333.00,,,,,,,,,,,,0,0,0,,-2824,16024,-172,-151,5,-269
26.44,26.35,1.92,2.86,-0.40,0.87,-0.32,1.72,0.21,1.95,0.37,640.00,1088.00,359.00,750.00,507.00,995.00,1770.00,3422.00,,,,,,,,,,,,0,0,0,,-2980,15988,-44,-80,-84,-246
26.502,26.41,1.90,1.96,0.05,0.13,0.14,1.49,0.62,2.19,0.17,635.00,1114.00,355.00,763.00,498.00,993.00,1781.00,3407.00,,,,,,,,,,,,0,0,0,,-3080,16172,-228,-20,-42,-265
26.563,26.46,1.89,1.29,0.78,-0.74,0.69,1.68,0.22,2.13,0.07,618.00,1122.00,350.00,778.00,507.00,996.00,1793.00,3425.00,,,,,,,,,,,,0,0,0,,-2928,16136,-228,38,100,-358
26.605,26.52,1.93,2.88,-0.46,0.40,0.57,2.68,-0.26,3.21,0.02,642.00,1089.00,345.00,746.00,511.00,970.00,1762.00,3285.00,,,,,,,,,,,,0,0,0,,-3032,15996,-164,-53,0,-269
26.687,26.57,1.95,2.81,-0.32,0.30,2.40,2.48,-0.19,3.34,0.31,638.00,1088.00,313.00,713.00,511.00,976.00,1731.00,3244.00,,,,,,,,,,,,0,0,0,,-3148,15940,-116,-21,-3,-247
26.749,26.63,1.97,2.24,0.28,0.42,0.95,2.34,0.67,3.73,0.39,624.00,1095.00,338.00,738.00,489.00,959.00,1711.00,3187.00,,,,,,,,,,,,0,0,0,,-3072,15964,12,24,207,-155
26.769,26.68,2.06,3.37,-0.10,0.85,1.81,3.67,-0.59,4.40,0.06,624.00,1058.00,320.00,709.00,511.00,941.00,1721.00,3131.00,,,,,,,,,,,,0,0,0,,-2988,16004,-272,-7,262,-201
26.851,26.74,2.07,4.23,-1.06,3.24,-0.54,2.33,0.41,3.65,0.55,647.00,1049.00,348.00,687.00,496.00,966.00,1699.00,3184.00,,,,,,,,,,,,0,0,0,,-3068,15868,-248,43,201,-143
26.871,26.79,2.10,2.30,0.44,1.13,0.87,2.65,0.79,3.94,0.50,618.00,1088.00,335.00,719.00,483.00,944.00,1695.00,3152.00,,,,,,,,,,,,0,0,0,,-3112,15944,-484,-118,87,-172
26.934,26.85,2.17,3.00,0.44,1.18,1.64,3.42,-0.14,4.08,0.17,610.00,1058.00,321.00,703.00,501.00,939.00,1721.00,3162.00,,,,,,,,,,,,0,0,0,,-3232,15924,-144,-121,160,-130
26.974,26.90,2.19,3.55,-0.16,-0.46,1.30,2.71,0.36,3.54,0.55,624.00,1052.00,337.00,757.00,494.00,953.00,1702.00,3197.00,,,,,,,,,,,,0,0,0,,-3136,16012,-196,-86,138,-76
27.035,26.96,2.22,2.91,0.05,1.22,0.84,2.71,0.43,3.61,0.42,624.00,1073.00,335.00,717.00,492.00,951.00,1712.00,3200.00,,,,,,,,,,,,0,0,0,,-3052,15956,-188,-74,196,-23
27.117,27.01,2.26,2.22,1.10,1.03,1.13,3.05,0.17,3.56,0.31,597.00,1072.00,331.00,717.00,496.00,945.00,1724.00,3216.00,,,,,,,,,,,,0,0,0,,-3012,15896,-280,-64,219,-122
27.138,27.07,2.30,3.87,-0.44,2.01,0.52,2.93,-0.02,3.39,0.25,630.00,1047.00,336.00,701.00,502.00,954.00,1735.00,3243.00,,,,,,,,,,,,0,0,0,,-2976,15900,-312,-100,155,0
27.2,27.12,2.30,3.08,-0.41,1.98,-0.28,2.39,0.06,3.04,0.34,638.00,1079.00,351.00,717.00,505.00,973.00,1738.00,3280.00,,,,,,,,,,,,0,0,0,,-3032,15904,-164,-151,224,1
27.263,27.18,2.28,2.06,0.34,0.36,0.48,1.83,0.80,2.99,0.31,624.00,1101.00,347.00,749.00,490.00,975.00,1742.00,3289.00,,,,,,,,,,,,0,0,0,,-3056,15912,-228,-162,271,21
27.325,27.23,2.35,2.91,-0.30,0.14,1.32,3.83,-1.46,3.24,-0.16,636.00,1083.00,333.00,739.00,534.00,957.00,1779.00,3298.00,,,,,,,,,,,,0,0,0,,-2896,16040,-200,-158,256,-38
27.366,27.29,2.31,3.48,-1.31,2.02,-1.26,1.39,0.25,2.20,0.43,665.00,1088.00,370.00,735.00,509.00,1007.00,1756.00,3383.00,,,,,,,,,,,,0,0,0,,-3000,16036,-184,-57,176,-13
27.427,27.34,2.28,1.42,0.35,-0.66,0.72,1.86,0.57,2.41,0.34,631.00,1129.00,349.00,775.00,496.00,980.00,1758.00,3363.00,,,,,,,,,,,,0,0,0,,-2964,15980,-184,-70,162,-21
27.531,27.40,2.33,2.09,0.30,-0.18,1.04,3.18,-1.03,2.99,-0.34,625.00,1101.00,340.00,754.00,528.00,971.00,1804.00,3346.00,,,,,,,,,,,,0,0,0,,-2808,16104,-256,-76,298,-60
27.55,27.45,2.33,3.16,-0.53,1.75,-0.09,2.30,0.42,3.22,0.43,641.00,1079.00,349.00,720.00,496.00,967.00,1723.00,3248.00,,,,,,,,,,,,0,0,0,,-2808,16124,-348,-135,258,-7
27.591,27.51,2.34,2.95,-0.43,1.28,0.66,2.51,0.57,3.88,0.40,640.00,1085.00,338.00,719.00,490.00,955.00,1706.00,3168.00,,,,,,,,,,,,0,0,0,,-2784,16104,-104,-44,181,-70
27.654,27.56,2.37,2.32,1.16,1.14,1.54,2.99,0.30,4.17,0.33,594.00,1066.00,323.00,706.00,493.00,944.00,1703.00,3137.00,,,,,,,,,,,,0,0,0,,-2740,16048,-160,66,243,-88
27.696,27.62,2.47,4.13,-0.33,2.08,1.11,4.31,-1.41,4.35,0.40,623.00,1033.00,325.00,688.00,528.00,938.00,1691.00,3109.00,,,,,,,,,,,,0,0,0,,-2792,16200,-552,-16,273,-219
27.756,27.67,2.48,3.46,-0.13,2.38,0.67,2.74,0.27,3.95,0.48,624.00,1055.00,331.00,688.00,496.00,954.00,1696.00,3152.00,,,,,,,,,,,,0,0,0,,-2848,15772,-288,-34,181,-85
27.858,27.73,2.48,2.57,0.62,1.27,0.77,2.59,0.89,3.98,0.49,609.00,1071.00,336.00,717.00,481.00,944.00,1694.00,3147.00,,,,,,,,,,,,0,0,0,,-2736,16036,-244,-45,34,-121
27.879,27.78,2.58,3.55,-0.16,0.87,2.04,4.43,-1.28,4.34,0.02,624.00,1052.00,316.00,704.00,523.00,930.00,1727.00,3143.00,,,,,,,,,,,,0,0,0,,-2804,16132,-304,-87,5,-176
27.92,27.84,2.57,4.06,-1.11,1.46,1.55,2.29,0.35,3.42,0.51,651.00,1058.00,321.00,697.00,498.00,969.00,1710.00,3216.00,,,,,,,,,,,,0,0,0,,-2780,16056,-192,64,21,-295
27.982,27.89,2.57,2.27,0.27,0.65,0.76,2.62,0.73,3.74,0.40,624.00,1094.00,340.00,735.00,485.00,947.00,1710.00,3185.00,,,,,,,,,,,,0,0,0,,-2824,16040,-284,168,26,-280
28.044,27.95,2.71,2.88,0.30,1.25,1.16,5.28,-1.13,4.04,-0.06,616.00,1067.00,329.00,710.00,511.00,896.00,1744.00,3187.00,,,,,,,,,,,,0,0,0,,-2828,15972,-264,59,-4,-307
28.108,28.00,2.70,3.69,-0.67,2.72,-0.26,2.57,0.29,3.69,0.52,640.00,1061.00,346.00,696.00,497.00,960.00,1701.00,3182.00,,,,,,,,,,,,0,0,0,,-2768,16080,-352,-134,149,-535
28.13,28.06,2.70,2.63,0.15,1.73,0.73,2.71,0.43,3.83,0.66,624.00,1082.00,334.00,705.00,492.00,951.00,1683.00,3151.00,,,,,,,,,,,,0,0,0,,-2884,15988,-408,-417,232,-568
28.234,28.11,2.70,2.01,0.93,0.92,1.45,2.70,0.21,3.79,0.34,605.00,1086.00,326.00,714.00,498.00,957.00,1714.00,3184.00,,,,,,,,,,,,0,0,0,,-2928,16024,-276,-498,245,-510
28.255,28.17,2.70,3.60,-0.62,1.42,0.50,2.75,-0.17,3.28,0.34,639.00,1063.00,340.00,718.00,508.00,965.00,1730.00,3249.00,,,,,,,,,,,,0,0,0,,-2980,16056,-120,-271,63,-510
28.297,28.22,2.66,2.69,-0.48,1.39,0.08,1.95,0.31,2.81,0.35,645.00,1098.00,348.00,727.00,502.00,983.00,1744.00,3309.00,,,,,,,,,,,,0,0,0,,-3192,16148,-12,24,26,-550
28.358,28.28,2.62,1.78,0.29,0.29,0.35,1.72,0.43,2.53,0.37,629.00,1115.00,350.00,754.00,501.00,989.00,1751.00,3344.00,,,,,,,,,,,,0,0,0,,-3304,16096,28,162,172,-657
28.42,28.33,2.67,2.50,-0.33,-0.38,1.32,3.60,-1.66,2.94,-0.29,642.00,1102.00,336.00,754.00,542.00,971.00,1801.00,3349.00,,,,,,,,,,,,0,0,0,,-3300,15964,-300,51,190,-445
28.483,28.39,2.62,3.22,-1.22,2.79,-1.42,1.66,0.45,3.03,0.38,665.00,1097.00,368.00,716.00,501.00,991.00,1734.00,3277.00,,,,,,,,,,,,0,0,0,,-3392,15880,-68,-76,148,-228
28.526,28.44,2.59,1.80,0.43,0.59,1.11,2.14,0.96,3.79,0.53,624.00,1110.00,334.00,730.00,483.00,959.00,1696.00,3167.00,,,,,,,,,,,,0,0,0,,-3448,15928,-36,227,32,-198
28.589,28.50,2.65,2.68,0.43,2.02,1.42,3.82,-0.57,5.04,0.09,614.00,1072.00,320.00,684.00,509.00,935.00,1698.00,3050.00,,,,,,,,,,,,0,0,0,,-3296,15912,-320,357,155,-242
28.652,28.55,2.67,4.16,-0.80,4.76,0.10,2.92,0.36,4.98,0.90,639.00,1045.00,327.00,636.00,492.00,945.00,1627.00,2992.00,,,,,,,,,,,,0,0,0,,-3372,15816,-716,179,188,-340
28.693,28.61,2.66,2.39,1.20,4.14,1.65,2.63,1.11,5.20,0.95,592.00,1062.00,304.00,625.00,475.00,937.00,1616.00,2962.00,,,,,,,,,,,,0,0,0,,-3660,15676,-432,-245,152,-22
28.778,28.66,2.70,2.55,1.15,3.98,2.07,3.30,0.27,5.33,0.78,592.00,1057.00,298.00,622.00,491.00,933.00,1627.00,2960.00,,,,,,,,,,,,0,0,0,,-3764,15732,-248,-378,418,37
28.796,28.72,2.72,4.15,-0.36,6.18,-0.94,3.12,0.14,5.28,0.94,624.00,1033.00,337.00,618.00,496.00,943.00,1615.00,2954.00,,,,,,,,,,,,0,0,0,,-3748,15712,-316,-86,880,253
28.858,28.77,2.71,3.09,0.20,4.77,0.78,2.50,0.43,4.93,0.99,617.00,1061.00,315.00,624.00,494.00,959.00,1621.00,2991.00,,,,,,,,,,,,0,0,0,,-3700,15444,-664,-144,1268,629
28.983,28.83,2.66,2.81,0.27,4.04,1.69,1.87,1.32,5.12,1.11,618.00,1071.00,304.00,627.00,476.00,960.00,1605.00,2959.00,,,,,,,,,,,,0,0,0,,-3476,15548,-880,-625,1003,886
29.003,28.88,2.72,3.01,0.50,4.71,2.65,3.74,-0.62,5.95,0.69,608.00,1056.00,285.00,595.00,511.00,939.00,1617.00,2896.00,,,,,,,,,,,,0,0,0,,-3228,15740,-572,-1201,730,1133
29.024,28.94,2.68,3.33,-0.29,7.31,-0.36,1.96,0.61,5.69,1.32,631.00,1065.00,320.00,582.00,494.00,975.00,1570.00,2877.00,,,,,,,,,,,,0,0,0,,-2944,15888,-664,-1253,136,1509
29.066,28.99,2.66,1.82,0.84,3.52,1.86,2.20,0.87,5.72,1.43,610.00,1097.00,304.00,637.00,485.00,959.00,1560.00,2865.00,,,,,,,,,,,,0,0,0,,-2332,16176,-456,-1070,-601,1483
29.127,29.05,2.68,2.44,0.78,3.56,2.22,3.02,-0.37,5.65,0.73,605.00,1072.00,298.00,630.00,511.00,960.00,1622.00,2927.00,,,,,,,,,,,,0,0,0,,-1888,16364,-164,-1100,-685,910
29.188,29.10,2.63,3.42,-0.35,4.60,0.21,1.69,0.62,4.12,1.08,632.00,1063.00,326.00,638.00,496.00,985.00,1637.00,3081.00,,,,,,,,,,,,0,0,0,,-1736,16512,-124,-1268,-1399,-40
29.251,29.16,2.59,2.44,0.30,2.55,1.36,1.92,0.36,3.56,0.65,621.00,1086.00,318.00,671.00,501.00,983.00,1693.00,3187.00,,,,,,,,,,,,0,0,0,,-1964,15988,484,-1351,-1786,-538
29.333,29.21,2.57,1.66,1.45,2.10,1.80,2.24,-0.11,3.57,0.28,592.00,1086.00,313.00,675.00,511.00,983.00,1726.00,3216.00,,,,,,,,,,,,0,0,0,,-1968,16148,832,-1198,-2016,-417
29.353,29.27,2.56,3.49,0.01,3.64,1.22,2.22,0.22,4.11,0.60,619.00,1050.00,314.00,645.00,502.00,975.00,1680.00,3122.00,,,,,,,,,,,,0,0,0,,-1856,16064,1008,-1093,-2004,-505
29.415,29.32,2.53,3.22,0.16,4.30,0.94,1.99,0.52,3.48,0.72,617.00,1057.00,315.00,633.00,496.00,976.00,1689.00,3191.00,,,,,,,,,,,,0,0,0,,-2108,15848,1500,-1169,-1977,-713
29.476,29.38,2.50,2.55,1.18,2.72,1.95,1.97,0.83,3.40,0.61,591.00,1056.00,307.00,656.00,488.00,969.00,1701.00,3210.00,,,,,,,,,,,,0,0,0,,-2220,15848,2200,-1309,-1368,-254
29.539,29.43,2.55,3.73,0.26,1.69,2.30,3.41,-0.32,4.26,0.22,608.00,1033.00,307.00,677.00,506.00,944.00,1711.00,3136.00,,,,,,,,,,,,0,0,0,,-2172,16168,2560,-955,-405,-116
29.56,29.49,2.54,4.31,-0.59,3.29,-0.08,2.51,-0.20,3.60,0.73,630.00,1033.00,339.00,677.00,511.00,975.00,1684.00,3175.00,,,,,,,,,,,,0,0,0,,-1972,16188,2440,-296,649,334
29.622,29.54,2.52,2.88,0.51,1.03,1.13,2.17,0.84,3.85,0.85,609.00,1061.00,331.00,717.00,486.00,961.00,1666.00,3134.00,,,,,,,,,,,,0,0,0,,-1788,16204,1940,-84,1316,-60
29.704,29.60,2.57,3.35,0.60,1.69,1.53,3.43,-0.90,4.23,0.22,601.00,1039.00,320.00,691.00,522.00,958.00,1712.00,3140.00,,,,,,,,,,,,0,0,0,,-1560,16416,1808,-238,1498,-189
29.746,29.65,2.54,4.73,-0.85,3.14,-0.72,1.93,0.51,3.22,0.76,634.00,1023.00,352.00,693.00,497.00,979.00,1693.00,3220.00,,,,,,,,,,,,0,0,0,,-1596,16328,1884,95,1245,-471
29.807,29.71,2.51,3.23,0.24,1.18,0.80,1.89,0.63,3.15,0.46,614.00,1054.00,336.00,719.00,494.00,977.00,1723.00,3255.00,,,,,,,,,,,,0,0,0,,-1848,16128,1868,325,1454,-642
29.87,29.76,2.51,2.50,1.32,1.38,1.23,2.65,-0.07,2.80,0.33,587.00,1054.00,327.00,705.00,506.00,966.00,1746.00,3312.00,,,,,,,,,,,,0,0,0,,-2328,16180,1868,38,2213,-904
29.912,29.82,2.49,3.76,0.07,1.87,0.57,2.14,-0.04,2.67,0.33,614.00,1037.00,336.00,704.00,510.00,985.00,1750.00,3329.00,,,,,,,,,,,,0,0,0,,-2364,16108,1036,227,2888,-1340
29.972,29.87,2.45,3.00,0.02,2.38,0.45,1.52,0.46,2.57,0.39,624.00,1070.00,335.00,692.00,502.00,996.00,1748.00,3337.00,,,,,,,,,,,,0,0,0,,-2568,15972,716,288,2434,-1492
30.096,29.93,2.38,1.86,1.26,1.54,0.84,1.17,0.80,2.12,0.36,596.00,1083.00,333.00,708.00,496.00,1001.00,1765.00,3400.00,,,,,,,,,,,,1,0,0,,-2844,16064,608,216,1809,-1544
30.117,29.98,2.39,2.82,0.09,1.14,1.43,2.57,-0.83,2.12,-0.06,624.00,1076.00,325.00,708.00,528.00,989.00,1806.00,3438.00,,,,,,,,,,,,1,0,0,,-3380,15724,688,275,1673,-2115
30.138,30.04,2.32,3.29,-1.00,3.09,-0.75,0.94,0.33,1.35,0.19,656.00,1087.00,353.00,695.00,511.00,1023.00,1806.00,3520.00,,,,,,,,,,,,1,0,0,,-3592,15724,436,328,1676,-1867
30.179,30.09,2.25,1.46,0.39,0.91,0.89,1.00,0.78,1.38,0.32,629.00,1126.00,336.00,725.00,498.00,1008.00,1793.00,3504.00,,,,,,,,,,,,1,0,0,,-3844,15348,108,497,1608,-1903
30.241,30.15,2.29,2.18,0.24,1.97,1.61,3.03,-1.05,2.91,-0.18,626.00,1099.00,317.00,682.00,530.00,977.00,1792.00,3344.00,,,,,,,,,,,,1,0,0,,-4132,15636,-184,144,1176,-1817
30.303,30.20,2.26,3.66,-0.95,4.43,-0.29,1.69,0.29,2.30,0.45,650.00,1070.00,336.00,651.00,505.00,994.00,1751.00,3368.00,,,,,,,,,,,,1,0,0,,-4468,15276,-120,-105,606,-1723
30.365,30.26,2.25,2.61,0.19,2.69,1.37,2.06,0.50,2.57,0.43,623.00,1082.00,317.00,667.00,496.00,974.00,1744.00,3333.00,,,,,,,,,,,,1,0,0,,-4856,15048,-92,84,-73,-1442
30.427,30.31,2.27,2.53,1.03,2.56,2.18,2.52,0.09,2.69,0.12,596.00,1061.00,304.00,656.00,503.00,967.00,1770.00,3346.00,,,,,,,,,,,,1,0,0,,-4940,14820,220,-8,-1096,-26
30.447,30.37,2.26,3.79,-0.15,3.24,1.12,2.12,0.37,2.21,0.31,621.00,1042.00,318.00,657.00,499.00,975.00,1767.00,3392.00,,,,,,,,,,,,1,0,0,,-4716,15100,580,181,-2038,953
30.51,30.42,2.23,2.96,0.01,2.52,0.63,1.62,0.50,2.14,0.24,625.00,1072.00,331.00,685.00,500.00,991.00,1776.00,3408.00,,,,,,,,,,,,1,0,0,,-4424,15256,652,544,-2832,1693
30.571,30.48,2.22,2.15,1.06,1.27,1.55,2.06,0.32,1.99,0.27,599.00,1076.00,322.00,702.00,501.00,979.00,1778.00,3426.00,,,,,,,,,,,,1,0,0,,-4128,15516,1028,637,-3388,2249
30.613,30.53,2.25,2.97,0.03,0.87,1.52,2.91,-0.91,1.73,0.03,624.00,1071.00,325.00,714.00,527.00,978.00,1810.00,3483.00,,,,,,,,,,,,1,0,0,,-4024,15776,1564,683,-3101,2120
30.696,30.59,2.21,3.47,-0.75,2.30,-0.75,1.31,-0.19,1.08,0.19,645.00,1072.00,358.00,717.00,522.00,1022.00,1815.00,3558.00,,,,,,,,,,,,1,0,0,,-3700,15700,1676,881,-2395,2187
30.717,30.64,2.15,1.98,0.37,-0.90,0.64,1.10,0.64,1.63,0.26,624.00,1104.00,352.00,784.00,501.00,1008.00,1791.00,3476.00,,,,,,,,,,,,1,0,0,,-3496,16132,768,1335,-2186,2221
30.799,30.70,2.17,2.58,0.20,-1.70,1.07,2.58,-1.55,2.00,-0.37,623.00,1083.00,349.00,800.00,549.00,1008.00,1840.00,3483.00,,,,,,,,,,,,1,0,0,,-3136,15624,352,1559,-2425,2155
30.84,30.75,2.11,3.44,-1.05,0.22,-1.34,0.84,-0.14,1.12,0.35,656.00,1082.00,384.00,791.00,525.00,1040.00,1798.00,3537.00,,,,,,,,,,,,1,0,0,,-2896,15856,320,863,-2501,1982
30.902,30.81,2.04,2.33,-0.16,-1.85,-0.31,0.74,0.03,1.60,0.09,638.00,1104.00,377.00,835.00,521.00,1039.00,1808.00,3495.00,,,,,,,,,,,,1,0,0,,-2300,15776,460,250,-1919,2388
30.943,30.86,2.00,2.00,0.36,-2.24,0.27,1.24,-0.48,1.73,0.03,624.00,1103.00,368.00,835.00,531.00,1033.00,1810.00,3484.00,,,,,,,,,,,,1,0,0,,-1908,16636,440,324,-1365,1596
31.005,30.92,1.95,3.01,-0.65,-1.93,-0.76,0.96,-0.39,0.64,0.41,647.00,1089.00,387.00,848.00,531.00,1042.00,1808.00,3599.00,,,,,,,,,,,,1,0,0,,-1564,16272,716,338,221,1110
31.068,30.97,1.87,2.37,-0.55,-1.90,-1.34,0.49,-0.13,1.53,0.11,651.00,1114.00,399.00,860.00,528.00,1054.00,1809.00,3504.00,,,,,,,,,,,,1,0,0,,-1024,16372,24,31,1545,1270
31.172,31.03,1.83,1.34,0.73,-2.02,-0.64,0.94,0.33,2.97,0.00,619.00,1121.00,385.00,848.00,511.00,1023.00,1772.00,3319.00,,,,,,,,,,,,1,0,0,,-400,16520,24,-374,1623,882
31.194,31.08,1.85,2.44,0.12,-1.71,0.34,2.40,-0.87,3.73,0.42,627.00,1091.00,363.00,816.00,531.00,997.00,1708.00,3184.00,,,,,,,,,,,,1,0,0,,116,16268,-268,-6,1052,800
31.214,31.14,1.83,3.08,-0.61,0.76,-1.38,1.34,-0.27,3.77,0.68,645.00,1085.00,381.00,775.00,524.00,1023.00,1683.00,3157.00,,,,,,,,,,,,1,0,0,,364,16180,-572,-61,411,630
31.277,31.19,1.80,2.03,0.35,-0.62,0.18,1.30,0.68,4.19,0.69,624.00,1102.00,359.00,785.00,498.00,999.00,1670.00,3105.00,,,,,,,,,,,,1,0,0,,408,16400,-16,-901,-71,143
31.337,31.25,1.85,2.98,0.12,-0.38,0.84,2.69,-1.08,4.38,0.17,621.00,1068.00,345.00,764.00,534.00,991.00,1711.00,3124.00,,,,,,,,,,,,1,0,0,,360,16504,384,-1488,-551,-513
31.398,31.30,1.80,4.06,-1.23,0.51,-1.54,0.94,0.33,3.35,0.67,655.00,1061.00,386.00,786.00,511.00,1023.00,1697.00,3211.00,,,,,,,,,,,,1,0,0,,172,16872,1104,-1303,-567,-933
31.46,31.36,1.78,2.45,0.21,-1.43,-0.20,1.29,0.35,3.62,0.59,624.00,1088.00,372.00,819.00,507.00,1008.00,1696.00,3184.00,,,,,,,,,,,,1,0,0,,-228,17064,1256,-765,-400,-1714
31.543,31.41,1.78,2.51,0.58,-1.29,-0.05,1.83,-0.44,3.33,0.31,611.00,1075.00,368.00,811.00,524.00,1008.00,1731.00,3245.00,,,,,,,,,,,,1,0,0,,-800,16848,1572,-685,-126,-2523
31.564,31.47,1.76,3.65,-0.52,-1.22,-0.52,1.47,-0.42,2.54,0.39,635.00,1058.00,377.00,819.00,527.00,1022.00,1749.00,3341.00,,,,,,,,,,,,1,0,0,,-1460,16216,1260,-541,398,-3297
31.624,31.52,1.73,2.58,-0.21,-1.34,-0.48,1.05,-0.28,2.17,0.33,637.00,1095.00,377.00,822.00,527.00,1035.00,1766.00,3395.00,,,,,,,,,,,,1,0,0,,-2192,15560,744,-386,264,-3191
31.666,31.58,1.70,1.73,0.93,-2.04,0.10,1.21,-0.44,1.62,0.24,608.00,1098.00,370.00,832.00,530.00,1033.00,1793.00,3479.00,,,,,,,,,,,,1,0,0,,-3036,15404,1280,-457,398,-2373
31.727,31.63,1.71,2.99,-0.41,-2.16,0.24,1.80,-0.95,1.48,-0.06,639.00,1083.00,368.00,833.00,539.00,1023.00,1827.00,3527.00,,,,,,,,,,,,1,0,0,,-3204,15520,1304,-600,1495,-1485
31.789,31.69,1.63,2.79,-0.63,-0.85,-1.64,0.12,-0.14,0.80,0.17,649.00,1098.00,398.00,832.00,532.00,1070.00,1827.00,3601.00,,,,,,,,,,,,1,0,0,,-3272,15980,884,-754,2071,-1301
31.83,31.74,1.56,1.42,0.11,-3.25,-0.42,0.18,0.01,0.55,0.25,639.00,1136.00,389.00,885.00,527.00,1063.00,1827.00,3628.00,,,,,,,,,,,,1,0,0,,-3544,15844,852,-445,1901,-1478
31.913,31.80,1.55,2.31,-0.30,-3.64,-0.04,1.44,-1.53,0.72,-0.39,643.00,1109.00,384.00,890.00,560.00,1054.00,1886.00,3666.00,,,,,,,,,,,,1,0,0,,-3852,15512,1076,-342,1910,-1214
31.934,31.85,1.48,3.17,-1.43,-0.99,-2.19,0.21,-0.07,0.90,0.21,673.00,1105.00,411.00,849.00,529.00,1064.00,1820.00,3583.00,,,,,,,,,,,,1,0,0,,-4180,15388,956,-500,1699,-740
31.995,31.91,1.43,0.83,0.64,-2.57,-0.26,0.43,0.50,0.41,0.55,628.00,1147.00,381.00,858.00,511.00,1039.00,1802.00,3619.00,,,,,,,,,,,,1,0,0,,-4188,15020,972,-302,1595,209
32.036,31.96,1.45,2.32,0.40,-1.99,0.04,1.78,-0.77,1.91,-0.01,619.00,1088.00,371.00,832.00,534.00,1019.00,1808.00,3462.00,,,,,,,,,,,,1,0,0,,-4028,15556,840,-189,1182,914
32.098,32.02,1.45,3.56,-0.31,-1.01,-0.74,1.41,-0.29,2.06,0.29,629.00,1056.00,380.00,817.00,524.00,1021.00,1774.00,3414.00,,,,,,,,,,,,1,0,0,,-3580,15588,588,-150,488,1133
32.161,32.07,1.43,2.07,0.85,-1.10,-0.56,1.06,0.28,2.23,0.21,607.00,1086.00,377.00,816.00,511.00,1019.00,1776.00,3399.00,,,,,,,,,,,,1,0,0,,-3428,15736,496,10,-241,1111
32.265,32.13,1.41,1.70,1.25,-1.81,0.18,1.19,0.24,2.24,0.27,598.00,1090.00,367.00,823.00,511.00,1015.00,1770.00,3392.00,,,,,,,,,,,,1,0,0,,-3220,15496,384,52,-613,802
32.285,32.18,1.44,3.14,-0.08,-1.07,0.23,1.95,-0.72,2.65,0.13,626.00,1067.00,361.00,798.00,531.00,1011.00,1770.00,3350.00,,,,,,,,,,,,1,0,0,,-2888,16236,732,-805,-1020,821
32.327,32.24,1.40,2.71,-0.17,-0.84,-0.20,0.71,-0.23,1.82,0.28,634.00,1088.00,368.00,800.00,529.00,1048.00,1782.00,3447.00,,,,,,,,,,,,1,0,0,,-2684,16036,1708,-911,-886,330
32.388,32.29,1.37,1.49,0.71,-2.90,0.49,0.62,0.43,1.86,0.34,618.00,1115.00,368.00,852.00,511.00,1033.00,1775.00,3436.00,,,,,,,,,,,,1,0,0,,-2624,15976,1092,-87,-922,472
32.43,32.35,1.41,2.28,0.32,-2.79,1.17,2.28,-1.65,2.08,-0.26,622.00,1092.00,354.00,833.00,555.00,1023.00,1827.00,3462.00,,,,,,,,,,,,1,0,0,,-2696,15348,1296,40,-1278,805
32.494,32.40,1.34,3.09,-1.07,-2.77,1.01,0.09,0.01,1.11,0.40,661.00,1098.00,357.00,836.00,528.00,1067.00,1794.00,3535.00,,,,,,,,,,,,1,0,0,,-2148,15456,1032,60,-1980,2031
32.555,32.46,1.31,0.86,0.95,-3.31,-0.11,0.59,0.02,1.68,0.21,617.00,1136.00,383.00,880.00,523.00,1046.00,1794.00,3474.00,,,,,,,,,,,,1,0,0,,-1300,15696,1548,168,-2909,3271
32.659,32.51,1.30,2.10,0.18,-3.29,-0.02,1.26,-0.87,1.93,0.01,629.00,1104.00,381.00,877.00,542.00,1043.00,1805.00,3458.00,,,,,,,,,,,,1,0,0,,-444,16616,2044,741,-2505,3274
32.679,32.57,1.26,2.86,-0.40,-2.29,-1.02,0.37,-0.08,1.57,0.27,640.00,1088.00,395.00,866.00,528.00,1058.00,1791.00,3482.00,,,,,,,,,,,,1,0,0,,-100,17092,2408,541,-822,1796
32.7,32.62,1.22,2.21,-0.18,-2.88,-0.44,0.49,-0.09,2.07,0.12,640.00,1110.00,387.00,873.00,527.00,1053.00,1790.00,3429.00,,,,,,,,,,,,1,0,0,,64,17216,1592,-105,1266,-607
32.762,32.68,1.20,1.57,0.80,-1.73,-0.40,0.94,0.33,3.12,0.22,614.00,1109.00,378.00,833.00,511.00,1023.00,1747.00,3281.00,,,,,,,,,,,,1,0,0,,-380,16644,1132,-648,1655,-1512
32.846,32.73,1.24,2.99,-0.00,-1.61,0.06,1.91,-0.81,3.12,0.20,625.00,1071.00,368.00,819.00,534.00,1015.00,1748.00,3282.00,,,,,,,,,,,,1,0,0,,-696,16060,1172,-758,1308,-1808
32.866,32.79,1.23,3.01,-0.45,-0.79,-1.10,1.05,-0.28,2.98,0.37,640.00,1083.00,386.00,818.00,527.00,1035.00,1737.00,3285.00,,,,,,,,,,,,1,0,0,,-1024,16152,1244,-380,889,-1443
32.929,32.84,1.22,1.98,0.64,-1.91,-0.09,1.07,0.72,3.12,0.59,615.00,1096.00,373.00,832.00,499.00,1007.00,1712.00,3248.00,,,,,,,,,,,,1,0,0,,-1212,16328,1236,-310,664,-1353
32.992,32.90,1.29,2.81,0.27,-2.16,0.96,2.65,-1.17,3.37,0.00,618.00,1071.00,354.00,817.00,537.00,995.00,1759.00,3267.00,,,,,,,,,,,,1,0,0,,-1320,16068,1044,-200,462,-1520
33.033,32.95,1.28,3.96,-1.11,-0.10,-1.76,0.94,0.33,2.48,0.41,652.00,1062.00,395.00,810.00,511.00,1023.00,1749.00,3347.00,,,,,,,,,,,,1,0,0,,-1648,15916,1216,-453,140,-1547
33.095,33.01,1.27,1.98,0.37,-2.04,-0.29,1.10,0.71,2.46,0.40,624.00,1104.00,378.00,841.00,499.00,1006.00,1750.00,3350.00,,,,,,,,,,,,1,0,0,,-2032,15832,1344,-280,191,-1796
33.136,33.06,1.31,2.50,0.52,-2.26,0.48,2.15,-0.65,2.37,0.09,613.00,1077.00,364.00,831.00,527.00,1001.00,1783.00,3391.00,,,,,,,,,,,,1,0,0,,-2300,15912,1432,-275,131,-1496
33.198,33.12,1.33,3.22,-0.23,-0.89,-1.82,1.63,-0.37,1.82,0.36,630.00,1068.00,402.00,837.00,524.00,1014.00,1775.00,3440.00,,,,,,,,,,,,1,0,0,,-2596,15936,1348,-219,105,-1477
33.26,33.17,1.32,2.56,0.05,-2.33,-0.44,1.10,0.27,1.58,0.29,628.00,1088.00,383.00,854.00,511.00,1018.00,1789.00,3479.00,,,,,,,,,,,,1,0,0,,-2628,15860,1756,-234,-3,-1355
33.321,33.23,1.32,1.21,1.60,-2.96,0.02,1.44,-0.31,1.24,0.19,592.00,1101.00,378.00,865.00,524.00,1020.00,1810.00,3536.00,,,,,,,,,,,,1,0,0,,-2972,15636,1696,-202,46,-1142
33.383,33.28,1.35,2.94,0.04,-2.59,0.34,1.82,-0.57,1.30,-0.00,624.00,1072.00,369.00,845.00,528.00,1012.00,1827.00,3546.00,,,,,,,,,,,,1,0,0,,-3000,15704,1644,-439,4,-968
33.466,33.34,1.32,2.93,-0.56,-0.59,-1.41,0.77,-0.05,0.83,0.03,645.00,1090.00,391.00,818.00,523.00,1040.00,1840.00,3610.00,,,,,,,,,,,,1,0,0,,-2996,15868,1528,-307,-260,-820
33.487,33.39,1.27,1.46,0.39,-2.12,-1.40,0.27,0.73,0.54,0.17,629.00,1126.00,402.00,869.00,506.00,1039.00,1835.00,3637.00,,,,,,,,,,,,1,0,0,,-3148,15628,1884,60,-429,-881
33.528,33.45,1.32,2.21,0.03,-3.73,0.72,2.27,-1.31,1.33,-0.43,633.00,1104.00,369.00,875.00,545.00,1014.00,1869.00,3583.00,,,,,,,,,,,,1,0,0,,-3516,15568,1792,12,-344,-1006
33.591,33.50,1.27,3.26,-1.01,-0.92,-1.85,0.49,0.48,1.07,0.28,657.00,1089.00,403.00,839.00,511.00,1037.00,1807.00,3551.00,,,,,,,,,,,,1,0,0,,-3604,15600,1980,-136,-168,-836
33.633,33.56,1.26,1.98,0.37,-3.41,0.17,0.94,0.99,1.69,0.20,624.00,1104.00,378.00,877.00,493.00,1005.00,1794.00,3472.00,,,,,,,,,,,,1,0,0,,-3464,15592,2012,76,17,-441
33.735,33.61,1.31,2.57,0.59,-3.08,0.45,2.24,-0.11,2.08,-0.07,610.00,1072.00,370.00,859.00,511.00,983.00,1808.00,3445.00,,,,,,,,,,,,1,0,0,,-3612,15532,1848,192,213,-352
33.756,33.67,1.35,3.93,-0.29,-1.86,-0.74,2.08,-0.02,1.77,0.31,624.00,1040.00,386.00,845.00,510.00,987.00,1781.00,3451.00,,,,,,,,,,,,1,0,0,,-3812,15456,1856,71,469,-241
33.798,33.72,1.36,3.28,-0.07,-2.39,-0.66,1.69,0.44,1.90,0.18,624.00,1061.00,388.00,861.00,501.00,990.00,1789.00,3445.00,,,,,,,,,,,,1,0,0,,-3828,15380,1608,-128,792,-70
33.861,33.78,1.40,2.43,0.97,-3.31,0.18,2.02,0.25,2.23,0.03,599.00,1067.00,377.00,873.00,503.00,982.00,1793.00,3415.00,,,,,,,,,,,,1,0,0,,-3788,15364,1492,-272,783,358
33.924,33.83,1.45,3.98,-0.37,-2.83,-0.22,2.44,-0.18,2.21,0.06,626.00,1040.00,382.00,866.00,511.00,977.00,1791.00,3415.00,,,,,,,,,,,,1,0,0,,-3324,15632,1664,-111,407,701
33.966,33.89,1.44,3.42,-0.20,-2.08,-1.32,1.36,0.19,1.81,0.04,627.00,1059.00,400.00,866.00,511.00,1010.00,1806.00,3471.00,,,,,,,,,,,,1,0,0,,-3312,15612,1744,-13,567,577
34.029,33.94,1.44,2.65,0.23,-3.27,-0.92,1.33,0.67,1.53,0.28,621.00,1079.00,400.00,898.00,498.00,998.00,1792.00,3488.00,,,,,,,,,,,,1,0,0,,-3276,15844,1648,-307,743,819
34.092,34.00,1.53,3.03,0.04,-3.69,-0.22,3.20,-1.49,1.69,-0.29,623.00,1068.00,388.00,896.00,541.00,982.00,1843.00,3519.00,,,,,,,,,,,,1,0,1,,-3036,15804,1652,-304,942,874
34.155,34.05,1.52,4.00,-1.21,-2.08,-2.05,1.41,-0.36,0.28,0.25,655.00,1063.00,416.00,883.00,526.00,1023.00,1836.00,3667.00,,,,,,,,,,,,1,0,1,,-2980,15712,1884,-111,1338,442
34.218,34.11,1.52,2.02,0.26,-4.10,-0.96,1.46,0.59,0.94,0.14,627.00,1105.00,407.00,929.00,499.00,995.00,1825.00,3583.00,,,,,,,,,,,,1,0,1,,-2772,15800,1344,-90,1047,853
34.26,34.16,1.56,2.75,0.26,-3.95,-0.41,2.44,-0.85,1.26,-0.24,619.00,1074.00,394.00,910.00,530.00,995.00,1852.00,3574.00,,,,,,,,,,,,1,0,1,,-2384,15956,1412,-229,797,936
34.3,34.22,1.57,3.28,-0.39,-3.67,-1.20,1.63,-0.41,0.77,0.25,635.00,1070.00,409.00,919.00,525.00,1015.00,1820.00,3597.00,,,,,,,,,,,,1,0,1,,-2260,15972,1660,43,844,700
34.342,34.27,1.57,2.65,-0.18,-4.29,-1.48,1.57,-0.42,1.53,-0.06,635.00,1091.00,420.00,949.00,526.00,1018.00,1825.00,3519.00,,,,,,,,,,,,1,0,1,,-2228,16124,1320,-26,817,457
34.403,34.33,1.60,2.38,0.62,-3.60,-0.81,2.14,-0.04,2.57,0.06,611.00,1079.00,400.00,907.00,510.00,985.00,1779.00,3366.00,,,,,,,,,,,,1,0,1,,-2160,16080,1444,-243,593,449
34.464,34.38,1.68,4.17,-0.46,-3.33,-0.67,3.20,-0.79,3.09,0.18,627.00,1035.00,395.00,894.00,521.00,964.00,1751.00,3287.00,,,,,,,,,,,,1,0,1,,-1928,15948,1536,-103,671,477
34.547,34.44,1.74,3.82,-0.34,-2.00,-1.39,2.95,-0.28,3.45,0.31,627.00,1046.00,401.00,865.00,509.00,960.00,1727.00,3229.00,,,,,,,,,,,,1,0,1,,-1848,16172,1524,-94,488,382
34.589,34.49,1.77,3.13,0.25,-3.32,-0.72,2.34,0.67,3.60,0.64,615.00,1058.00,396.00,895.00,489.00,959.00,1692.00,3182.00,,,,,,,,,,,,1,0,1,,-1732,16316,1580,-34,539,236
34.651,34.55,1.88,3.86,0.03,-3.61,-0.29,4.03,-1.32,4.01,-0.00,614.00,1034.00,389.00,895.00,528.00,946.00,1739.00,3185.00,,,,,,,,,,,,1,0,1,,-1480,15844,1264,-119,343,123
34.692,34.60,1.88,4.88,-1.08,-2.13,-2.73,1.79,0.41,3.19,0.49,640.00,1023.00,432.00,901.00,501.00,987.00,1719.00,3247.00,,,,,,,,,,,,1,0,1,,-1632,16160,1380,-88,-72,-35
34.775,34.66,1.91,3.22,0.01,-4.82,-0.54,2.47,0.51,3.39,0.50,622.00,1061.00,403.00,945.00,492.00,958.00,1712.00,3221.00,,,,,,,,,,,,1,0,1,,-1636,16120,1576,-26,-426,-58
34.815,34.71,2.00,3.47,0.53,-4.56,-0.44,3.86,-1.26,3.39,-0.00,602.00,1036.00,399.00,933.00,528.00,951.00,1759.00,3265.00,,,,,,,,,,,,1,0,1,,-1796,16264,1656,112,-377,-436
34.857,34.77,2.03,5.02,-0.66,-3.66,-1.65,2.58,-0.22,1.83,0.68,624.00,1006.00,419.00,930.00,511.00,973.00,1744.00,3410.00,,,,,,,,,,,,1,0,1,,-1784,16300,1620,293,-218,-558
34.897,34.82,2.03,3.59,-0.17,-4.03,-0.99,2.02,0.40,2.76,0.24,624.00,1051.00,407.00,927.00,499.00,978.00,1756.00,3325.00,,,,,,,,,,,,1,0,1,,-1828,15844,1492,32,-142,-527
34.958,34.88,2.05,2.80,0.85,-3.91,-0.80,2.35,-0.00,2.75,0.03,599.00,1055.00,402.00,918.00,507.00,976.00,1776.00,3345.00,,,,,,,,,,,,1,0,1,,-1868,16092,1332,-134,-40,-681
35.02,34.93,2.10,4.65,-0.59,-3.50,-1.17,3.08,-0.89,2.36,0.14,626.00,1019.00,407.00,912.00,525.00,971.00,1778.00,3387.00,,,,,,,,,,,,1,0,1,,-1960,16036,1392,-282,-270,-896
35.061,34.99,2.08,3.57,-0.43,-3.68,-1.46,1.78,0.04,1.94,0.15,633.00,1059.00,415.00,926.00,511.00,997.00,1791.00,3443.00,,,,,,,,,,,,1,0,2,,-2084,16268,1616,-151,-392,-1083
35.123,35.04,2.05,2.60,0.16,-4.69,-1.43,1.36,0.51,1.52,0.14,624.00,1083.00,422.00,963.00,502.00,1001.00,1806.00,3502.00,,,,,,,,,,,,1,0,2,,-2312,16224,1444,146,-594,-1481
35.226,35.10,2.11,3.16,-0.18,-5.32,-0.51,3.32,-1.66,1.60,-0.44,629.00,1069.00,406.00,963.00,545.00,982.00,1861.00,3546.00,,,,,,,,,,,,1,0,2,,-2524,15756,1512,127,-741,-1274
35.247,35.15,2.09,3.80,-1.22,-3.02,-2.60,1.75,0.06,1.56,0.10,658.00,1072.00,436.00,930.00,511.00,998.00,1809.00,3501.00,,,,,,,,,,,,1,0,2,,-2724,15876,1520,-23,-609,-1216
35.289,35.21,2.11,2.63,0.12,-4.12,-0.45,2.40,0.42,1.98,0.30,625.00,1083.00,396.00,917.00,495.00,963.00,1775.00,3424.00,,,,,,,,,,,,1,0,2,,-2968,15664,1952,-466,-350,-1283
35.351,35.26,2.19,3.54,0.29,-3.51,-0.28,3.67,-0.59,2.64,-0.31,609.00,1040.00,388.00,891.00,511.00,941.00,1813.00,3391.00,,,,,,,,,,,,1,0,2,,-2976,15900,1788,-32,62,-878
35.392,35.32,2.23,4.73,-0.56,-2.65,-1.09,3.12,0.11,2.57,0.13,624.00,1015.00,399.00,880.00,497.00,944.00,1773.00,3361.00,,,,,,,,,,,,1,0,2,,-3152,15684,1824,-166,165,-1019
35.454,35.37,2.28,4.29,-0.20,-3.17,-0.44,3.16,0.24,2.99,0.03,617.00,1023.00,389.00,883.00,493.00,939.00,1769.00,3314.00,,,,,,,,,,,,1,0,2,,-3440,15448,1680,-420,264,-981
35.516,35.43,2.35,3.59,0.83,-4.15,-0.21,3.78,-0.63,2.85,0.05,591.00,1023.00,391.00,912.00,511.00,938.00,1771.00,3330.00,,,,,,,,,,,,1,0,2,,-3356,15852,1464,-110,101,-479
35.578,35.48,2.35,5.22,-0.69,-4.48,-0.00,2.35,-0.00,2.56,0.54,623.00,999.00,389.00,919.00,507.00,976.00,1734.00,3325.00,,,,,,,,,,,,1,0,2,,-3248,15780,1600,29,-121,-371
35.62,35.54,2.36,4.12,-0.53,-4.25,-1.93,2.41,-0.17,3.12,0.17,630.00,1039.00,430.00,959.00,511.00,978.00,1751.00,3284.00,,,,,,,,,,,,1,0,2,,-3296,15888,1712,68,-27,-457
35.681,35.59,2.35,3.59,-0.17,-5.25,-1.68,2.22,0.26,3.03,0.28,624.00,1051.00,432.00,991.00,501.00,974.00,1744.00,3287.00,,,,,,,,,,,,1,0,2,,-3372,15684,1644,175,94,-731
35.742,35.65,2.43,4.01,-0.40,-5.38,-0.53,3.92,-1.63,3.37,-0.25,627.00,1040.00,407.00,966.00,538.00,958.00,1783.00,3289.00,,,,,,,,,,,,1,0,2,,-3464,15788,1704,48,259,-746
35.824,35.70,2.41,4.57,-1.48,-2.97,-2.99,2.14,-0.08,2.63,0.31,658.00,1047.00,445.00,938.00,511.00,986.00,1754.00,3337.00,,,,,,,,,,,,1,0,2,,-3460,15832,1664,-298,666,-987
35.845,35.76,2.41,2.86,-0.02,-5.00,-0.98,2.32,0.19,2.92,0.25,627.00,1077.00,414.00,963.00,502.00,972.00,1750.00,3303.00,,,,,,,,,,,,1,0,2,,-3884,15616,1364,-183,815,-1360
35.948,35.81,2.46,3.35,-0.03,-4.59,-0.48,3.47,-1.23,3.07,-0.26,622.00,1057.00,400.00,935.00,531.00,965.00,1794.00,3329.00,,,,,,,,,,,,1,0,3,,-3800,15084,1096,-5,0,-212
35.968,35.87,2.46,3.82,-0.66,-4.27,-1.26,2.44,-0.18,2.32,0.18,638.00,1055.00,415.00,943.00,511.00,977.00,1776.00,3389.00,,,,,,,,,,,,1,0,3,,-3864,15584,1656,211,-695,532
36.009,35.92,2.44,4.09,-1.66,-4.80,-1.04,2.08,-0.06,2.34,0.06,670.00,1072.00,414.00,957.00,511.00,988.00,1787.00,3398.00,,,,,,,,,,,,1,0,3,,-3796,15424,1692,197,-558,802
36.072,35.98,2.45,2.39,0.41,-5.26,-0.71,2.58,-0.76,2.29,-0.12,618.00,1085.00,410.00,966.00,526.00,987.00,1806.00,3421.00,,,,,,,,,,,,1,0,3,,-3428,15420,1588,371,-525,927
36.134,36.03,2.48,3.74,-0.72,-4.40,-1.36,3.07,-1.06,3.18,-0.13,641.00,1060.00,418.00,950.00,530.00,976.00,1778.00,3303.00,,,,,,,,,,,,1,0,3,,-3408,15728,1344,544,-474,1006
36.177,36.09,2.48,3.56,-0.63,-2.28,-1.66,2.48,-0.08,3.78,0.20,640.00,1065.00,409.00,881.00,508.00,973.00,1727.00,3197.00,,,,,,,,,,,,1,0,3,,-3196,15272,1124,652,-1067,1753
36.239,36.14,2.50,3.28,-0.07,-2.89,-0.72,2.88,0.22,3.99,0.45,624.00,1061.00,393.00,880.00,496.00,950.00,1698.00,3150.00,,,,,,,,,,,,1,0,3,,-2968,15352,1112,1000,-1656,2679
36.321,36.20,2.62,4.39,-0.36,-2.67,0.42,4.82,-1.41,4.95,-0.03,621.00,1023.00,368.00,846.00,523.00,919.00,1712.00,3071.00,,,,,,,,,,,,1,0,3,,-2348,15736,1392,992,-1892,3511
36.342,36.25,2.65,5.44,-1.61,-0.14,-1.93,3.26,0.17,4.43,0.53,652.00,1015.00,399.00,815.00,494.00,937.00,1677.00,3089.00,,,,,,,,,,,,1,0,3,,-1872,16564,1880,452,-928,2852
36.384,36.31,2.69,3.34,-0.06,-2.04,-0.34,3.57,0.52,4.73,0.51,623.00,1058.00,379.00,842.00,482.00,917.00,1669.00,3053.00,,,,,,,,,,,,1,0,3,,-1384,16856,1640,-116,482,1312
36.466,36.36,2.79,4.02,0.19,-1.99,0.44,4.53,-0.74,5.13,0.08,607.00,1023.00,363.00,823.00,507.00,913.00,1696.00,3040.00,,,,,,,,,,,,1,0,3,,-1432,16528,1568,-209,1495,33
36.508,36.42,2.82,4.92,-0.77,-0.84,-0.94,3.47,0.03,4.53,0.60,629.00,1013.00,383.00,816.00,496.00,933.00,1667.00,3070.00,,,,,,,,,,,,1,0,3,,-1528,16140,996,-81,1520,6
36.569,36.47,2.85,3.91,-0.20,-1.91,-0.09,3.41,0.27,4.46,0.52,621.00,1038.00,373.00,832.00,490.00,929.00,1677.00,3086.00,,,,,,,,,,,,1,0,3,,-1664,15832,900,18,850,493
36.631,36.53,2.89,3.26,0.63,-2.34,0.16,3.64,-0.14,4.34,0.27,601.00,1042.00,371.00,841.00,499.00,931.00,1703.00,3121.00,,,,,,,,,,,,1,0,3,,-1504,16068,976,95,530,882
36.673,36.58,2.93,4.75,-0.60,-1.64,-0.57,3.63,-0.29,4.43,-0.06,625.00,1015.00,381.00,834.00,503.00,935.00,1731.00,3138.00,,,,,,,,,,,,1,0,3,,-1404,16224,1436,-35,926,828
36.735,36.64,2.93,3.72,-0.48,-1.18,-1.11,2.94,0.13,4.06,0.31,633.00,1054.00,389.00,831.00,498.00,950.00,1708.00,3152.00,,,,,,,,,,,,1,0,3,,-1040,16240,1528,-330,1663,429
36.775,36.69,2.92,3.09,-0.01,-2.18,-0.49,2.85,0.31,4.12,0.46,624.00,1067.00,383.00,850.00,494.00,949.00,1693.00,3133.00,,,,,,,,,,,,1,0,3,,-580,16420,708,-455,1382,-86
36.837,36.75,2.99,3.44,-0.24,-2.17,0.30,4.19,-1.44,4.36,-0.00,628.00,1059.00,367.00,832.00,530.00,943.00,1728.00,3142.00,,,,,,,,,,,,1,0,3,,-612,15968,924,-218,316,-26
36.878,36.80,2.96,4.02,-1.24,-0.18,-1.82,2.51,-0.20,3.61,0.40,656.00,1063.00,397.00,814.00,511.00,975.00,1714.00,3201.00,,,,,,,,,,,,1,0,3,,-640,16204,1008,95,-409,-52
36.94,36.86,2.95,2.34,0.07,-2.39,-0.17,2.64,0.31,3.67,0.34,630.00,1097.00,378.00,850.00,496.00,957.00,1718.00,3199.00,,,,,,,,,,,,1,0,3,,-780,15860,1304,267,-755,68
37.044,36.91,3.01,2.62,0.30,-1.65,0.07,4.27,-1.40,4.56,-0.24,619.00,1078.00,368.00,820.00,528.00,939.00,1744.00,3137.00,,,,,,,,,,,,1,0,3,,-908,16200,1072,169,-836,-159
37.065,36.97,3.03,4.23,-0.92,0.54,-0.77,3.29,0.08,4.72,0.56,642.00,1045.00,370.00,769.00,496.00,938.00,1665.00,3051.00,,,,,,,,,,,,1,0,3,,-916,16176,1388,23,-652,-185
37.147,37.02,3.07,3.41,-0.03,0.09,-0.01,3.85,0.31,5.66,0.41,621.00,1054.00,358.00,767.00,485.00,912.00,1650.00,2951.00,,,,,,,,,,,,1,0,3,,-936,16296,1484,-17,52,-373
37.168,37.08,3.12,3.13,0.86,-0.14,0.97,4.13,0.14,5.51,0.52,595.00,1041.00,341.00,754.00,487.00,906.00,1645.00,2960.00,,,,,,,,,,,,1,0,3,,-820,16168,1056,-82,358,-599
37.21,37.13,3.19,5.02,-0.66,0.71,0.47,4.47,-0.31,5.51,0.63,624.00,1006.00,345.00,739.00,496.00,905.00,1635.00,2951.00,,,,,,,,,,,,1,0,3,,-776,16272,1008,-204,301,-683
37.272,37.19,3.22,4.14,-0.42,1.22,-0.23,3.73,0.16,5.24,0.68,626.00,1035.00,355.00,738.00,490.00,920.00,1639.00,2979.00,,,,,,,,,,,,1,0,3,,-948,16524,1092,-164,109,-1167
37.313,37.24,3.24,3.41,0.15,0.20,0.27,3.64,0.46,5.21,0.60,615.00,1049.00,352.00,758.00,483.00,916.00,1647.00,2989.00,,,,,,,,,,,,1,0,3,,-1120,16180,1204,-270,94,-1246
37.418,37.30,3.33,3.98,-0.19,-0.51,1.37,5.13,-1.08,5.53,0.10,620.00,1035.00,336.00,757.00,511.00,900.00,1682.00,2991.00,,,,,,,,,,,,1,0,3,,-1296,16164,1196,-286,103,-1604
37.439,37.35,3.32,4.59,-1.15,1.49,-1.18,3.12,0.22,4.53,0.59,646.00,1037.00,372.00,749.00,494.00,941.00,1668.00,3071.00,,,,,,,,,,,,1,0,3,,-1584,16072,1288,-364,110,-1861
37.481,37.41,3.31,2.96,0.01,-0.72,0.37,3.18,0.61,4.53,0.47,625.00,1072.00,356.00,784.00,483.00,929.00,1679.00,3081.00,,,,,,,,,,,,1,0,3,,-1836,16176,1376,-358,184,-2031
37.544,37.46,3.37,3.37,0.11,-0.84,0.88,4.41,-0.81,4.55,-0.03,617.00,1052.00,347.00,777.00,510.00,919.00,1725.00,3121.00,,,,,,,,,,,,1,0,3,,-2124,16036,1432,-290,336,-2330
37.604,37.52,3.37,4.44,-1.04,-0.18,-0.42,3.43,0.00,3.81,0.43,644.00,1040.00,368.00,784.00,497.00,935.00,1705.00,3174.00,,,,,,,,,,,,1,0,3,,-2472,15788,1172,-270,166,-2143
37.665,37.57,3.36,3.26,-0.15,-0.68,-0.15,3.05,0.20,3.86,0.24,627.00,1064.00,366.00,794.00,495.00,944.00,1721.00,3184.00,,,,,,,,,,,,1,0,3,,-2776,15748,1196,-109,-111,-1728
37.788,37.63,3.35,2.60,0.58,-1.10,0.14,3.25,-0.01,3.72,0.11,610.00,1071.00,363.00,801.00,499.00,942.00,1738.00,3213.00,,,,,,,,,,,,1,0,3,,-2740,15840,1120,36,-494,-1318
37.807,37.68,3.35,4.17,-0.90,-0.95,-0.31,3.26,-0.45,3.38,0.05,642.00,1047.00,371.00,806.00,511.00,953.00,1754.00,3261.00,,,,,,,,,,,,1,0,3,,-2868,15964,1352,333,-612,-1049
37.828,37.74,3.31,3.29,-0.54,-0.77,-0.77,2.65,-0.10,3.10,0.18,640.00,1074.00,379.00,810.00,507.00,967.00,1751.00,3286.00,,,,,,,,,,,,1,0,3,,-2976,16140,1316,327,-608,-1333
37.869,37.79,3.30,3.77,-0.26,-0.58,-0.54,3.02,0.25,4.00,0.29,625.00,1046.00,373.00,799.00,494.00,944.00,1712.00,3162.00,,,,,,,,,,,,1,0,3,,-3132,16172,1492,228,-423,-1882
37.931,37.85,3.35,3.58,-0.23,-1.35,1.54,4.30,-0.81,4.86,-0.10,626.00,1053.00,338.00,779.00,511.00,923.00,1722.00,3089.00,,,,,,,,,,,,1,0,3,,-3584,15524,1260,131,-35,-2481
37.994,37.90,3.35,4.55,-1.28,1.32,-1.08,3.33,0.07,4.05,0.45,651.00,1042.00,371.00,752.00,496.00,937.00,1696.00,3142.00,,,,,,,,,,,,1,0,3,,-4020,14952,1116,-70,148,-1601
38.057,37.96,3.36,2.95,0.13,-0.56,0.42,3.65,0.57,4.64,0.44,621.00,1069.00,354.00,778.00,480.00,913.00,1679.00,3071.00,,,,,,,,,,,,1,0,3,,-4216,15092,1064,-132,-3,-594
38.159,38.01,3.50,3.72,0.23,-0.39,1.44,6.04,-1.21,4.80,0.01,609.00,1034.00,334.00,752.00,506.00,871.00,1713.00,3086.00,,,,,,,,,,,,1,0,3,,-4092,15556,1384,-137,-85,208
38.18,38.07,3.52,4.62,-0.70,0.96,-0.24,4.08,-0.07,4.24,0.48,630.00,1023.00,357.00,746.00,493.00,913.00,1687.00,3116.00,,,,,,,,,,,,1,0,3,,-4092,15704,1532,-162,352,-79
38.223,38.12,3.53,3.93,-0.29,0.11,0.41,3.65,0.61,4.43,0.49,624.00,1040.00,350.00,758.00,479.00,912.00,1680.00,3091.00,,,,,,,,,,,,1,0,3,,-3960,15532,1316,-103,479,52
38.265,38.18,3.56,3.43,0.45,-0.20,0.61,4.12,-0.08,4.48,0.30,605.00,1040.00,348.00,763.00,493.00,912.00,1696.00,3101.00,,,,,,,,,,,,1,0,3,,-3924,15624,1192,30,503,248
38.327,38.23,3.60,4.68,-0.63,0.12,0.24,4.31,-0.37,4.36,0.19,627.00,1019.00,353.00,761.00,499.00,912.00,1710.00,3125.00,,,,,,,,,,,,1,0,3,,-3928,15344,1196,127,548,395
38.388,38.29,3.59,4.03,-0.62,0.79,-0.65,3.54,0.00,3.96,0.40,634.00,1045.00,366.00,759.00,496.00,931.00,1703.00,3157.00,,,,,,,,,,,,1,0,3,,-3776,15304,1168,54,398,1134
38.471,38.34,3.60,3.19,-0.01,-0.58,0.17,3.80,0.10,3.88,0.33,623.00,1063.00,359.00,784.00,491.00,919.00,1712.00,3173.00,,,,,,,,,,,,1,0,3,,-3988,15292,1260,115,535,1790
38.513,38.40,3.68,3.82,-0.34,-1.05,0.95,5.01,-1.65,4.37,-0.18,627.00,1046.00,347.00,782.00,528.00,918.00,1744.00,3155.00,,,,,,,,,,,,1,0,3,,-3476,15360,1340,-82,1130,2803
38.533,38.45,3.64,4.11,-1.30,0.97,-1.26,2.93,-0.02,3.85,0.32,657.00,1061.00,377.00,766.00,502.00,954.00,1714.00,3178.00,,,,,,,,,,,,1,0,3,,-2784,16032,1348,-136,1316,2726
38.594,38.51,3.61,2.64,-0.24,-1.69,0.60,3.09,0.34,4.10,0.44,637.00,1093.00,358.00,810.00,491.00,939.00,1695.00,3137.00,,,,,,,,,,,,1,0,3,,-2460,16316,1312,-420,1775,2141
38.637,38.56,3.66,2.91,0.05,-0.90,0.64,4.59,-1.47,4.83,0.20,624.00,1073.00,352.00,784.00,527.00,929.00,1695.00,3067.00,,,,,,,,,,,,1,0,3,,-2084,16700,1008,-665,2455,1212
38.717,38.62,3.63,3.71,-0.88,-0.09,-0.55,3.11,-0.07,4.21,0.39,647.00,1066.00,370.00,784.00,502.00,949.00,1696.00,3127.00,,,,,,,,,,,,1,0,3,,-1768,16176,632,-686,1983,616
38.759,38.67,3.63,3.20,-0.51,0.09,-0.06,3.66,0.19,5.26,0.49,640.00,1077.00,359.00,768.00,490.00,922.00,1655.00,2992.00,,,,,,,,,,,,1,0,3,,-1864,16068,772,-551,753,657
38.8,38.73,3.67,2.89,0.79,0.22,0.69,4.39,-0.36,5.75,0.49,600.00,1053.00,344.00,749.00,498.00,909.00,1641.00,2935.00,,,,,,,,,,,,1,0,3,,-1848,16088,1084,-48,25,813
38.883,38.78,3.73,4.96,-0.61,1.42,0.28,4.76,-0.41,5.96,0.68,623.00,1007.00,344.00,722.00,496.00,897.00,1618.00,2896.00,,,,,,,,,,,,1,0,3,,-1644,16240,1188,91,-239,995
38.924,38.84,3.74,4.47,-0.47,2.35,-0.19,4.04,0.40,6.57,0.68,624.00,1023.00,347.00,705.00,481.00,903.00,1600.00,2827.00,,,,,,,,,,,,1,0,3,,-1364,16072,1088,-42,-434,914
38.965,38.89,3.76,3.69,0.24,1.33,0.42,4.17,0.63,6.06,0.91,609.00,1035.00,342.00,722.00,474.00,893.00,1595.00,2867.00,,,,,,,,,,,,1,0,3,,-1412,16212,1552,19,-302,839
39.028,38.95,3.85,4.51,-0.10,1.01,1.36,5.58,-0.87,6.59,0.30,611.00,1011.00,327.00,713.00,501.00,879.00,1632.00,2853.00,,,,,,,,,,,,1,0,3,,-1220,16164,1404,-161,-171,157
39.09,39.00,3.85,5.14,-1.16,3.09,-0.96,3.78,0.37,5.76,0.97,640.00,1015.00,357.00,699.00,484.00,913.00,1598.00,2896.00,,,,,,,,,,,,1,0,3,,-1396,16244,1512,-175,105,127
39.132,39.06,3.86,3.12,0.37,0.37,1.07,4.09,0.65,5.92,0.96,611.00,1055.00,336.00,737.00,474.00,895.00,1594.00,2878.00,,,,,,,,,,,,1,0,3,,-1180,16284,1112,-8,118,-65
39.194,39.11,3.93,3.92,0.38,0.96,1.49,5.22,-0.67,6.59,-0.07,602.00,1022.00,325.00,712.00,499.00,887.00,1665.00,2881.00,,,,,,,,,,,,1,0,3,,-1132,16220,1160,104,3,-117
39.237,39.17,3.94,4.89,-0.61,2.25,0.17,4.13,0.14,5.63,0.89,624.00,1010.00,341.00,701.00,487.00,906.00,1609.00,2917.00,,,,,,,,,,,,1,0,3,,-1292,16264,1268,122,12,-315
39.3,39.22,3.94,3.85,-0.17,1.33,0.53,3.88,0.73,5.60,0.84,621.00,1040.00,340.00,720.00,474.00,901.00,1614.00,2924.00,,,,,,,,,,,,1,0,3,,-1344,16200,1188,50,162,-477
39.381,39.28,3.94,3.23,0.67,1.23,0.78,4.07,0.35,5.74,0.60,600.00,1042.00,336.00,718.00,482.00,903.00,1631.00,2927.00,,,,,,,,,,,,1,0,3,,-1200,16136,924,-125,119,-625
39.422,39.33,3.97,4.84,-0.68,1.05,0.79,4.54,-0.33,5.52,0.56,627.00,1014.00,337.00,723.00,496.00,903.00,1641.00,2956.00,,,,,,,,,,,,1,0,3,,-1256,16172,1008,-190,-48,-600
39.485,39.39,3.95,3.54,-0.25,1.25,0.07,3.51,0.05,5.15,0.60,627.00,1055.00,349.00,731.00,495.00,931.00,1649.00,2996.00,,,,,,,,,,,,1,0,3,,-1500,16084,1324,-98,-118,-644
39.547,39.44,3.91,2.94,0.07,0.25,0.25,3.22,0.68,4.96,0.67,623.00,1071.00,352.00,757.00,481.00,926.00,1648.00,3013.00,,,,,,,,,,,,1,0,3,,-1556,16300,1176,17,-164,-743
39.63,39.50,3.94,3.34,-0.09,-0.36,1.10,4.45,-0.85,5.28,0.08,624.00,1059.00,340.00,758.00,511.00,919.00,1692.00,3023.00,,,,,,,,,,,,1,0,3,,-1584,16228,1180,110,-187,-849
39.65,39.55,3.92,4.21,-1.31,2.52,-1.28,3.61,0.02,5.43,0.64,656.00,1057.00,367.00,721.00,495.00,928.00,1637.00,2960.00,,,,,,,,,,,,1,0,3,,-1640,16388,1188,-118,-176,-1508
39.692,39.61,3.92,3.00,0.05,0.42,1.00,3.80,0.75,5.98,0.70,623.00,1069.00,337.00,737.00,474.00,903.00,1615.00,2891.00,,,,,,,,,,,,1,0,3,,-1824,16164,1364,-158,-14,-1854
39.754,39.66,3.99,4.05,0.15,1.06,1.40,5.34,-0.64,6.40,0.44,608.00,1023.00,326.00,711.00,497.00,882.00,1626.00,2864.00,,,,,,,,,,,,1,0,3,,-2168,16132,1412,-101,49,-2052
39.794,39.72,4.02,5.18,-0.71,3.10,-0.39,4.52,0.24,6.14,1.01,624.00,1001.00,346.00,688.00,481.00,890.00,1584.00,2850.00,,,,,,,,,,,,1,0,3,,-2328,15992,1216,-84,61,-1984
39.855,39.77,4.03,4.44,-0.13,1.94,1.16,4.34,0.93,6.30,0.98,613.00,1015.00,325.00,691.00,465.00,880.00,1582.00,2834.00,,,,,,,,,,,,1,0,3,,-2564,15700,1396,-173,16,-2287
39.916,39.83,4.07,3.89,0.82,1.41,1.57,4.72,0.40,6.27,0.78,588.00,1011.00,321.00,698.00,475.00,879.00,1600.00,2853.00,,,,,,,,,,,,1,0,3,,-2796,16132,1180,-206,-87,-2653
39.978,39.88,4.13,5.55,-0.51,2.04,1.07,5.26,-0.39,6.01,0.74,613.00,981.00,326.00,690.00,491.00,879.00,1611.00,2885.00,,,,,,,,,,,,1,0,3,,-3048,15836,1436,-31,-46,-2725
40.039,39.94,4.14,4.82,-0.44,2.06,0.28,4.47,0.14,5.49,0.80,619.00,1008.00,340.00,704.00,484.00,894.00,1621.00,2940.00,,,,,,,,,,,,1,0,3,,-3836,15256,1316,53,71,-2344
40.101,39.99,4.13,4.15,-0.01,0.39,0.79,3.92,0.87,5.33,0.74,612.00,1023.00,341.00,742.00,470.00,896.00,1631.00,2964.00,,,,,,,,,,,,1,0,3,,-3928,15180,1128,113,-71,-1390
40.143,40.05,4.28,4.52,-0.22,-0.18,1.54,7.20,-3.47,5.62,0.15,615.00,1014.00,331.00,744.00,560.00,884.00,1675.00,2977.00,,,,,,,,,,,,1,0,3,,-4000,15296,1132,144,-458,-723
40.205,40.10,4.25,5.10,-1.18,2.48,-1.22,3.59,0.28,4.82,0.60,641.00,1017.00,366.00,721.00,488.00,922.00,1659.00,3036.00,,,,,,,,,,,,1,0,3,,-4040,15624,1108,141,-537,-585
40.269,40.16,4.24,3.28,0.14,-0.28,1.13,4.05,0.48,4.78,0.67,617.00,1055.00,339.00,755.00,479.00,901.00,1654.00,3035.00,,,,,,,,,,,,1,0,3,,-4188,15620,1168,137,-397,-756
40.289,40.21,4.28,3.83,0.07,-0.11,1.24,5.02,-0.72,5.01,0.07,613.00,1034.00,336.00,748.00,502.00,895.00,1701.00,3056.00,,,,,,,,,,,,1,0,3,,-4168,15420,1404,147,-78,-588
40.352,40.27,4.25,4.25,-0.69,1.00,-0.26,3.76,0.04,4.41,0.50,634.00,1038.00,357.00,745.00,493.00,922.00,1680.00,3093.00,,,,,,,,,,,,1,0,3,,-4232,15484,1140,-26,-87,-443
40.414,40.32,4.23,3.59,-0.35,-0.63,0.87,3.70,0.29,4.33,0.41,630.00,1056.00,346.00,771.00,487.00,918.00,1691.00,3111.00,,,,,,,,,,,,1,0,3,,-4412,15384,1132,9,108,-169
