Time_Host,Time_Arduino,easingdata,CH1_Oxy,CH1_Deoxy,CH2_Oxy,CH2_Deoxy,CH3_Oxy,CH3_Deoxy,CH4_Oxy,CH4_Deoxy,CH1_PD730,CH1_PD850,CH2_PD730,CH2_PD850,CH3_PD730,CH3_PD850,CH4_PD730,CH4_PD850,Answers,airplane_playstate,trail_times,frameRate,Airplane X,Airplane Y,Correct,Wrong,Slow,AnswerRate,CorrectRate,VFTstates,VFTchoose,VFTCount,Culfstates,ax,ay,az,gx,gy,gz
1.168,0.04,0.00,0.00,0.00,0.00,0.00,0.00,0.00,0.00,0.00,732.00,1646.00,637.00,767.00,2228.00,3729.00,1001.00,1302.00,,,,,,,,,,,,0,0,0,,-672,14200,7368,183,524,-73
1.189,0.10,0.00,0.00,0.00,0.00,0.00,0.00,0.00,0.00,0.00,562.00,1785.00,813.00,675.00,2175.00,4001.00,928.00,1535.00,,,,,,,,,,,,0,0,0,,-424,14340,7004,-49,276,-92
1.209,0.15,0.00,0.00,0.00,0.00,0.00,0.00,0.00,0.00,0.00,700.00,1499.00,735.00,826.00,2071.00,3803.00,831.00,1410.00,,,,,,,,,,,,0,0,0,,-384,14568,7156,-102,295,-174
1.292,0.21,0.00,0.00,0.00,0.00,0.00,0.00,0.00,0.00,0.00,890.00,1604.00,666.00,769.00,2176.00,3691.00,977.00,1357.00,,,,,,,,,,,,0,0,0,,-416,14336,6884,21,28,-421
1.312,0.26,0.00,0.00,0.00,0.00,0.00,0.00,0.00,0.00,0.00,583.00,1770.00,735.00,704.00,2158.00,3761.00,918.00,1445.00,,,,,,,,,,,,0,0,0,,-712,14468,6724,37,-413,-571
1.333,1.05,0.00,0.00,0.00,0.00,0.00,0.00,0.00,0.00,0.00,511.00,1825.00,823.00,655.00,2153.00,3931.00,901.00,1515.00,,,,,,,,,,,,0,0,0,,-704,14276,7376,-217,265,32
1.353,1.10,0.00,0.00,0.00,0.00,0.00,0.00,0.00,0.00,0.00,713.00,1481.00,739.00,878.00,2032.00,3792.00,784.00,1397.00,,,,,,,,,,,,0,0,0,,-620,14252,7292,-213,64,-156
1.375,1.16,0.00,0.00,0.00,0.00,0.00,0.00,0.00,0.00,0.00,963.00,1661.00,610.00,778.00,2241.00,3610.00,1059.00,1267.00,,,,,,,,,,,,0,0,0,,-648,14260,7336,-138,105,-112
1.395,1.21,0.00,0.00,0.00,0.00,0.00,0.00,0.00,0.00,0.00,523.00,1807.00,808.00,688.00,2186.00,3891.00,934.00,1488.00,,,,,,,,,,,,0,0,0,,-644,14284,7320,-89,87,-212
1.457,1.27,0.00,0.00,0.00,0.00,0.00,0.00,0.00,0.00,0.00,725.00,1529.00,762.00,794.00,2096.00,3847.00,832.00,1424.00,,,,,,,,,,,,0,0,0,,-732,14116,7228,-86,20,-210
1.519,1.32,0.01,3.12,-4.57,-3.46,2.82,0.24,-0.08,1.63,-1.04,835.00,1659.00,670.00,801.00,2151.00,3777.00,941.00,1363.00,,,,,,,,,,,,0,0,0,,-732,14252,7656,-142,76,-153
1.62,1.38,0.03,-0.21,-0.16,-1.62,1.63,0.35,-0.24,1.31,-1.24,699.00,1682.00,691.00,769.00,2166.00,3778.00,957.00,1388.00,,,,,,,,,,,,0,0,0,,-768,14172,7536,-186,133,-130
1.641,1.43,-0.05,-2.54,1.38,2.51,-1.85,-1.47,0.36,-1.53,0.73,671.00,1770.00,774.00,717.00,2167.00,3995.00,906.00,1473.00,,,,,,,,,,,,0,0,0,,-756,14264,7420,-196,183,-60
1.682,1.49,-0.11,2.86,-2.72,-4.53,1.49,-1.42,0.96,-1.29,1.94,759.00,1595.00,734.00,866.00,2096.00,3923.00,845.00,1413.00,,,,,,,,,,,,0,0,0,,-644,14188,7304,-99,151,-36
1.743,1.54,-0.03,4.60,-7.81,-3.48,3.70,1.67,-1.12,4.53,-3.52,969.00,1707.00,639.00,783.00,2218.00,3671.00,1021.00,1299.00,,,,,,,,,,,,0,0,0,,-656,14180,7604,-220,-33,-265
1.784,1.60,-0.07,-8.70,6.79,6.34,-4.18,-0.85,0.27,-2.55,1.21,560.00,1953.00,819.00,656.00,2153.00,3907.00,899.00,1514.00,,,,,,,,,,,,0,0,0,,-764,14268,7620,-130,-20,-321
1.866,1.65,-0.10,4.11,-2.54,-5.44,1.78,-0.70,1.48,-2.36,4.03,735.00,1511.00,735.00,891.00,2011.00,3760.00,769.00,1393.00,,,,,,,,,,,,0,0,0,,-740,14136,7464,-62,24,-304
1.886,1.71,0.03,6.70,-8.93,-3.80,4.61,2.49,-1.27,5.53,-3.89,991.00,1619.00,612.00,774.00,2203.00,3568.00,1023.00,1261.00,,,,,,,,,,,,0,0,0,,-812,14188,7660,-63,34,-216
1.991,1.76,0.05,-11.41,12.40,4.29,-2.95,0.33,-0.20,-0.86,0.18,434.00,1870.00,795.00,688.00,2162.00,3776.00,922.00,1456.00,,,,,,,,,,,,0,0,0,,-688,14172,7468,-88,83,-138
2.012,1.82,0.03,3.35,-1.49,-0.53,-0.18,-0.32,0.77,-4.53,3.62,704.00,1514.00,747.00,773.00,2076.00,3775.00,818.00,1535.00,,,,,,,,,,,,0,0,0,,-796,14144,7380,-139,166,-198
2.053,1.87,0.05,4.01,-4.67,-2.44,2.26,0.44,0.20,0.94,-0.20,826.00,1606.00,678.00,781.00,2111.00,3719.00,911.00,1370.00,,,,,,,,,,,,0,0,0,,-860,14192,7412,-106,120,-82
2.116,1.93,0.12,0.30,-0.62,-1.27,1.70,1.49,-0.79,1.46,-0.92,710.00,1669.00,684.00,757.00,2186.00,3665.00,938.00,1368.00,,,,,,,,,,,,0,0,0,,-676,14244,7528,-86,118,-118
2.179,1.99,0.07,-3.29,2.65,3.65,-2.17,-0.89,0.41,-2.10,1.16,635.00,1762.00,771.00,691.00,2139.00,3899.00,894.00,1489.00,,,,,,,,,,,,0,0,0,,-604,14044,7464,-90,157,-185
2.241,2.04,0.04,2.94,-2.57,-3.85,1.44,-0.56,0.95,-1.23,2.40,752.00,1584.00,727.00,844.00,2064.00,3792.00,823.00,1392.00,,,,,,,,,,,,0,0,0,,-780,14096,7356,-66,155,-150
2.283,2.10,0.14,4.02,-6.35,-3.15,3.88,2.12,-1.41,5.02,-3.72,905.00,1680.00,629.00,769.00,2235.00,3635.00,1023.00,1281.00,,,,,,,,,,,,0,0,0,,-744,14056,7664,-96,100,-145
2.388,2.15,0.05,-10.32,9.02,6.91,-4.40,-1.75,0.52,-3.31,1.39,511.00,1961.00,820.00,645.00,2159.00,4021.00,903.00,1553.00,,,,,,,,,,,,0,0,0,,-644,14024,7488,-84,227,-160
2.409,2.20,-0.03,3.54,-1.53,-4.93,1.23,-1.60,1.57,-2.76,3.88,703.00,1504.00,750.00,886.00,2035.00,3888.00,781.00,1421.00,,,,,,,,,,,,0,0,0,,-644,14044,7484,-14,210,-131
2.451,2.26,0.03,7.02,-9.93,-4.58,4.57,1.22,-1.02,3.59,-2.98,1040.00,1642.00,622.00,799.00,2224.00,3727.00,1009.00,1329.00,,,,,,,,,,,,0,0,0,,-556,14192,7388,-163,152,-246
2.514,2.31,0.04,-10.38,10.59,3.58,-2.17,0.33,-0.19,-0.82,0.05,470.00,1885.00,772.00,693.00,2161.00,3775.00,928.00,1459.00,,,,,,,,,,,,0,0,0,,-704,14296,7508,-211,125,-231
2.556,2.37,0.04,3.75,-0.63,-0.39,-0.00,-0.04,0.50,-1.58,2.52,667.00,1456.00,738.00,765.00,2095.00,3760.00,823.00,1407.00,,,,,,,,,,,,0,0,0,,-680,14092,7568,-8,82,-290
2.597,2.42,0.07,4.68,-4.69,-2.54,2.26,0.61,0.35,0.38,0.62,817.00,1565.00,679.00,784.00,2088.00,3680.00,880.00,1370.00,,,,,,,,,,,,0,0,0,,-592,14204,7420,0,103,-186
2.66,2.48,0.17,2.28,-3.12,-1.30,2.04,2.08,-0.82,2.53,-1.40,784.00,1650.00,672.00,751.00,2165.00,3582.00,944.00,1328.00,,,,,,,,,,,,0,0,0,,-740,14224,7440,-40,77,-157
2.723,2.54,0.13,-6.17,6.37,4.13,-2.33,-0.63,0.50,-2.27,1.45,547.00,1787.00,771.00,681.00,2118.00,3850.00,883.00,1488.00,,,,,,,,,,,,0,0,0,,-696,14080,7404,-103,128,-255
2.786,2.59,0.11,4.59,-3.08,-3.81,1.61,-0.17,1.27,-1.49,2.94,750.00,1504.00,720.00,839.00,2015.00,3703.00,803.00,1386.00,,,,,,,,,,,,0,0,0,,-752,14208,7552,-98,143,-123
2.828,2.64,0.25,6.75,-9.37,-3.24,4.51,2.92,-1.46,5.33,-3.68,1014.00,1635.00,609.00,759.00,2208.00,3526.00,1015.00,1264.00,,,,,,,,,,,,0,0,0,,-712,14236,7444,-44,111,-175
2.891,2.70,0.18,-8.86,7.17,7.91,-4.65,-1.17,0.60,-3.04,1.42,550.00,1945.00,816.00,624.00,2128.00,3922.00,897.00,1535.00,,,,,,,,,,,,0,0,0,,-820,14252,7540,-15,112,-190
2.954,2.75,0.13,3.87,-1.59,-4.50,1.48,-0.79,1.51,-2.57,4.30,701.00,1487.00,734.00,865.00,2011.00,3770.00,761.00,1395.00,,,,,,,,,,,,0,0,0,,-840,14212,7580,74,139,-214
3.016,2.81,0.20,5.97,-8.41,-3.87,4.27,1.54,-0.85,3.96,-3.36,976.00,1643.00,624.00,783.00,2191.00,3664.00,1023.00,1323.00,,,,,,,,,,,,0,0,0,,-756,14164,7488,-26,164,-199
3.079,2.87,0.19,-4.51,4.63,3.15,-1.63,-0.13,0.06,-0.86,0.18,583.00,1753.00,756.00,695.00,2150.00,3819.00,922.00,1456.00,,,,,,,,,,,,0,0,0,,-672,14148,7648,-42,203,-136
3.1,2.92,0.14,2.90,-1.34,-0.40,-0.32,-0.86,0.77,-2.10,2.47,704.00,1535.00,751.00,772.00,2096.00,3856.00,833.00,1438.00,,,,,,,,,,,,0,0,0,,-812,13940,7584,18,183,-189
3.163,2.98,0.10,2.94,-3.29,-2.31,1.13,-0.62,0.60,-0.39,0.94,782.00,1615.00,719.00,801.00,2106.00,3837.00,877.00,1400.00,,,,,,,,,,,,0,0,0,,-732,14448,7452,-69,115,-139
3.227,3.03,0.18,3.57,-5.58,-1.61,2.20,1.74,-0.78,2.36,-1.34,875.00,1675.00,670.00,757.00,2174.00,3627.00,944.00,1335.00,,,,,,,,,,,,0,0,0,,-660,14220,7744,-135,206,-142
3.29,3.08,0.15,-7.84,7.48,5.24,-3.52,-0.46,0.42,-2.01,1.36,531.00,1853.00,806.00,673.00,2121.00,3832.00,883.00,1476.00,,,,,,,,,,,,0,0,0,,-704,14128,7472,24,172,-249
3.31,3.14,0.14,4.70,-2.92,-3.80,1.32,-0.08,1.24,-1.52,3.40,742.00,1491.00,731.00,845.00,2015.00,3693.00,784.00,1371.00,,,,,,,,,,,,0,0,0,,-872,14292,7444,64,138,-139
3.372,3.19,0.28,7.58,-10.30,-3.50,4.44,3.05,-1.46,5.55,-3.63,1050.00,1622.00,614.00,768.00,2203.00,3508.00,1008.00,1251.00,,,,,,,,,,,,0,0,0,,-840,14376,7524,50,219,-61
3.453,3.25,0.22,-11.56,10.37,8.21,-5.08,-0.93,0.46,-2.96,1.31,486.00,1987.00,831.00,624.00,2135.00,3900.00,901.00,1535.00,,,,,,,,,,,,0,0,0,,-880,14144,7484,-12,172,-98
3.494,3.31,0.18,4.38,-1.17,-3.96,1.48,-0.66,1.41,-2.61,4.17,679.00,1441.00,727.00,847.00,2018.00,3762.00,767.00,1402.00,,,,,,,,,,,,0,0,0,,-752,14344,7500,-67,194,-112
3.535,3.36,0.25,7.60,-9.82,-2.91,3.05,1.65,-0.68,3.25,-2.25,1023.00,1600.00,655.00,779.00,2166.00,3630.00,976.00,1321.00,,,,,,,,,,,,0,0,0,,-764,14156,7300,-37,181,-175
3.624,3.41,0.27,-9.06,9.33,3.43,-1.78,0.58,-0.15,-0.29,0.19,491.00,1850.00,758.00,690.00,2146.00,3734.00,912.00,1423.00,,,,,,,,,,,,0,0,0,,-756,14168,7452,-17,159,-122
3.645,3.47,0.23,1.28,1.05,0.05,-0.49,-0.41,0.53,-1.38,1.77,637.00,1535.00,752.00,762.00,2106.00,3813.00,854.00,1424.00,,,,,,,,,,,,0,0,0,,-812,14252,7412,-52,155,-110
3.708,3.52,0.21,3.38,-3.11,-2.07,0.82,-0.30,0.65,-0.46,1.27,768.00,1579.00,728.00,800.00,2089.00,3785.00,863.00,1392.00,,,,,,,,,,,,0,0,0,,-812,14176,7388,-66,171,-100
3.791,3.58,0.26,2.94,-4.51,-2.06,2.32,1.19,-0.79,2.65,-1.88,835.00,1668.00,671.00,768.00,2198.00,3709.00,967.00,1339.00,,,,,,,,,,,,0,0,0,,-716,14156,7460,-63,180,-130
3.853,3.63,0.17,-8.00,7.64,4.86,-3.78,-1.52,0.53,-2.55,1.19,528.00,1857.00,823.00,688.00,2150.00,3985.00,900.00,1515.00,,,,,,,,,,,,0,0,0,,-716,14112,7508,2,211,-198
3.873,3.69,0.09,3.77,-2.63,-4.54,1.37,-1.30,1.26,-2.21,3.42,743.00,1535.00,739.00,869.00,2058.00,3873.00,793.00,1408.00,,,,,,,,,,,,0,0,0,,-760,14532,7180,-96,52,-118
3.933,3.75,0.22,7.60,-10.93,-3.79,4.63,2.65,-1.60,5.36,-3.76,1086.00,1648.00,611.00,773.00,2235.00,3576.00,1019.00,1265.00,,,,,,,,,,,,0,0,0,,-684,14228,7608,-128,122,-162
3.973,3.80,0.16,-13.56,11.89,7.80,-5.26,-1.02,0.40,-2.60,1.05,464.00,2064.00,845.00,637.00,2145.00,3920.00,908.00,1524.00,,,,,,,,,,,,0,0,0,,-716,14188,7228,-40,143,-250
4.056,3.85,0.12,5.17,-1.00,-3.42,0.89,-0.61,1.14,-2.21,3.58,663.00,1390.00,743.00,842.00,2045.00,3781.00,786.00,1402.00,,,,,,,,,,,,0,0,0,,-856,14288,7264,-32,100,-131
4.118,3.91,0.19,7.61,-9.95,-3.06,2.79,1.48,-0.66,3.26,-1.99,1030.00,1605.00,666.00,789.00,2171.00,3654.00,962.00,1311.00,,,,,,,,,,,,0,0,0,,-776,14300,7376,-16,94,-131
4.2,3.96,0.19,-8.59,8.95,2.78,-1.41,0.20,-0.17,-0.32,0.18,497.00,1835.00,752.00,701.00,2163.00,3792.00,913.00,1425.00,,,,,,,,,,,,0,0,0,,-824,14072,7440,-53,142,-208
4.22,4.02,0.16,-1.40,2.78,1.02,-0.99,-0.48,0.34,-1.12,1.23,609.00,1629.00,759.00,743.00,2131.00,3843.00,875.00,1430.00,,,,,,,,,,,,0,0,0,,-860,14200,7376,-49,197,-108
4.261,4.08,0.13,3.61,-2.82,-2.09,0.75,-0.32,0.67,-0.61,1.51,753.00,1553.00,731.00,802.00,2087.00,3785.00,854.00,1391.00,,,,,,,,,,,,0,0,0,,-760,14204,7176,-7,156,-66
4.322,4.13,0.22,4.26,-6.35,-2.09,2.41,1.82,-1.28,3.31,-2.63,901.00,1664.00,668.00,767.00,2231.00,3665.00,995.00,1331.00,,,,,,,,,,,,0,0,0,,-780,14328,7460,-57,201,-112
4.364,4.18,0.14,-9.72,9.00,4.86,-3.62,-1.38,0.48,-2.55,1.34,506.00,1916.00,816.00,685.00,2150.00,3968.00,893.00,1509.00,,,,,,,,,,,,0,0,0,,-668,14228,7396,-36,172,-122
4.446,4.24,0.06,4.68,-2.69,-4.08,1.04,-1.41,1.44,-2.21,3.39,733.00,1483.00,746.00,861.00,2042.00,3871.00,794.00,1409.00,,,,,,,,,,,,0,0,0,,-688,14328,7248,-45,52,-220
4.486,4.29,0.16,7.40,-10.50,-3.09,4.58,2.03,-1.67,5.76,-4.61,1065.00,1642.00,605.00,753.00,2270.00,3673.00,1059.00,1274.00,,,,,,,,,,,,0,0,0,,-820,14160,7384,-114,83,-252
4.547,4.35,0.05,-13.26,12.24,7.07,-5.27,-1.99,0.45,-2.82,1.10,453.00,2021.00,857.00,656.00,2178.00,4069.00,909.00,1535.00,,,,,,,,,,,,0,0,0,,-788,14216,7416,-29,148,-242
4.609,4.41,-0.04,3.77,-0.58,-3.28,0.16,-1.75,0.98,-2.23,2.69,665.00,1453.00,771.00,854.00,2107.00,3973.00,825.00,1437.00,,,,,,,,,,,,0,0,0,,-972,14476,7236,-72,140,-196
4.65,4.46,0.01,6.88,-9.47,-3.26,2.48,0.87,-0.50,3.01,-1.97,1017.00,1631.00,680.00,802.00,2176.00,3727.00,965.00,1323.00,,,,,,,,,,,,0,0,0,,-676,14264,7528,-236,130,-215
4.712,4.51,0.03,-6.46,6.74,2.27,-0.87,0.48,-0.31,0.24,-0.27,539.00,1790.00,737.00,705.00,2169.00,3765.00,926.00,1411.00,,,,,,,,,,,,0,0,0,,-732,14292,7260,-213,97,-251
4.754,4.57,0.02,-1.35,2.65,3.08,-1.85,-0.24,0.19,-0.80,0.91,613.00,1632.00,766.00,701.00,2139.00,3823.00,885.00,1424.00,,,,,,,,,,,,0,0,0,,-852,14112,7452,-41,99,-88
4.815,4.62,0.01,3.59,-2.86,-1.94,0.57,-0.07,0.59,-1.20,2.75,755.00,1556.00,736.00,801.00,2087.00,3757.00,807.00,1377.00,,,,,,,,,,,,0,0,0,,-608,14156,7300,-84,36,-174
4.856,4.68,0.12,4.16,-6.09,-1.93,2.66,2.12,-1.42,3.55,-2.79,890.00,1659.00,657.00,757.00,2236.00,3636.00,999.00,1324.00,,,,,,,,,,,,0,0,0,,-772,14372,7088,-94,15,-337
4.958,4.74,0.06,-9.36,8.31,5.60,-3.89,-1.04,0.41,-2.24,1.13,522.00,1925.00,817.00,670.00,2145.00,3923.00,898.00,1499.00,,,,,,,,,,,,0,0,0,,-748,14168,7312,-101,24,-203
4.978,4.79,0.02,4.84,-2.59,-3.92,1.11,-0.77,1.33,-2.08,3.63,727.00,1470.00,741.00,854.00,2031.00,3787.00,782.00,1393.00,,,,,,,,,,,,0,0,0,,-800,14300,7304,-51,95,-166
5.021,4.84,0.15,7.78,-11.06,-3.68,4.72,2.61,-1.80,6.14,-4.70,1090.00,1642.00,607.00,768.00,2262.00,3602.00,1057.00,1258.00,,,,,,,,,,,,0,0,0,,-792,14332,7408,-51,190,-236
5.081,4.90,0.08,-12.44,11.36,10.76,-6.25,-1.14,0.25,-2.37,0.97,468.00,2003.00,845.00,582.00,2167.00,3954.00,908.00,1513.00,,,,,,,,,,,,0,0,0,,-760,14232,7380,11,185,-182
5.143,4.95,0.03,4.95,-1.36,-2.66,0.22,-0.97,0.80,-1.80,2.53,679.00,1416.00,760.00,832.00,2097.00,3871.00,826.00,1419.00,,,,,,,,,,,,0,0,0,,-736,14236,7228,24,147,-162
5.205,5.01,0.06,6.09,-8.45,-3.04,2.49,0.68,-0.39,2.80,-1.62,976.00,1637.00,677.00,795.00,2170.00,3743.00,951.00,1322.00,,,,,,,,,,,,0,0,0,,-940,14364,7220,-117,178,-167
5.288,5.07,0.07,-4.35,4.36,1.79,-1.01,0.15,-0.37,-1.92,3.04,590.00,1755.00,749.00,721.00,2189.00,3821.00,805.00,1406.00,,,,,,,,,,,,0,0,0,,-832,14368,7316,-85,192,-131
5.308,5.12,0.00,-2.76,2.94,1.43,-1.40,-1.26,0.22,-1.29,0.81,619.00,1712.00,770.00,739.00,2176.00,3977.00,898.00,1456.00,,,,,,,,,,,,0,0,0,,-812,14356,7180,-41,172,-64
5.349,5.17,-0.03,3.61,-3.19,-2.67,0.69,-0.59,0.70,-0.65,1.65,768.00,1568.00,741.00,822.00,2094.00,3823.00,848.00,1388.00,,,,,,,,,,,,0,0,0,,-812,14212,7408,-94,24,-224
5.41,5.23,0.10,5.47,-7.91,-1.87,2.53,2.51,-1.46,4.30,-2.94,959.00,1654.00,661.00,758.00,2224.00,3583.00,994.00,1291.00,,,,,,,,,,,,0,0,0,,-920,14372,7472,-67,52,-199
5.472,5.29,0.06,-10.15,8.96,6.47,-4.21,-0.75,0.41,-2.15,1.35,511.00,1951.00,818.00,653.00,2133.00,3877.00,886.00,1485.00,,,,,,,,,,,,0,0,0,,-792,14148,7488,9,106,-232
5.533,5.34,0.04,4.48,-2.29,-3.67,1.23,-0.35,1.29,-1.82,3.97,720.00,1479.00,733.00,843.00,2019.00,3727.00,764.00,1366.00,,,,,,,,,,,,0,0,0,,-776,14320,7244,-73,141,-170
5.574,5.39,0.19,8.72,-11.94,-3.65,5.10,3.18,-1.89,6.64,-4.57,1124.00,1620.00,594.00,759.00,2249.00,3530.00,1040.00,1229.00,,,,,,,,,,,,0,0,0,,-816,14252,7276,-92,160,-218
5.655,5.45,0.17,-12.82,12.58,7.28,-5.06,-0.22,0.15,-1.73,0.90,441.00,1968.00,844.00,647.00,2143.00,3824.00,901.00,1478.00,,,,,,,,,,,,0,0,0,,-1028,14196,7260,-80,77,-183
5.675,5.50,0.15,5.17,-1.05,-1.32,-0.06,-0.19,0.72,-1.25,2.43,665.00,1392.00,753.00,795.00,2077.00,3762.00,822.00,1392.00,,,,,,,,,,,,0,0,0,,-816,14352,7200,-1,20,4
5.738,5.56,0.21,6.39,-8.24,-2.23,2.43,1.36,-0.39,3.17,-1.39,960.00,1609.00,669.00,771.00,2143.00,3643.00,933.00,1295.00,,,,,,,,,,,,0,0,0,,-744,14376,7276,15,128,-130
5.799,5.62,0.27,-1.91,2.09,0.95,0.03,1.26,-0.61,1.52,-0.62,638.00,1693.00,719.00,725.00,2174.00,3681.00,922.00,1354.00,,,,,,,,,,,,0,0,0,,-716,14348,7248,-60,274,-251
5.861,5.67,0.24,-3.70,4.05,2.95,-1.98,-0.34,0.19,-0.55,0.73,593.00,1725.00,773.00,707.00,2143.00,3838.00,890.00,1417.00,,,,,,,,,,,,0,0,0,,-780,14260,7000,-78,163,-216
5.922,5.72,0.21,4.80,-3.61,-3.07,1.10,-0.36,0.80,-0.39,1.94,769.00,1513.00,730.00,826.00,2074.00,3778.00,831.00,1363.00,,,,,,,,,,,,0,0,0,,-824,14212,7140,-130,64,-181
5.964,5.78,0.29,5.61,-8.29,-2.64,2.93,1.97,-1.41,3.26,-1.07,976.00,1661.00,656.00,773.00,2240.00,3655.00,915.00,1279.00,,,,,,,,,,,,0,0,0,,-808,14336,7400,-125,29,-162
6.026,5.83,0.20,-10.86,9.21,5.73,-4.14,-1.53,0.41,-2.56,1.40,511.00,1994.00,826.00,671.00,2164.00,3999.00,890.00,1507.00,,,,,,,,,,,,0,0,0,,-756,14116,7448,-64,119,-198
6.088,5.89,0.14,3.32,-1.77,-4.39,1.32,-1.07,1.39,-2.26,4.05,715.00,1527.00,739.00,865.00,2035.00,3825.00,767.00,1387.00,,,,,,,,,,,,0,0,0,,-788,14316,7120,-201,102,-319
6.15,5.95,0.29,8.45,-11.45,-3.92,4.83,3.08,-1.77,6.24,-4.43,1100.00,1616.00,606.00,773.00,2239.00,3533.00,1040.00,1244.00,,,,,,,,,,,,0,0,0,,-868,14284,7396,-169,42,-223
6.19,6.00,0.29,-11.57,11.87,6.33,-4.00,0.44,-0.22,-0.76,0.02,448.00,1909.00,811.00,653.00,2160.00,3762.00,928.00,1456.00,,,,,,,,,,,,0,0,0,,-908,14272,7428,-64,140,-192
6.23,6.05,0.30,5.08,-1.05,-0.88,-0.18,0.36,0.63,-1.17,2.63,666.00,1397.00,752.00,784.00,2066.00,3689.00,812.00,1380.00,,,,,,,,,,,,0,0,0,,-888,14288,7344,-43,136,-148
6.292,6.11,0.38,5.78,-7.11,-2.46,2.82,1.86,-0.41,3.37,-1.40,913.00,1599.00,658.00,770.00,2126.00,3574.00,930.00,1285.00,,,,,,,,,,,,0,0,0,,-816,14404,7388,-149,146,-112
6.414,6.16,0.46,1.25,-1.35,0.13,0.83,2.01,-0.72,2.17,-0.86,726.00,1639.00,699.00,733.00,2157.00,3583.00,923.00,1328.00,,,,,,,,,,,,0,0,0,,-808,14224,7212,-157,169,-234
6.435,6.22,0.46,-3.48,3.79,3.63,-1.97,0.50,0.02,-0.51,0.94,599.00,1722.00,763.00,688.00,2130.00,3729.00,879.00,1407.00,,,,,,,,,,,,0,0,0,,-772,14332,7380,-136,173,-116
6.476,6.28,0.46,4.66,-3.00,-3.36,1.30,0.40,0.69,-0.21,2.17,746.00,1497.00,726.00,831.00,2058.00,3677.00,818.00,1345.00,,,,,,,,,,,,0,0,0,,-796,14344,7296,-98,119,-119
6.518,6.33,0.58,5.90,-8.31,-2.11,3.18,2.91,-1.55,5.56,-3.52,972.00,1643.00,641.00,752.00,2219.00,3536.00,1002.00,1247.00,,,,,,,,,,,,0,0,0,,-788,14200,7628,-26,113,-193
6.579,6.38,0.54,-9.62,8.22,6.69,-4.19,-0.26,0.09,-1.80,1.13,527.00,1949.00,814.00,647.00,2151.00,3835.00,891.00,1473.00,,,,,,,,,,,,0,0,0,,-828,14312,7100,-37,152,-183
6.66,6.44,0.49,4.04,-2.04,-4.83,1.72,-0.43,1.26,-2.31,4.46,716.00,1495.00,729.00,871.00,2025.00,3742.00,751.00,1375.00,,,,,,,,,,,,0,0,0,,-856,14212,7248,-52,183,-135
6.681,6.50,0.60,7.61,-10.69,-3.43,4.30,2.62,-1.53,5.73,-3.65,1072.00,1637.00,618.00,769.00,2229.00,3575.00,1006.00,1243.00,,,,,,,,,,,,0,0,0,,-828,14212,7308,-147,190,-117
6.762,6.55,0.57,-9.94,9.93,4.35,-3.04,0.01,-0.21,-0.94,0.45,483.00,1885.00,798.00,688.00,2176.00,3826.00,910.00,1450.00,,,,,,,,,,,,0,0,0,,-860,14308,7268,-172,164,-74
6.783,6.61,0.51,4.96,-1.88,-0.93,-0.12,-0.51,0.62,-1.33,2.57,698.00,1435.00,750.00,784.00,2100.00,3819.00,817.00,1391.00,,,,,,,,,,,,0,0,0,,-764,14356,7376,-68,182,-40
6.844,6.66,0.53,5.09,-6.49,-2.59,2.33,0.91,-0.23,1.87,-0.33,894.00,1616.00,677.00,784.00,2143.00,3694.00,902.00,1325.00,,,,,,,,,,,,0,0,0,,-824,14284,7320,-195,6,-340
6.905,6.71,0.61,2.07,-2.88,-0.81,1.52,2.08,-0.82,1.71,-0.62,777.00,1653.00,685.00,747.00,2166.00,3583.00,919.00,1344.00,,,,,,,,,,,,0,0,0,,-828,14300,7556,-97,16,-233
6.947,6.77,0.59,-4.52,4.35,3.87,-2.00,0.29,0.19,-0.90,1.10,592.00,1767.00,761.00,682.00,2118.00,3743.00,878.00,1423.00,,,,,,,,,,,,0,0,0,,-820,14084,7308,-12,129,-166
7.008,6.83,0.60,5.01,-3.29,-3.61,1.54,0.65,0.81,0.05,2.13,753.00,1488.00,720.00,834.00,2035.00,3629.00,816.00,1333.00,,,,,,,,,,,,0,0,0,,-960,14260,7232,-133,218,-98
7.07,6.88,0.74,6.78,-9.07,-2.62,4.18,3.42,-1.62,6.06,-3.74,997.00,1620.00,613.00,747.00,2207.00,3472.00,1005.00,1230.00,,,,,,,,,,,,0,0,0,,-840,14220,7276,-186,278,-119
7.13,6.93,0.69,-8.66,8.04,7.87,-4.59,-0.14,0.25,-2.24,1.48,523.00,1886.00,814.00,624.00,2128.00,3801.00,881.00,1485.00,,,,,,,,,,,,0,0,0,,-768,14352,7288,-191,97,-145
7.213,6.99,0.67,4.70,-2.21,-4.03,1.22,0.15,1.29,-1.43,4.08,714.00,1463.00,738.00,855.00,2001.00,3655.00,754.00,1341.00,,,,,,,,,,,,0,0,0,,-892,14308,7316,-44,2,-155
7.234,7.04,0.78,7.99,-10.70,-3.66,4.68,2.98,-1.44,5.60,-3.55,1065.00,1613.00,608.00,768.00,2203.00,3515.00,1003.00,1246.00,,,,,,,,,,,,0,0,0,,-800,14348,7464,-22,144,-266
7.275,7.10,0.78,-10.86,11.63,4.26,-2.68,0.80,-0.30,-0.38,0.32,448.00,1868.00,784.00,684.00,2155.00,3717.00,907.00,1423.00,,,,,,,,,,,,0,0,0,,-892,14220,7300,-19,88,-352
7.337,7.16,0.75,4.54,-1.20,-0.08,-0.15,0.05,0.69,-0.85,2.43,678.00,1433.00,740.00,759.00,2071.00,3729.00,816.00,1370.00,,,,,,,,,,,,0,0,0,,-912,14096,7448,-9,-43,-198
7.398,7.21,0.74,4.46,-5.24,-2.49,2.14,0.56,0.16,0.92,0.48,845.00,1602.00,683.00,785.00,2111.00,3706.00,878.00,1346.00,,,,,,,,,,,,0,0,0,,-860,14120,7364,-103,63,-115
7.522,7.26,0.79,0.22,-0.60,-0.79,1.48,1.75,-0.85,2.41,-1.10,710.00,1673.00,686.00,747.00,2182.00,3633.00,931.00,1324.00,,,,,,,,,,,,0,0,0,,-884,14220,7332,-195,264,-145
7.542,7.32,0.71,-5.11,4.74,3.82,-2.41,-0.84,0.25,-1.95,1.32,586.00,1790.00,779.00,691.00,2155.00,3907.00,884.00,1474.00,,,,,,,,,,,,0,0,0,,-760,14216,7348,-179,251,-102
7.562,7.37,0.65,4.56,-3.56,-3.73,1.05,-0.44,0.80,-1.13,2.84,770.00,1525.00,741.00,849.00,2077.00,3790.00,802.00,1370.00,,,,,,,,,,,,0,0,0,,-864,14440,7236,-92,130,-147
7.643,7.43,0.77,5.24,-8.05,-2.58,3.63,3.08,-1.66,5.64,-3.54,970.00,1675.00,631.00,757.00,2225.00,3522.00,1002.00,1244.00,,,,,,,,,,,,0,0,0,,-764,14236,7528,-190,-61,-294
7.664,7.49,0.71,-9.95,8.26,8.20,-4.84,-0.43,0.35,-2.57,1.60,529.00,1973.00,820.00,620.00,2128.00,3835.00,881.00,1500.00,,,,,,,,,,,,0,0,0,,-892,14360,7432,-47,-43,-318
7.725,7.54,0.68,4.36,-1.75,-4.33,1.50,0.07,1.26,-1.89,4.44,701.00,1465.00,731.00,859.00,2007.00,3669.00,746.00,1353.00,,,,,,,,,,,,0,0,0,,-804,14132,7588,81,-14,-176
7.767,7.59,0.78,8.13,-10.67,-2.76,3.90,2.63,-1.14,4.62,-2.96,1061.00,1603.00,624.00,757.00,2181.00,3535.00,989.00,1275.00,,,,,,,,,,,,0,0,0,,-816,14032,7436,-74,120,-153
7.871,7.65,0.79,-11.26,12.44,3.86,-2.09,1.02,-0.26,-0.14,0.43,432.00,1857.00,765.00,684.00,2142.00,3681.00,898.00,1406.00,,,,,,,,,,,,0,0,0,,-744,14288,7288,-111,175,-279
7.891,7.70,0.78,3.61,-0.41,-0.10,-0.22,0.53,0.46,-1.05,2.57,661.00,1456.00,743.00,761.00,2078.00,3680.00,813.00,1376.00,,,,,,,,,,,,0,0,0,,-860,14152,7372,-165,156,-153
7.951,7.76,0.79,3.82,-3.96,-1.64,1.56,1.06,0.18,0.94,0.54,798.00,1588.00,694.00,771.00,2090.00,3632.00,875.00,1343.00,,,,,,,,,,,,0,0,0,,-912,14312,7372,-91,98,-134
8.013,7.82,0.87,2.91,-4.07,-0.54,1.67,2.42,-1.02,2.83,-1.36,816.00,1651.00,676.00,736.00,2176.00,3554.00,937.00,1311.00,,,,,,,,,,,,0,0,0,,-892,14304,7512,-41,192,-132
8.074,7.87,0.82,-5.90,5.39,5.11,-3.11,-0.19,0.21,-1.64,1.32,574.00,1815.00,790.00,669.00,2135.00,3813.00,879.00,1456.00,,,,,,,,,,,,0,0,0,,-856,14240,7312,-23,165,-164
8.135,7.92,0.77,4.46,-2.74,-3.57,1.30,-0.07,1.04,-0.95,3.18,738.00,1498.00,729.00,838.00,2036.00,3711.00,785.00,1348.00,,,,,,,,,,,,0,0,0,,-796,14264,7360,-18,148,-130
8.177,7.98,0.88,7.07,-10.39,-2.76,4.05,2.92,-1.64,5.52,-3.63,1065.00,1659.00,619.00,754.00,2230.00,3543.00,1009.00,1253.00,,,,,,,,,,,,0,0,0,,-832,14192,7216,-88,165,-117
8.239,8.04,0.78,-11.75,9.80,7.82,-5.11,-1.18,0.37,-2.69,1.22,503.00,2033.00,838.00,634.00,2155.00,3948.00,901.00,1522.00,,,,,,,,,,,,0,0,0,,-812,14188,7324,-182,201,-127
8.28,8.09,0.70,4.05,-1.91,-4.50,1.36,-0.78,1.20,-2.67,4.53,711.00,1489.00,739.00,868.00,2045.00,3801.00,753.00,1392.00,,,,,,,,,,,,0,0,0,,-888,14128,7408,-53,183,-179
8.341,8.15,0.74,6.82,-9.85,-3.61,3.60,1.47,-0.98,3.83,-2.54,1039.00,1651.00,644.00,789.00,2209.00,3686.00,981.00,1301.00,,,,,,,,,,,,0,0,0,,-772,14396,7340,-179,89,-171
8.403,8.20,0.74,-10.38,10.70,3.47,-2.10,0.82,-0.31,-0.01,0.19,467.00,1879.00,771.00,695.00,2155.00,3714.00,907.00,1407.00,,,,,,,,,,,,0,0,0,,-956,14336,7484,-147,205,-133
8.443,8.26,0.73,3.03,-0.80,0.07,-0.57,0.46,0.34,-0.93,2.16,682.00,1505.00,755.00,763.00,2095.00,3703.00,829.00,1384.00,,,,,,,,,,,,0,0,0,,-768,14196,7380,24,159,-221
8.505,8.31,0.72,3.40,-3.17,-1.67,0.84,0.59,0.35,0.76,0.77,770.00,1580.00,722.00,787.00,2089.00,3683.00,867.00,1344.00,,,,,,,,,,,,0,0,0,,-936,14232,7336,-38,75,-98
8.607,8.37,0.82,3.58,-5.31,-1.32,2.02,2.69,-1.57,3.38,-1.88,862.00,1662.00,673.00,752.00,2230.00,3568.00,954.00,1301.00,,,,,,,,,,,,0,0,0,,-984,14368,7416,-77,95,-86
8.627,8.42,0.77,-7.68,7.05,5.58,-3.86,-0.25,0.18,-1.77,1.39,542.00,1863.00,816.00,670.00,2140.00,3824.00,878.00,1461.00,,,,,,,,,,,,0,0,0,,-848,14212,7284,-107,174,-146
8.667,8.48,0.72,4.40,-3.06,-3.75,1.26,-0.12,1.14,-1.19,3.28,752.00,1515.00,733.00,845.00,2027.00,3708.00,784.00,1357.00,,,,,,,,,,,,0,0,0,,-860,14312,7468,-56,240,-60
8.73,8.53,0.85,7.01,-10.05,-3.05,4.32,3.25,-1.72,5.82,-3.71,1047.00,1648.00,613.00,757.00,2226.00,3505.00,1008.00,1241.00,,,,,,,,,,,,0,0,0,,-880,14436,7188,-10,108,-103
8.772,8.59,0.77,-11.51,9.79,8.13,-5.49,-0.71,0.21,-2.86,1.40,501.00,2014.00,851.00,633.00,2155.00,3892.00,895.00,1525.00,,,,,,,,,,,,0,0,0,,-692,14256,7444,-16,27,-146
8.834,8.64,0.71,4.45,-1.84,-3.49,0.70,-0.43,0.96,-2.33,4.05,703.00,1463.00,752.00,849.00,2059.00,3773.00,768.00,1391.00,,,,,,,,,,,,0,0,0,,-832,14340,7400,-19,60,-228
8.875,8.70,0.76,6.53,-9.30,-2.73,2.49,1.68,-1.03,3.53,-2.33,1014.00,1646.00,673.00,785.00,2206.00,3660.00,975.00,1309.00,,,,,,,,,,,,0,0,0,,-856,14160,7276,-103,79,-215
8.956,8.75,0.74,-9.34,9.36,2.93,-1.85,0.29,-0.38,-0.33,0.22,493.00,1870.00,768.00,705.00,2185.00,3801.00,911.00,1424.00,,,,,,,,,,,,0,0,0,,-820,14280,7396,-224,134,-185
8.977,8.81,0.66,0.35,1.13,0.50,-0.96,-0.70,0.28,-1.45,1.77,645.00,1589.00,765.00,758.00,2146.00,3883.00,855.00,1428.00,,,,,,,,,,,,0,0,0,,-852,14344,7484,-156,167,-125
9.039,8.86,0.60,2.22,-2.70,-2.25,0.53,-0.61,0.41,-0.08,0.86,767.00,1635.00,742.00,812.00,2128.00,3856.00,876.00,1386.00,,,,,,,,,,,,0,0,0,,-796,14328,7252,-114,177,-15
9.101,8.91,0.66,3.24,-5.91,-2.11,2.06,1.87,-1.36,3.26,-2.22,896.00,1712.00,681.00,775.00,2238.00,3665.00,974.00,1319.00,,,,,,,,,,,,0,0,0,,-756,14252,7492,-249,118,-200
9.161,8.97,0.60,-6.95,6.16,4.89,-3.83,-0.52,0.15,-1.97,1.18,561.00,1853.00,825.00,688.00,2155.00,3870.00,891.00,1481.00,,,,,,,,,,,,0,0,0,,-780,14300,7308,-122,225,-193
9.202,9.03,0.56,4.42,-3.14,-3.86,1.19,-0.22,1.11,-1.57,3.41,755.00,1517.00,737.00,850.00,2034.00,3726.00,784.00,1373.00,,,,,,,,,,,,0,0,0,,-968,14184,7224,-42,14,-182
9.262,9.08,0.70,7.58,-11.12,-3.33,4.30,3.19,-1.87,6.28,-4.12,1098.00,1658.00,617.00,766.00,2246.00,3526.00,1022.00,1232.00,,,,,,,,,,,,0,0,0,,-856,14136,7372,-38,20,-130
9.366,9.14,0.62,-10.28,9.12,7.97,-5.68,-0.85,0.15,-2.39,0.96,508.00,1953.00,862.00,640.00,2167.00,3919.00,909.00,1515.00,,,,,,,,,,,,0,0,0,,-808,14412,7324,-134,108,-234
9.387,9.19,0.56,3.22,-1.08,-3.37,0.61,-0.46,0.81,-1.94,3.44,690.00,1505.00,754.00,847.00,2077.00,3793.00,788.00,1392.00,,,,,,,,,,,,0,0,0,,-860,14180,7420,-138,152,-161
9.429,9.25,0.62,5.96,-8.70,-2.63,2.35,1.63,-0.86,3.60,-2.07,992.00,1657.00,677.00,785.00,2188.00,3651.00,960.00,1296.00,,,,,,,,,,,,0,0,0,,-900,14356,7284,-20,114,-129
9.49,9.30,0.61,-7.83,7.79,2.93,-1.63,0.46,-0.37,0.07,0.01,522.00,1837.00,759.00,701.00,2177.00,3774.00,915.00,1410.00,,,,,,,,,,,,0,0,0,,-776,14216,7392,-3,116,-154
9.572,9.36,0.57,-0.20,0.56,1.48,-1.41,-0.14,-0.04,-0.77,0.95,672.00,1649.00,770.00,738.00,2162.00,3831.00,883.00,1421.00,,,,,,,,,,,,0,0,0,,-776,14172,7324,-54,120,-148
9.592,9.41,0.52,3.06,-3.24,-2.54,0.77,-0.37,0.46,-0.86,1.40,778.00,1605.00,736.00,816.00,2113.00,3815.00,863.00,1409.00,,,,,,,,,,,,0,0,0,,-768,14300,7372,-156,114,-137
9.653,9.47,0.58,3.27,-5.69,-2.24,2.05,1.62,-1.44,3.72,-3.01,885.00,1700.00,683.00,779.00,2258.00,3709.00,1008.00,1323.00,,,,,,,,,,,,0,0,0,,-752,14152,7372,-133,99,-173
9.693,9.52,0.47,-8.26,6.84,4.33,-3.80,-1.52,0.21,-2.36,1.03,554.00,1917.00,832.00,703.00,2187.00,4019.00,905.00,1510.00,,,,,,,,,,,,0,0,0,,-836,14192,7404,-151,158,-172
9.774,9.58,0.39,3.48,-2.88,-4.47,1.10,-1.30,0.96,-1.99,3.43,757.00,1563.00,749.00,873.00,2091.00,3904.00,789.00,1395.00,,,,,,,,,,,,0,0,0,,-864,14276,7424,-96,160,-123
9.815,9.63,0.46,6.95,-11.01,-4.15,4.30,1.88,-1.92,5.72,-4.82,1104.00,1695.00,626.00,791.00,2307.00,3719.00,1072.00,1283.00,,,,,,,,,,,,0,0,0,,-728,14360,7292,10,168,-47
9.855,9.69,0.36,-12.04,9.64,7.05,-5.52,-1.51,0.08,-2.75,1.00,510.00,2065.00,869.00,661.00,2202.00,4031.00,913.00,1535.00,,,,,,,,,,,,0,0,0,,-868,14196,7428,-178,115,-219
9.917,9.74,0.32,4.01,-1.29,-2.58,-0.02,-0.46,0.55,-1.55,2.58,688.00,1467.00,769.00,835.00,2106.00,3819.00,820.00,1403.00,,,,,,,,,,,,0,0,0,,-856,14248,7348,-145,183,-208
9.978,9.80,0.38,6.33,-9.03,-2.79,2.35,1.45,-0.78,3.24,-1.93,1003.00,1647.00,679.00,790.00,2186.00,3669.00,959.00,1310.00,,,,,,,,,,,,0,0,0,,-768,14092,7376,-72,157,-202
10.081,9.85,0.39,-6.82,6.90,2.61,-1.79,0.70,-0.58,0.22,-0.08,538.00,1808.00,770.00,713.00,2192.00,3760.00,917.00,1405.00,,,,,,,,,,,,0,0,0,,-828,14220,7352,-116,68,-156
10.101,9.91,0.37,-1.33,1.84,2.25,-1.89,-0.02,-0.12,-0.62,0.65,640.00,1666.00,779.00,725.00,2166.00,3821.00,895.00,1424.00,,,,,,,,,,,,0,0,0,,-844,14332,7460,-119,138,-183
10.164,9.96,0.35,2.99,-2.95,-2.38,0.72,-0.18,0.40,-0.02,1.08,767.00,1597.00,736.00,812.00,2112.00,3791.00,865.00,1375.00,,,,,,,,,,,,0,0,0,,-780,14168,7520,-130,158,-175
10.206,10.02,0.43,4.48,-7.31,-2.41,2.55,2.00,-1.55,3.84,-3.05,945.00,1692.00,667.00,774.00,2256.00,3665.00,1008.00,1318.00,,,,,,,,,,,,0,0,0,,-848,14356,7540,-58,192,-76
10.248,10.07,0.35,-9.25,7.68,6.52,-4.63,-1.08,0.19,-2.28,1.06,539.00,1949.00,836.00,659.00,2172.00,3952.00,902.00,1504.00,,,,,,,,,,,,0,0,0,,-748,14196,7452,-64,156,-188
10.31,10.13,0.29,3.99,-2.65,-4.22,0.94,-0.92,1.02,-2.23,3.61,741.00,1523.00,752.00,868.00,2070.00,3840.00,785.00,1402.00,,,,,,,,,,,,0,0,0,,-804,14272,7296,-38,86,-213
10.372,10.18,0.40,7.09,-10.89,-3.78,4.24,2.57,-2.05,6.58,-5.11,1094.00,1680.00,624.00,781.00,2294.00,3632.00,1072.00,1250.00,,,,,,,,,,,,0,0,0,,-792,14144,7332,-103,55,-209
10.435,10.24,0.31,-12.12,10.63,7.01,-5.29,-1.37,0.02,-2.23,0.82,484.00,2017.00,859.00,658.00,2204.00,4016.00,913.00,1511.00,,,,,,,,,,,,0,0,0,,-932,14268,7208,-94,89,-173
10.496,10.29,0.25,3.74,-1.09,-2.71,-0.19,-1.02,0.26,-1.88,2.37,684.00,1475.00,778.00,843.00,2161.00,3934.00,834.00,1429.00,,,,,,,,,,,,0,0,0,,-872,14264,7568,-176,109,-198
10.556,10.35,0.25,5.35,-8.48,-3.39,2.31,0.35,-0.65,2.72,-1.75,991.00,1687.00,688.00,810.00,2215.00,3820.00,959.00,1331.00,,,,,,,,,,,,0,0,0,,-824,14248,7464,-108,169,-78
10.577,10.40,0.23,-5.27,4.61,1.57,-1.35,-0.22,-0.62,0.30,-0.71,592.00,1808.00,766.00,734.00,2234.00,3903.00,947.00,1424.00,,,,,,,,,,,,0,0,0,,-784,14224,7408,-100,228,-54
10.638,10.46,0.17,-2.57,2.29,1.22,-1.73,-1.05,0.00,-2.10,1.02,639.00,1729.00,787.00,752.00,2193.00,3967.00,901.00,1495.00,,,,,,,,,,,,0,0,0,,-784,14208,7368,-198,50,-289
10.701,10.51,0.14,3.45,-3.54,-2.39,0.33,-0.34,0.43,-0.58,1.50,785.00,1593.00,752.00,821.00,2115.00,3813.00,854.00,1390.00,,,,,,,,,,,,0,0,0,,-788,14300,7504,-112,72,-205
10.782,10.57,0.23,4.22,-6.99,-2.22,2.51,1.97,-1.50,3.85,-3.04,933.00,1695.00,666.00,769.00,2251.00,3664.00,1007.00,1317.00,,,,,,,,,,,,0,0,0,,-776,14112,7412,-25,87,-219
10.844,10.62,0.17,-9.05,7.44,6.06,-4.45,-0.90,0.12,-2.14,1.07,544.00,1946.00,835.00,668.00,2173.00,3931.00,899.00,1495.00,,,,,,,,,,,,0,0,0,,-952,14252,7404,-82,93,-157
10.865,10.68,0.15,3.74,-2.37,-4.23,1.04,-0.40,0.60,-2.19,3.98,733.00,1526.00,748.00,866.00,2098.00,3805.00,769.00,1386.00,,,,,,,,,,,,0,0,0,,-840,14368,7420,-84,150,-159
10.906,10.73,0.28,7.48,-11.36,-3.83,4.25,2.77,-2.01,6.49,-4.92,1114.00,1675.00,624.00,782.00,2281.00,3600.00,1063.00,1248.00,,,,,,,,,,,,0,0,0,,-756,14176,7472,-127,155,-193
10.967,10.79,0.22,-11.44,9.95,6.81,-5.05,-0.81,-0.05,-2.10,0.82,496.00,2000.00,851.00,659.00,2190.00,3935.00,911.00,1503.00,,,,,,,,,,,,0,0,0,,-880,14284,7496,-71,178,-63
11.029,10.84,0.18,4.01,-1.37,-2.25,-0.11,-0.53,0.47,-1.54,2.19,691.00,1470.00,768.00,826.00,2118.00,3838.00,837.00,1417.00,,,,,,,,,,,,0,0,0,,-768,14228,7344,-59,70,-226
11.091,10.90,0.22,5.62,-8.35,-2.65,2.19,0.92,-0.60,2.94,-1.75,979.00,1663.00,683.00,789.00,2185.00,3728.00,955.00,1319.00,,,,,,,,,,,,0,0,0,,-860,14136,7324,-17,102,-233
11.172,10.95,0.24,-3.32,2.72,1.47,-1.09,0.68,-0.82,1.27,-0.93,633.00,1761.00,757.00,732.00,2222.00,3787.00,942.00,1379.00,,,,,,,,,,,,0,0,0,,-888,14288,7476,-78,147,-139
11.192,11.01,0.19,-2.63,2.43,2.25,-1.93,-0.91,0.04,-1.22,0.79,635.00,1727.00,781.00,726.00,2183.00,3941.00,898.00,1453.00,,,,,,,,,,,,0,0,0,,-868,14092,7400,-129,208,-103
11.233,11.06,0.12,3.88,-3.66,-3.06,0.78,-1.07,0.64,-0.73,1.64,784.00,1571.00,743.00,833.00,2119.00,3903.00,850.00,1393.00,,,,,,,,,,,,0,0,0,,-848,14200,7324,-111,157,-141
11.295,11.12,0.18,4.44,-7.66,-2.77,2.50,1.17,-1.44,3.59,-2.98,964.00,1711.00,673.00,786.00,2277.00,3776.00,1009.00,1329.00,,,,,,,,,,,,0,0,0,,-824,14364,7196,-66,93,-114
11.357,11.17,0.07,-10.16,8.19,5.69,-4.63,-1.96,0.16,-2.76,1.08,533.00,1993.00,849.00,681.00,2211.00,4095.00,909.00,1532.00,,,,,,,,,,,,0,0,0,,-756,14252,7320,-14,181,-44
11.419,11.23,-0.01,3.46,-2.67,-4.64,1.01,-1.45,1.19,-2.27,3.67,749.00,1556.00,755.00,881.00,2071.00,3903.00,783.00,1402.00,,,,,,,,,,,,0,0,0,,-752,14228,7452,-215,60,-336
11.562,11.28,0.13,6.94,-10.67,-3.91,4.28,2.63,-2.00,6.21,-4.90,1084.00,1680.00,624.00,784.00,2285.00,3618.00,1067.00,1261.00,,,,,,,,,,,,0,0,0,,-1008,14216,7404,-131,121,-179
11.584,11.34,0.09,-12.40,11.54,5.82,-4.44,-0.54,-0.14,-1.68,0.56,463.00,1990.00,838.00,674.00,2189.00,3902.00,917.00,1489.00,,,,,,,,,,,,0,0,0,,-980,14020,7384,2,110,-162
11.603,11.39,0.07,3.96,-1.27,-1.64,-0.55,-0.44,0.47,-1.38,2.25,688.00,1469.00,778.00,816.00,2115.00,3825.00,832.00,1406.00,,,,,,,,,,,,0,0,0,,-796,14256,7464,-69,95,-139
11.624,11.45,0.11,5.83,-8.15,-3.16,2.47,0.97,-0.51,2.78,-1.48,965.00,1641.00,679.00,799.00,2173.00,3713.00,944.00,1318.00,,,,,,,,,,,,0,0,0,,-892,14256,7340,-140,131,-177
11.686,11.50,0.15,-1.49,0.69,0.19,0.08,0.83,-0.75,1.29,-0.78,683.00,1729.00,727.00,746.00,2207.00,3757.00,934.00,1372.00,,,,,,,,,,,,0,0,0,,-932,14248,7488,-181,180,-202
11.748,11.56,0.11,-3.75,3.76,2.53,-2.10,-0.54,-0.00,-0.94,0.73,603.00,1742.00,784.00,721.00,2173.00,3888.00,896.00,1439.00,,,,,,,,,,,,0,0,0,,-768,14352,7496,-112,95,-127
11.809,11.61,0.08,3.93,-3.44,-3.26,0.67,-0.46,0.51,-0.69,1.73,774.00,1559.00,750.00,842.00,2111.00,3823.00,845.00,1387.00,,,,,,,,,,,,0,0,0,,-736,14320,7408,-63,77,-199
11.911,11.66,0.18,4.96,-8.12,-2.92,2.97,1.92,-1.58,4.14,-3.15,979.00,1697.00,658.00,781.00,2263.00,3680.00,1008.00,1306.00,,,,,,,,,,,,0,0,0,,-856,14168,7292,-47,69,-225
11.932,11.72,0.09,-10.73,9.16,6.68,-4.75,-1.48,0.16,-2.45,0.91,511.00,1986.00,839.00,657.00,2191.00,4018.00,912.00,1520.00,,,,,,,,,,,,0,0,0,,-712,14196,7496,-85,-27,-221
11.974,11.78,0.02,3.68,-2.50,-4.50,0.89,-1.42,1.20,-2.41,3.74,739.00,1535.00,758.00,879.00,2069.00,3898.00,782.00,1407.00,,,,,,,,,,,,0,0,0,,-756,14184,7408,-45,80,-214
12.035,11.83,0.11,7.37,-11.24,-4.12,4.35,1.78,-1.75,5.70,-4.60,1109.00,1677.00,624.00,789.00,2290.00,3717.00,1060.00,1277.00,,,,,,,,,,,,0,0,0,,-836,14260,7472,-178,167,-240
12.075,11.89,0.03,-13.19,12.79,4.59,-3.87,-1.34,-0.13,-1.80,0.34,439.00,1986.00,831.00,697.00,2221.00,4028.00,930.00,1505.00,,,,,,,,,,,,0,0,0,,-928,14232,7272,-141,184,-117
12.116,11.94,-0.06,3.71,-1.38,-2.17,-0.23,-1.81,0.85,-1.91,2.30,695.00,1488.00,772.00,826.00,2123.00,3995.00,838.00,1434.00,,,,,,,,,,,,0,0,0,,-832,14292,7348,-65,163,-46
12.178,12.00,-0.04,4.79,-7.76,-3.43,2.32,0.29,-0.47,2.22,-1.35,963.00,1692.00,688.00,811.00,2195.00,3809.00,947.00,1343.00,,,,,,,,,,,,0,0,0,,-780,14204,7588,-203,122,-197
12.281,12.05,0.02,0.16,-1.24,-0.89,0.55,1.10,-0.86,1.24,-0.85,736.00,1706.00,723.00,769.00,2210.00,3729.00,938.00,1377.00,,,,,,,,,,,,0,0,0,,-864,14180,7392,-91,150,-158
12.302,12.11,-0.01,-4.33,3.86,2.60,-2.15,-0.51,0.02,-1.19,0.80,606.00,1777.00,785.00,720.00,2170.00,3882.00,897.00,1451.00,,,,,,,,,,,,0,0,0,,-856,13988,7392,49,171,-167
12.342,12.16,-0.02,3.65,-3.10,-4.07,1.11,-0.26,0.53,-0.87,1.92,764.00,1562.00,743.00,859.00,2101.00,3791.00,839.00,1390.00,,,,,,,,,,,,0,0,0,,-800,14176,7476,-75,149,-149
12.404,12.22,0.09,5.04,-8.28,-2.97,3.04,2.30,-1.66,4.72,-3.40,986.00,1699.00,656.00,781.00,2257.00,3632.00,1011.00,1285.00,,,,,,,,,,,,0,0,0,,-944,14372,7280,-136,142,-186
12.444,12.27,0.04,-9.29,7.18,6.32,-4.67,-1.05,0.05,-2.43,1.13,554.00,1978.00,841.00,665.00,2187.00,3962.00,901.00,1510.00,,,,,,,,,,,,0,0,0,,-988,14256,7376,-178,129,-134
12.507,12.33,-0.01,3.81,-2.57,-4.85,1.15,-0.83,1.11,-2.37,3.89,740.00,1530.00,752.00,885.00,2057.00,3817.00,775.00,1399.00,,,,,,,,,,,,0,0,0,,-980,14340,7452,-116,104,-172
12.568,12.38,0.10,7.93,-11.46,-4.31,4.78,2.10,-1.68,5.61,-4.42,1111.00,1650.00,612.00,786.00,2268.00,3664.00,1051.00,1275.00,,,,,,,,,,,,0,0,0,,-912,14104,7560,-62,134,-178
12.651,12.44,0.06,-11.82,11.43,4.04,-3.28,-0.60,-0.22,-1.18,0.07,461.00,1951.00,813.00,701.00,2201.00,3920.00,933.00,1479.00,,,,,,,,,,,,0,0,0,,-896,14220,7376,-82,158,-142
12.672,12.49,0.02,4.13,-1.62,-1.69,-0.30,-0.79,0.50,-1.61,2.35,699.00,1473.00,768.00,812.00,2125.00,3875.00,831.00,1415.00,,,,,,,,,,,,0,0,0,,-948,14128,7296,-172,196,-82
12.754,12.55,0.03,4.82,-7.07,-3.43,2.32,0.27,-0.35,1.93,-1.25,927.00,1659.00,688.00,811.00,2182.00,3801.00,947.00,1355.00,,,,,,,,,,,,0,0,0,,-988,14188,7440,-237,269,-43
12.795,12.60,0.06,0.39,-1.72,-1.71,1.08,0.63,-0.81,1.35,-0.92,752.00,1712.00,713.00,783.00,2223.00,3794.00,940.00,1374.00,,,,,,,,,,,,0,0,0,,-812,14164,7536,-192,171,-117
12.857,12.66,-0.02,-5.15,4.23,2.49,-2.34,-1.55,0.19,-1.73,1.00,603.00,1818.00,795.00,727.00,2191.00,4026.00,896.00,1474.00,,,,,,,,,,,,0,0,0,,-888,13964,7516,-22,155,-121
12.899,12.71,-0.07,4.68,-3.98,-4.74,1.29,-1.11,0.66,-0.94,1.60,786.00,1535.00,745.00,878.00,2118.00,3906.00,855.00,1406.00,,,,,,,,,,,,0,0,0,,-796,14320,7412,-107,132,-131
13.001,12.77,0.04,5.00,-8.51,-3.25,3.31,2.22,-1.71,4.70,-3.58,999.00,1712.00,650.00,784.00,2267.00,3649.00,1021.00,1292.00,,,,,,,,,,,,0,0,0,,-848,14264,7540,-24,256,-168
13.022,12.82,-0.01,-11.59,10.00,6.44,-4.51,-1.07,0.17,-2.66,1.25,496.00,2009.00,832.00,659.00,2174.00,3952.00,899.00,1519.00,,,,,,,,,,,,0,0,0,,-936,14196,7272,24,146,-213
13.063,12.88,-0.05,4.02,-2.21,-5.24,1.31,-0.81,1.19,-2.71,4.15,723.00,1503.00,751.00,895.00,2047.00,3806.00,769.00,1408.00,,,,,,,,,,,,0,0,0,,-884,14184,7436,-76,15,-140
13.143,12.93,0.06,8.14,-11.79,-4.08,4.49,2.13,-1.50,5.07,-3.73,1127.00,1651.00,619.00,785.00,2245.00,3642.00,1023.00,1279.00,,,,,,,,,,,,0,0,0,,-844,14304,7484,-55,97,-207
13.164,12.99,0.05,-12.98,13.41,3.80,-3.29,-0.06,-0.45,-0.98,-0.08,423.00,1937.00,817.00,708.00,2207.00,3861.00,937.00,1473.00,,,,,,,,,,,,0,0,0,,-852,14036,7468,-35,133,-186
13.225,13.04,0.01,3.83,-1.15,-1.19,-0.30,-0.70,0.58,-1.49,2.35,685.00,1472.00,761.00,796.00,2112.00,3852.00,829.00,1408.00,,,,,,,,,,,,0,0,0,,-824,14236,7476,7,95,-166
13.286,13.10,0.02,4.50,-6.15,-3.39,2.31,0.16,-0.04,1.08,-0.57,887.00,1639.00,688.00,810.00,2150.00,3786.00,927.00,1376.00,,,,,,,,,,,,0,0,0,,-972,14292,7464,81,49,-161
13.409,13.15,0.07,1.28,-3.02,-0.56,1.19,0.95,-0.80,1.66,-1.09,794.00,1712.00,694.00,746.00,2208.00,3745.00,943.00,1363.00,,,,,,,,,,,,0,0,0,,-820,14232,7200,63,139,-137
13.43,13.21,0.00,-5.38,4.64,3.30,-2.66,-1.23,0.16,-1.96,1.03,592.00,1814.00,797.00,710.00,2182.00,3979.00,898.00,1486.00,,,,,,,,,,,,0,0,0,,-916,14260,7384,17,133,-156
13.449,13.26,-0.05,3.68,-3.45,-4.10,0.90,-0.99,0.80,-1.25,2.01,778.00,1575.00,752.00,865.00,2098.00,3874.00,841.00,1408.00,,,,,,,,,,,,0,0,0,,-740,14140,7324,-110,126,-161
13.49,13.32,0.04,4.46,-8.01,-3.85,3.91,1.65,-1.60,4.46,-3.53,982.00,1726.00,636.00,790.00,2277.00,3721.00,1023.00,1303.00,,,,,,,,,,,,0,0,0,,-808,14200,7552,-122,188,-137
13.552,13.37,-0.07,-10.75,8.60,6.07,-4.70,-2.09,0.35,-3.23,1.22,527.00,2018.00,846.00,672.00,2193.00,4095.00,910.00,1555.00,,,,,,,,,,,,0,0,0,,-828,14136,7288,-21,115,-193
13.615,13.43,-0.17,3.31,-1.94,-5.71,1.30,-2.02,1.29,-3.23,4.35,722.00,1535.00,758.00,912.00,2081.00,3981.00,768.00,1430.00,,,,,,,,,,,,0,0,0,,-924,14340,7380,-83,78,-114
13.676,13.48,-0.09,7.05,-10.73,-4.66,4.13,1.44,-1.35,4.37,-3.48,1085.00,1675.00,638.00,811.00,2255.00,3727.00,1022.00,1306.00,,,,,,,,,,,,0,0,0,,-816,14184,7608,-172,135,-188
13.758,13.54,-0.10,-11.62,11.44,2.76,-2.43,-0.30,-0.26,-1.02,0.05,459.00,1935.00,795.00,721.00,2194.00,3878.00,931.00,1470.00,,,,,,,,,,,,0,0,0,,-840,14176,7352,-51,221,-220
13.778,13.59,-0.13,3.19,-0.69,-1.23,-0.43,-0.76,0.52,-1.74,2.31,676.00,1491.00,767.00,800.00,2121.00,3867.00,835.00,1424.00,,,,,,,,,,,,0,0,0,,-812,14192,7376,-48,39,-183
13.82,13.65,-0.13,3.91,-5.16,-3.11,1.84,-0.18,0.08,0.24,0.07,850.00,1634.00,702.00,811.00,2149.00,3824.00,909.00,1398.00,,,,,,,,,,,,0,0,0,,-972,14208,7220,-101,24,-109
13.882,13.70,-0.08,1.62,-3.64,-2.26,1.84,0.98,-0.92,1.85,-1.30,816.00,1717.00,691.00,784.00,2221.00,3752.00,951.00,1361.00,,,,,,,,,,,,0,0,0,,-784,14188,7352,-114,95,-236
13.943,13.76,-0.14,-6.94,6.03,3.07,-2.59,-1.39,0.18,-2.30,0.84,565.00,1859.00,797.00,715.00,2185.00,4001.00,913.00,1514.00,,,,,,,,,,,,0,0,0,,-960,14188,7432,-138,163,-134
14.005,13.81,-0.18,4.46,-3.64,-4.95,1.51,-0.95,0.80,-1.70,2.54,775.00,1535.00,739.00,880.00,2096.00,3867.00,824.00,1413.00,,,,,,,,,,,,0,0,0,,-788,14264,7364,-84,131,-146
14.108,13.87,-0.08,5.22,-8.88,-3.87,3.80,1.97,-1.70,4.48,-3.54,1015.00,1714.00,640.00,793.00,2276.00,3684.00,1023.00,1302.00,,,,,,,,,,,,0,0,0,,-808,14280,7460,-30,111,-178
14.129,13.92,-0.17,-11.54,8.83,6.36,-4.73,-2.07,0.32,-3.76,1.44,528.00,2069.00,843.00,665.00,2196.00,4095.00,908.00,1579.00,,,,,,,,,,,,0,0,0,,-920,14092,7364,-27,107,-169
14.149,13.98,-0.25,3.36,-1.65,-5.29,1.18,-1.70,1.21,-1.78,3.34,710.00,1520.00,757.00,900.00,2079.00,3941.00,790.00,1387.00,,,,,,,,,,,,0,0,0,,-768,14152,7388,-80,157,-156
14.21,14.03,-0.21,6.75,-10.67,-4.68,3.93,0.62,-1.10,3.03,-3.01,1088.00,1693.00,645.00,816.00,2258.00,3824.00,1021.00,1360.00,,,,,,,,,,,,0,0,0,,-980,14228,7404,-153,97,-199
14.273,14.09,-0.25,-11.92,11.54,2.14,-2.13,-1.09,-0.25,-1.36,0.11,459.00,1953.00,791.00,733.00,2224.00,3999.00,934.00,1488.00,,,,,,,,,,,,0,0,0,,-880,14312,7428,-144,152,-107
14.315,14.14,-0.33,2.08,-0.67,-1.73,-0.28,-1.88,0.57,-2.29,2.20,689.00,1557.00,768.00,813.00,2159.00,4037.00,848.00,1459.00,,,,,,,,,,,,0,0,0,,-792,14120,7288,-63,169,-86
14.377,14.20,-0.36,2.36,-4.24,-3.42,1.35,-0.96,0.17,-0.44,0.46,832.00,1695.00,725.00,832.00,2169.00,3934.00,901.00,1421.00,,,,,,,,,,,,0,0,0,,-796,14200,7460,-224,60,-270
14.477,14.25,-0.30,1.73,-4.03,-2.25,1.79,0.91,-0.90,1.69,-1.48,832.00,1728.00,693.00,785.00,2222.00,3761.00,963.00,1376.00,,,,,,,,,,,,0,0,0,,-984,14196,7408,-85,115,-229
14.497,14.31,-0.36,-6.85,5.68,3.97,-3.28,-1.49,0.34,-2.72,1.31,575.00,1870.00,814.00,703.00,2171.00,4001.00,897.00,1520.00,,,,,,,,,,,,0,0,0,,-1024,14192,7432,99,124,-199
14.559,14.36,-0.38,3.20,-2.95,-4.54,1.12,-0.84,0.85,-1.70,2.69,764.00,1584.00,749.00,875.00,2087.00,3846.00,817.00,1407.00,,,,,,,,,,,,0,0,0,,-884,14248,7256,42,136,-169
14.601,14.41,-0.25,5.41,-8.82,-3.58,3.79,2.20,-1.67,4.64,-3.86,1008.00,1698.00,637.00,784.00,2263.00,3648.00,1038.00,1305.00,,,,,,,,,,,,0,0,0,,-800,14276,7196,-79,142,-155
14.685,14.47,-0.33,-11.68,9.02,6.78,-4.96,-1.74,0.27,-3.71,1.36,524.00,2070.00,847.00,658.00,2189.00,4048.00,911.00,1579.00,,,,,,,,,,,,0,0,0,,-976,14256,7340,-197,100,-252
14.706,14.53,-0.39,3.67,-2.04,-4.95,0.97,-1.46,1.21,-2.85,3.84,721.00,1517.00,761.00,893.00,2069.00,3903.00,784.00,1428.00,,,,,,,,,,,,0,0,0,,-956,14224,7356,-125,97,-119
14.767,14.58,-0.31,6.24,-9.63,-4.70,4.05,1.03,-1.06,3.17,-2.95,1038.00,1680.00,641.00,814.00,2237.00,3760.00,1015.00,1350.00,,,,,,,,,,,,0,0,0,,-1036,14212,7444,-80,41,-111
14.85,14.64,-0.32,-11.89,11.81,2.40,-2.01,-0.47,-0.36,-1.12,0.11,452.00,1936.00,782.00,723.00,2213.00,3915.00,930.00,1474.00,,,,,,,,,,,,0,0,0,,-992,14132,7548,-62,94,-223
14.871,14.69,-0.37,1.75,0.35,-1.16,-0.43,-1.34,0.57,-2.22,2.18,656.00,1535.00,766.00,798.00,2138.00,3952.00,848.00,1456.00,,,,,,,,,,,,0,0,0,,-936,14208,7316,-127,178,-138
14.933,14.75,-0.39,2.49,-3.49,-2.57,0.69,-0.75,0.31,-0.10,0.49,797.00,1653.00,740.00,819.00,2145.00,3888.00,894.00,1401.00,,,,,,,,,,,,0,0,0,,-984,14272,7388,-77,55,-221
14.975,14.80,-0.32,1.91,-4.38,-2.30,1.91,1.10,-1.04,2.57,-1.70,845.00,1732.00,689.00,784.00,2231.00,3746.00,959.00,1337.00,,,,,,,,,,,,0,0,0,,-1036,14076,7504,-143,98,-118
15.058,14.86,-0.39,-8.32,7.16,4.02,-3.72,-1.71,0.31,-2.81,1.18,545.00,1905.00,833.00,710.00,2183.00,4038.00,905.00,1531.00,,,,,,,,,,,,0,0,0,,-928,14320,7428,-14,196,-88
15.1,14.91,-0.44,3.15,-2.86,-3.96,-0.08,-1.50,0.99,-2.29,2.98,761.00,1583.00,791.00,883.00,2096.00,3933.00,813.00,1429.00,,,,,,,,,,,,0,0,0,,-828,14116,7364,-54,166,-208
15.202,14.97,-0.34,6.11,-10.17,-4.50,4.07,1.59,-1.65,4.68,-3.91,1071.00,1713.00,638.00,807.00,2285.00,3735.00,1040.00,1305.00,,,,,,,,,,,,0,0,0,,-924,14172,7260,-91,169,-111
15.222,15.02,-0.42,-11.58,8.43,6.19,-5.14,-1.96,0.16,-3.93,1.07,540.00,2095.00,865.00,677.00,2211.00,4095.00,929.00,1605.00,,,,,,,,,,,,0,0,0,,-780,14276,7324,-94,84,-167
15.264,15.08,-0.51,3.03,-2.33,-4.81,0.63,-2.19,1.22,-3.59,3.93,741.00,1568.00,773.00,896.00,2096.00,4016.00,791.00,1467.00,,,,,,,,,,,,0,0,0,,-960,14268,7400,-63,125,-211
15.325,15.13,-0.48,5.57,-9.36,-4.56,3.02,0.02,-0.87,2.46,-2.69,1035.00,1712.00,676.00,832.00,2255.00,3893.00,1014.00,1379.00,,,,,,,,,,,,0,0,0,,-936,14112,7276,-100,110,-199
15.367,15.19,-0.53,-11.44,10.94,1.57,-1.80,-1.47,-0.12,-1.61,0.06,470.00,1947.00,785.00,743.00,2224.00,4046.00,941.00,1505.00,,,,,,,,,,,,0,0,0,,-884,14132,7308,-127,149,-139
15.43,15.24,-0.61,0.82,0.14,-1.64,-0.65,-2.17,0.47,-2.62,1.84,675.00,1602.00,782.00,818.00,2182.00,4095.00,870.00,1493.00,,,,,,,,,,,,0,0,0,,-852,14308,7392,-118,131,-158
15.471,15.30,-0.70,0.91,-2.75,-3.64,0.53,-2.23,0.56,-1.29,0.81,788.00,1725.00,761.00,858.00,2174.00,4095.00,898.00,1456.00,,,,,,,,,,,,0,0,0,,-856,14136,7452,-137,137,-177
15.574,15.35,-0.69,1.16,-4.21,-3.37,1.90,-0.64,-0.82,1.17,-1.67,849.00,1776.00,703.00,818.00,2276.00,3990.00,982.00,1412.00,,,,,,,,,,,,0,0,0,,-924,14288,7504,-127,154,-182
15.595,15.41,-0.75,-7.41,5.48,2.97,-3.76,-1.80,-0.08,-3.55,1.02,587.00,1922.00,851.00,741.00,2233.00,4095.00,925.00,1583.00,,,,,,,,,,,,0,0,0,,-832,14152,7500,-137,95,-190
15.636,15.46,-0.84,2.07,-2.74,-5.93,1.06,-2.55,1.03,-3.05,2.94,771.00,1647.00,771.00,926.00,2132.00,4095.00,826.00,1474.00,,,,,,,,,,,,0,0,0,,-920,14136,7524,-79,57,-184
15.718,15.52,-0.82,3.88,-8.35,-5.36,3.99,-0.40,-1.39,3.79,-3.98,1011.00,1782.00,651.00,837.00,2337.00,4013.00,1061.00,1354.00,,,,,,,,,,,,0,0,0,,-864,14288,7464,-53,92,-172
15.76,15.57,-0.85,-11.87,9.87,5.05,-5.39,-1.55,-0.44,-4.62,1.11,502.00,2038.00,895.00,713.00,2267.00,4095.00,939.00,1648.00,,,,,,,,,,,,0,0,0,,-868,14180,7388,-125,134,-167
15.822,15.63,-0.92,1.58,-1.34,-5.51,0.40,-2.29,0.65,-4.02,3.45,721.00,1617.00,793.00,927.00,2166.00,4095.00,818.00,1511.00,,,,,,,,,,,,0,0,0,,-828,14108,7364,-91,90,-119
15.882,15.68,-0.94,4.67,-9.25,-5.33,2.25,-1.22,-0.93,1.04,-2.23,1046.00,1769.00,715.00,876.00,2314.00,4095.00,1015.00,1441.00,,,,,,,,,,,,0,0,0,,-768,13996,7308,16,134,-20
15.963,15.74,-0.96,-10.02,8.25,0.46,-2.12,-1.41,-0.65,-1.89,-0.12,530.00,1979.00,815.00,783.00,2287.00,4095.00,955.00,1529.00,,,,,,,,,,,,0,0,0,,-876,14160,7312,-178,77,-355
15.984,15.79,-1.01,-0.55,0.51,-1.59,-0.90,-1.99,0.20,-2.34,1.23,678.00,1674.00,792.00,822.00,2207.00,4095.00,895.00,1501.00,,,,,,,,,,,,0,0,0,,-952,14236,7704,-104,158,-167
16.025,15.85,-1.08,1.77,-3.44,-3.61,0.40,-2.25,0.59,-1.24,0.83,805.00,1698.00,766.00,860.00,2171.00,4095.00,896.00,1452.00,,,,,,,,,,,,0,0,0,,-996,14056,7408,37,129,-170
16.088,15.90,-1.04,2.02,-5.23,-3.38,1.88,-0.30,-0.95,1.32,-1.93,883.00,1764.00,704.00,819.00,2278.00,3951.00,993.00,1413.00,,,,,,,,,,,,0,0,0,,-896,14176,7556,69,194,-24
16.149,15.96,-1.07,-8.29,6.42,3.06,-3.75,-1.78,-0.11,-3.62,1.11,567.00,1941.00,849.00,738.00,2236.00,4095.00,922.00,1584.00,,,,,,,,,,,,0,0,0,,-944,14248,7384,2,251,-98
16.191,16.01,-1.15,2.79,-3.01,-5.53,0.99,-2.65,1.17,-2.89,2.89,772.00,1612.00,768.00,913.00,2119.00,4095.00,826.00,1467.00,,,,,,,,,,,,0,0,0,,-872,14184,7176,-132,173,-197
16.253,16.07,-1.05,4.71,-9.17,-5.37,4.31,0.83,-1.58,4.49,-4.28,1041.00,1763.00,640.00,830.00,2308.00,3841.00,1065.00,1328.00,,,,,,,,,,,,0,0,0,,-792,14128,7272,-136,110,-81
16.314,16.12,-1.09,-13.20,10.96,5.73,-5.39,-1.81,-0.06,-4.04,1.01,485.00,2087.00,884.00,694.00,2231.00,4095.00,934.00,1615.00,,,,,,,,,,,,0,0,0,,-904,14240,7288,-131,59,-189
16.377,16.17,-1.17,3.08,-1.61,-4.86,0.41,-2.58,1.07,-3.55,3.34,712.00,1535.00,783.00,903.00,2128.00,4095.00,816.00,1488.00,,,,,,,,,,,,0,0,0,,-936,14192,7492,-107,84,-237
16.438,16.23,-1.14,4.84,-8.64,-5.08,2.61,-0.74,-0.76,1.64,-2.11,1009.00,1729.00,698.00,859.00,2273.00,4000.00,997.00,1402.00,,,,,,,,,,,,0,0,0,,-1008,14140,7384,-48,95,-161
16.459,16.28,-1.17,-9.74,8.83,1.13,-1.65,-1.63,-0.33,-2.17,0.46,511.00,1927.00,785.00,753.00,2256.00,4095.00,930.00,1522.00,,,,,,,,,,,,0,0,0,,-924,14168,7352,-33,166,-147
16.521,16.34,-1.20,-0.96,0.65,-0.83,-1.06,-1.88,0.05,-2.42,0.94,678.00,1695.00,788.00,801.00,2221.00,4095.00,910.00,1517.00,,,,,,,,,,,,0,0,0,,-912,14216,7420,-123,150,-131
16.603,16.39,-1.25,1.09,-3.05,-3.36,0.24,-2.11,0.37,-1.88,1.16,798.00,1726.00,769.00,855.00,2191.00,4095.00,891.00,1477.00,,,,,,,,,,,,0,0,0,,-744,14196,7336,-96,134,-91
16.686,16.45,-1.23,2.27,-5.58,-3.68,2.14,-0.79,-1.13,1.40,-2.41,896.00,1763.00,698.00,823.00,2321.00,4048.00,1018.00,1427.00,,,,,,,,,,,,0,0,0,,-924,14136,7488,-66,130,-164
16.706,16.50,-1.25,-9.01,6.47,3.34,-3.95,-1.65,-0.29,-3.83,1.16,573.00,1994.00,854.00,734.00,2253.00,4095.00,923.00,1595.00,,,,,,,,,,,,0,0,0,,-956,14184,7420,-166,3,-322
16.747,16.56,-1.30,2.79,-3.15,-5.55,1.02,-2.30,1.06,-2.96,3.12,778.00,1618.00,767.00,913.00,2118.00,4051.00,817.00,1462.00,,,,,,,,,,,,0,0,0,,-880,14272,7464,-26,96,-180
16.808,16.61,-1.18,5.46,-9.88,-5.13,4.63,1.21,-1.59,4.72,-4.48,1067.00,1744.00,626.00,815.00,2294.00,3786.00,1072.00,1323.00,,,,,,,,,,,,0,0,0,,-780,14148,7408,27,83,-208
16.87,16.67,-1.21,-12.14,10.19,6.43,-5.50,-1.86,0.00,-3.37,0.63,496.00,2043.00,878.00,677.00,2225.00,4095.00,942.00,1589.00,,,,,,,,,,,,0,0,0,,-904,14124,7484,-9,60,-6
16.931,16.73,-1.22,3.32,-1.74,-4.03,0.11,-1.43,0.71,-3.24,3.08,714.00,1526.00,784.00,881.00,2125.00,3951.00,823.00,1480.00,,,,,,,,,,,,0,0,0,,-932,14316,7452,-73,175,-61
16.973,16.78,-1.16,4.58,-7.65,-4.25,2.57,0.03,-0.74,2.05,-2.17,961.00,1701.00,689.00,832.00,2239.00,3878.00,993.00,1382.00,,,,,,,,,,,,0,0,0,,-848,14300,7344,-127,222,-236
17.057,16.83,-1.14,-8.10,7.09,1.09,-1.18,-0.88,-0.41,-1.02,-0.32,545.00,1892.00,766.00,745.00,2235.00,3984.00,950.00,1485.00,,,,,,,,,,,,0,0,0,,-860,14220,7320,-93,116,-102
17.077,16.89,-1.17,-0.50,0.31,0.65,-1.63,-1.69,0.17,-1.75,0.68,685.00,1680.00,791.00,767.00,2199.00,4051.00,912.00,1488.00,,,,,,,,,,,,0,0,0,,-868,14372,7396,-40,-43,-224
17.118,16.94,-1.19,1.67,-2.89,-3.19,0.52,-1.53,0.56,-1.46,1.24,783.00,1680.00,755.00,843.00,2147.00,3984.00,880.00,1449.00,,,,,,,,,,,,0,0,0,,-824,14272,7348,7,61,-234
17.181,17.00,-1.11,2.41,-5.40,-3.61,2.30,0.50,-1.29,2.41,-2.84,885.00,1745.00,691.00,817.00,2287.00,3863.00,1023.00,1387.00,,,,,,,,,,,,0,0,0,,-1040,14164,7236,-47,144,-164
17.242,17.05,-1.14,-9.48,7.45,4.21,-4.00,-1.87,0.03,-3.38,0.97,548.00,1979.00,843.00,710.00,2223.00,4095.00,925.00,1575.00,,,,,,,,,,,,0,0,0,,-952,14272,7240,-96,157,-153
17.283,17.11,-1.21,2.53,-2.51,-5.28,1.08,-2.46,1.17,-3.00,3.15,755.00,1607.00,761.00,902.00,2112.00,4065.00,816.00,1463.00,,,,,,,,,,,,0,0,0,,-932,14300,7328,-175,189,-117
17.345,17.16,-1.10,5.89,-10.54,-5.20,4.60,0.89,-1.71,4.66,-4.53,1097.00,1745.00,628.00,818.00,2323.00,3847.00,1076.00,1328.00,,,,,,,,,,,,0,0,0,,-876,14264,7432,-137,160,-42
17.426,17.22,-1.14,-12.64,10.10,5.64,-5.26,-1.80,-0.08,-3.94,0.88,503.00,2089.00,879.00,694.00,2233.00,4095.00,939.00,1614.00,,,,,,,,,,,,0,0,0,,-804,14012,7328,-14,110,-106
17.467,17.27,-1.20,2.85,-1.27,-4.05,0.19,-2.42,0.84,-3.06,2.46,702.00,1535.00,781.00,880.00,2149.00,4095.00,848.00,1494.00,,,,,,,,,,,,0,0,0,,-920,14248,7504,-170,44,-303
17.508,17.33,-1.13,4.64,-8.09,-3.65,2.31,0.24,-0.65,2.25,-1.92,983.00,1717.00,691.00,818.00,2219.00,3836.00,976.00,1362.00,,,,,,,,,,,,0,0,0,,-988,14220,7444,-100,66,-253
17.569,17.39,-1.10,-7.17,6.47,1.38,-1.02,-0.48,-0.28,-0.85,-0.24,554.00,1854.00,755.00,733.00,2203.00,3907.00,943.00,1472.00,,,,,,,,,,,,0,0,0,,-880,13996,7276,-16,81,-184
17.61,17.44,-1.10,-1.72,1.86,1.49,-1.68,-1.09,0.15,-1.36,0.59,644.00,1691.00,781.00,743.00,2177.00,3957.00,910.00,1469.00,,,,,,,,,,,,0,0,0,,-968,14188,7468,-85,136,-98
17.671,17.50,-1.09,2.59,-2.94,-2.92,0.88,-1.02,0.66,-1.23,1.27,772.00,1622.00,737.00,826.00,2115.00,3893.00,875.00,1435.00,,,,,,,,,,,,0,0,0,,-916,14188,7248,-167,202,-146
17.733,17.55,-0.98,1.99,-5.75,-2.51,2.36,1.16,-1.27,2.99,-3.02,909.00,1791.00,675.00,781.00,2256.00,3760.00,1022.00,1362.00,,,,,,,,,,,,0,0,0,,-804,14096,7264,-304,154,-151
17.774,17.60,-1.02,-10.06,8.26,5.10,-3.97,-1.77,0.34,-2.86,1.15,530.00,1981.00,828.00,685.00,2182.00,4045.00,907.00,1535.00,,,,,,,,,,,,0,0,0,,-740,14364,7328,-195,49,-115
17.835,17.66,-1.04,3.35,-2.69,-4.63,1.13,-1.49,1.27,-2.82,3.76,751.00,1563.00,750.00,878.00,2064.00,3902.00,787.00,1429.00,,,,,,,,,,,,0,0,0,,-828,14284,7432,-116,80,-186
17.896,17.71,-0.89,6.38,-10.55,-4.22,4.59,2.04,-1.86,5.65,-4.96,1088.00,1712.00,617.00,787.00,2293.00,3690.00,1082.00,1292.00,,,,,,,,,,,,0,0,0,,-960,14208,7332,-46,156,-227
17.956,17.77,-0.94,-12.93,11.02,6.46,-4.94,-1.88,0.25,-3.06,0.66,481.00,2061.00,851.00,666.00,2196.00,4071.00,935.00,1568.00,,,,,,,,,,,,0,0,0,,-792,14256,7420,-46,86,-186
18.018,17.82,-0.98,3.61,-1.66,-3.54,0.59,-1.77,0.84,-2.50,2.52,707.00,1505.00,757.00,853.00,2123.00,3990.00,837.00,1459.00,,,,,,,,,,,,0,0,0,,-828,14212,7304,-78,40,-167
18.079,17.88,-0.92,4.52,-8.12,-3.59,2.45,0.28,-0.58,2.24,-1.82,987.00,1727.00,685.00,813.00,2209.00,3823.00,971.00,1359.00,,,,,,,,,,,,0,0,0,,-780,14092,7368,-120,29,-218
18.163,17.93,-0.89,-6.95,6.16,1.54,-1.09,-0.43,-0.46,-0.50,-0.38,561.00,1853.00,756.00,730.00,2223.00,3919.00,944.00,1457.00,,,,,,,,,,,,0,0,0,,-952,14124,7452,-72,39,-265
18.183,17.99,-0.94,-2.03,1.71,1.15,-1.32,-1.81,0.26,-1.60,0.69,653.00,1719.00,771.00,746.00,2192.00,4059.00,909.00,1479.00,,,,,,,,,,,,0,0,0,,-988,14408,7260,-114,146,-24
18.224,18.05,-0.95,1.50,-2.62,-3.14,0.80,-1.22,0.71,-1.32,1.55,774.00,1679.00,743.00,835.00,2117.00,3919.00,863.00,1429.00,,,,,,,,,,,,0,0,0,,-900,14164,7608,-204,181,-193
18.286,18.10,-0.82,3.49,-6.52,-2.86,2.92,1.64,-1.32,2.97,-2.85,922.00,1723.00,659.00,780.00,2243.00,3695.00,1013.00,1357.00,,,,,,,,,,,,0,0,0,,-944,14152,7292,26,162,-273
18.347,18.16,-0.85,-8.79,6.85,5.06,-3.76,-1.28,0.22,-2.77,1.02,559.00,1957.00,819.00,682.00,2177.00,3981.00,912.00,1535.00,,,,,,,,,,,,0,0,0,,-804,14304,7364,-44,0,-195
18.388,18.21,-0.86,2.74,-2.16,-4.41,1.35,-1.13,1.37,-2.65,3.73,738.00,1579.00,738.00,865.00,2039.00,3836.00,786.00,1421.00,,,,,,,,,,,,0,0,0,,-844,14036,7468,-72,57,-96
18.449,18.26,-0.69,6.14,-9.69,-4.34,5.06,2.55,-1.88,5.44,-4.60,1043.00,1689.00,603.00,781.00,2274.00,3618.00,1065.00,1290.00,,,,,,,,,,,,0,0,0,,-944,14180,7424,-140,109,-258
18.55,18.32,-0.71,-11.97,10.47,6.98,-4.91,-1.13,0.20,-2.56,0.71,487.00,2014.00,842.00,652.00,2173.00,3959.00,924.00,1535.00,,,,,,,,,,,,0,0,0,,-964,14248,7528,-65,212,-110
18.571,18.37,-0.72,4.05,-1.75,-2.85,0.51,-0.82,0.66,-2.45,2.66,705.00,1483.00,751.00,832.00,2107.00,3862.00,830.00,1451.00,,,,,,,,,,,,0,0,0,,-864,14244,7504,-20,126,-215
18.613,18.43,-0.64,4.97,-8.09,-3.14,2.82,0.84,-0.46,2.46,-1.74,977.00,1695.00,666.00,791.00,2172.00,3727.00,963.00,1344.00,,,,,,,,,,,,0,0,0,,-832,14280,7316,38,63,-245
18.675,18.48,-0.59,-6.38,6.14,1.81,-0.66,0.40,-0.45,-0.06,-0.31,556.00,1813.00,735.00,714.00,2189.00,3792.00,933.00,1429.00,,,,,,,,,,,,0,0,0,,-956,14284,7248,-23,-9,-214
18.715,18.54,-0.60,-2.20,2.13,2.14,-1.51,-0.83,0.21,-1.22,0.58,640.00,1711.00,765.00,721.00,2160.00,3911.00,908.00,1461.00,,,,,,,,,,,,0,0,0,,-940,14196,7468,-95,45,-236
18.777,18.59,-0.63,2.46,-3.27,-2.84,0.85,-1.23,0.89,-1.24,1.81,788.00,1645.00,737.00,824.00,2097.00,3901.00,850.00,1415.00,,,,,,,,,,,,0,0,0,,-1024,14180,7476,-86,173,-171
18.901,18.65,-0.53,3.08,-6.02,-2.53,2.87,1.45,-1.35,2.87,-2.78,904.00,1728.00,657.00,771.00,2254.00,3725.00,1011.00,1360.00,,,,,,,,,,,,0,0,0,,-916,14160,7320,-24,208,-233
18.922,18.70,-0.59,-9.08,6.78,5.99,-4.29,-1.86,0.42,-2.82,1.10,564.00,1983.00,829.00,667.00,2176.00,4051.00,909.00,1535.00,,,,,,,,,,,,0,0,0,,-880,14076,7308,-116,143,28
18.963,18.76,-0.63,2.07,-2.06,-4.53,1.32,-1.37,1.41,-2.70,3.53,743.00,1617.00,741.00,870.00,2044.00,3869.00,795.00,1431.00,,,,,,,,,,,,0,0,0,,-880,14252,7412,-182,155,-158
19.004,18.82,-0.46,6.01,-10.14,-3.84,4.47,2.74,-1.80,6.17,-4.92,1071.00,1718.00,617.00,778.00,2256.00,3583.00,1069.00,1264.00,,,,,,,,,,,,0,0,0,,-864,14112,7348,-40,237,-247
19.067,18.87,-0.48,-10.16,8.16,8.29,-5.09,-0.87,0.18,-2.53,0.86,534.00,1995.00,830.00,622.00,2165.00,3920.00,916.00,1527.00,,,,,,,,,,,,0,0,0,,-968,14172,7412,-40,138,-122
19.108,18.92,-0.49,3.58,-1.47,-2.83,0.47,-0.58,0.63,-1.94,2.42,700.00,1499.00,752.00,832.00,2102.00,3829.00,833.00,1431.00,,,,,,,,,,,,0,0,0,,-840,14120,7572,-60,96,-100
19.169,18.98,-0.41,4.67,-7.74,-3.02,2.92,1.04,-0.45,2.33,-1.47,964.00,1699.00,661.00,785.00,2163.00,3696.00,951.00,1341.00,,,,,,,,,,,,0,0,0,,-876,14196,7508,-61,0,-161
19.271,19.03,-0.35,-5.23,4.94,1.78,-0.68,0.76,-0.46,0.27,-0.42,581.00,1789.00,736.00,715.00,2176.00,3739.00,933.00,1415.00,,,,,,,,,,,,0,0,0,,-856,14220,7508,-63,124,-95
19.292,19.09,-0.36,-2.23,2.12,1.83,-1.17,-0.46,0.14,-1.28,0.64,641.00,1714.00,755.00,723.00,2153.00,3861.00,906.00,1462.00,,,,,,,,,,,,0,0,0,,-1000,14260,7440,-10,215,-185
19.353,19.14,-0.36,2.38,-2.80,-2.27,0.78,-0.37,0.65,-1.06,1.73,769.00,1629.00,732.00,807.00,2091.00,3795.00,851.00,1408.00,,,,,,,,,,,,0,0,0,,-820,14172,7192,-46,130,-150
19.414,19.20,-0.25,3.54,-6.40,-2.49,3.11,1.86,-1.35,3.25,-2.92,915.00,1714.00,648.00,765.00,2237.00,3665.00,1012.00,1345.00,,,,,,,,,,,,0,0,0,,-928,14160,7328,-69,52,-166
19.435,19.25,-0.31,-8.95,6.87,6.24,-4.33,-1.48,0.43,-2.87,1.18,560.00,1968.00,827.00,661.00,2160.00,3989.00,906.00,1535.00,,,,,,,,,,,,0,0,0,,-1068,14160,7416,-96,137,-123
19.495,19.31,-0.35,2.47,-2.41,-4.22,1.17,-1.19,1.43,-2.57,3.61,752.00,1607.00,743.00,863.00,2035.00,3839.00,790.00,1421.00,,,,,,,,,,,,0,0,0,,-992,14244,7528,-88,256,-125
19.537,19.36,-0.22,6.47,-10.68,-4.45,5.13,2.30,-1.82,5.62,-4.83,1094.00,1712.00,602.00,783.00,2277.00,3648.00,1075.00,1289.00,,,,,,,,,,,,0,0,0,,-1032,14284,7344,-31,229,-121
19.64,19.42,-0.29,-12.02,10.41,6.49,-4.64,-1.51,0.20,-2.59,0.76,489.00,2021.00,837.00,660.00,2188.00,4019.00,922.00,1535.00,,,,,,,,,,,,0,0,0,,-848,13944,7260,-102,210,18
19.66,19.48,-0.32,2.61,-1.43,-2.61,0.43,-1.06,0.65,-2.35,2.38,711.00,1556.00,751.00,826.00,2117.00,3899.00,841.00,1456.00,,,,,,,,,,,,0,0,0,,-840,14284,7596,-228,199,-135
19.702,19.53,-0.26,4.71,-7.77,-3.37,3.01,1.03,-0.45,2.17,-1.27,965.00,1698.00,662.00,794.00,2163.00,3697.00,944.00,1343.00,,,,,,,,,,,,0,0,0,,-840,14152,7232,-97,243,-259
19.782,19.58,-0.19,-4.31,4.07,1.65,-0.58,1.11,-0.60,0.64,-0.78,599.00,1766.00,734.00,717.00,2178.00,3701.00,945.00,1408.00,,,,,,,,,,,,0,0,0,,-920,14104,7368,-7,146,-201
19.824,19.64,-0.19,-1.62,1.54,2.37,-1.54,-0.25,0.13,-1.27,0.78,654.00,1699.00,763.00,715.00,2146.00,3830.00,899.00,1456.00,,,,,,,,,,,,0,0,0,,-956,14256,7392,-72,86,-244
19.886,19.69,-0.20,2.83,-3.00,-2.88,1.14,-0.39,0.76,-0.96,1.61,771.00,1609.00,726.00,819.00,2079.00,3786.00,855.00,1407.00,,,,,,,,,,,,0,0,0,,-920,14468,7340,-54,222,-223
19.927,19.75,-0.08,3.90,-6.98,-2.49,3.25,2.16,-1.45,3.46,-2.90,938.00,1716.00,643.00,762.00,2237.00,3632.00,1007.00,1333.00,,,,,,,,,,,,0,0,0,,-916,14120,7168,-100,183,-111
19.989,19.80,-0.14,-8.75,6.80,6.32,-4.16,-1.13,0.32,-2.95,1.29,560.00,1956.00,818.00,656.00,2159.00,3946.00,902.00,1535.00,,,,,,,,,,,,0,0,0,,-836,14176,7268,-106,162,-167
20.051,19.86,-0.18,2.95,-2.35,-4.32,1.52,-0.95,1.43,-2.67,3.80,743.00,1574.00,730.00,858.00,2026.00,3803.00,783.00,1419.00,,,,,,,,,,,,0,0,0,,-852,14160,7284,-107,108,-152
20.092,19.91,-0.04,6.60,-10.31,-4.21,5.02,2.47,-1.71,5.83,-4.85,1070.00,1687.00,603.00,778.00,2256.00,3613.00,1072.00,1279.00,,,,,,,,,,,,0,0,0,,-892,14220,7496,-161,101,-106
20.153,19.97,-0.08,-11.87,10.59,5.97,-4.15,-0.74,-0.01,-2.46,0.86,483.00,2000.00,823.00,665.00,2182.00,3920.00,915.00,1523.00,,,,,,,,,,,,0,0,0,,-920,14208,7284,-103,124,-144
20.215,20.02,-0.12,3.18,-0.77,-1.96,-0.09,-0.81,0.64,-1.95,2.22,679.00,1495.00,763.00,816.00,2109.00,3863.00,842.00,1439.00,,,,,,,,,,,,0,0,0,,-920,14292,7444,-129,160,-133
20.257,20.08,-0.08,4.52,-7.65,-2.93,2.56,0.57,-0.40,1.86,-1.35,962.00,1705.00,673.00,790.00,2176.00,3761.00,953.00,1362.00,,,,,,,,,,,,0,0,0,,-840,14236,7504,-74,181,-104
20.359,20.14,-0.05,-3.80,3.17,0.30,0.07,0.50,-0.62,0.50,-0.81,623.00,1773.00,726.00,743.00,2205.00,3794.00,949.00,1417.00,,,,,,,,,,,,0,0,0,,-900,13952,7424,-36,141,-166
20.379,20.19,-0.10,-2.55,2.19,2.09,-1.45,-1.04,0.18,-1.69,0.72,642.00,1732.00,763.00,721.00,2171.00,3946.00,909.00,1483.00,,,,,,,,,,,,0,0,0,,-848,14148,7452,-227,111,-180
20.441,20.25,-0.11,2.50,-2.79,-2.93,1.03,-0.31,0.71,-0.98,1.63,767.00,1621.00,731.00,823.00,2082.00,3780.00,854.00,1407.00,,,,,,,,,,,,0,0,0,,-912,14332,7468,-82,196,-181
20.502,20.30,0.00,3.72,-6.38,-2.73,3.36,2.23,-1.38,3.64,-3.00,911.00,1701.00,642.00,767.00,2226.00,3615.00,1009.00,1327.00,,,,,,,,,,,,0,0,0,,-848,14148,7364,-16,146,-156
20.562,20.35,-0.03,-8.82,7.77,6.92,-4.47,-0.74,0.30,-2.69,1.10,532.00,1911.00,823.00,646.00,2146.00,3887.00,907.00,1527.00,,,,,,,,,,,,0,0,0,,-968,14256,7332,-71,132,-138
20.583,20.41,-0.06,3.46,-2.62,-4.09,1.62,-0.65,1.60,-2.60,3.97,747.00,1554.00,723.00,848.00,1997.00,3741.00,775.00,1409.00,,,,,,,,,,,,0,0,0,,-876,14328,7320,-79,216,-42
20.644,20.46,0.09,6.73,-10.36,-4.04,5.14,2.96,-1.79,5.76,-4.78,1070.00,1680.00,597.00,770.00,2246.00,3551.00,1069.00,1280.00,,,,,,,,,,,,0,0,0,,-780,14160,7404,-112,117,-263
20.728,20.52,0.07,-10.63,9.90,6.28,-4.10,-0.22,-0.01,-2.23,0.62,490.00,1939.00,816.00,656.00,2161.00,3839.00,923.00,1519.00,,,,,,,,,,,,0,0,0,,-940,14260,7448,-131,134,-112
20.768,20.57,0.06,3.78,-1.48,-1.59,0.06,-0.22,0.60,-2.17,2.49,698.00,1488.00,752.00,801.00,2091.00,3778.00,833.00,1441.00,,,,,,,,,,,,0,0,0,,-888,14148,7504,-88,100,-195
20.809,20.63,0.12,4.59,-7.27,-3.04,2.96,1.23,-0.41,2.07,-1.36,941.00,1683.00,660.00,785.00,2151.00,3665.00,950.00,1351.00,,,,,,,,,,,,0,0,0,,-956,14196,7276,-54,141,-185
20.871,20.68,0.17,-2.36,1.93,0.19,0.44,1.21,-0.69,0.63,-0.72,649.00,1731.00,713.00,739.00,2185.00,3696.00,942.00,1406.00,,,,,,,,,,,,0,0,0,,-840,14092,7328,-85,147,-144
20.931,20.74,0.14,-2.56,2.31,2.95,-1.93,-0.49,0.11,-1.41,0.71,638.00,1727.00,771.00,706.00,2158.00,3869.00,905.00,1467.00,,,,,,,,,,,,0,0,0,,-884,14140,7408,-120,119,-160
20.973,20.80,0.11,2.40,-2.63,-3.47,1.41,-0.47,0.70,-1.51,1.94,762.00,1621.00,723.00,832.00,2089.00,3804.00,848.00,1425.00,,,,,,,,,,,,0,0,0,,-880,14264,7544,-201,99,-175
21.034,20.85,0.21,3.50,-6.70,-2.51,3.03,2.08,-1.52,3.80,-3.29,931.00,1731.00,651.00,767.00,2249.00,3650.00,1022.00,1329.00,,,,,,,,,,,,0,0,0,,-916,14228,7372,-142,97,-120
21.116,20.91,0.13,-9.30,7.12,6.28,-4.39,-1.38,0.18,-3.36,1.32,556.00,1982.00,829.00,661.00,2185.00,4000.00,907.00,1559.00,,,,,,,,,,,,0,0,0,,-940,14112,7320,-56,126,-158
21.138,20.96,0.06,2.46,-2.31,-4.41,1.18,-1.15,1.21,-3.31,4.24,748.00,1603.00,745.00,869.00,2058.00,3856.00,774.00,1439.00,,,,,,,,,,,,0,0,0,,-916,14256,7344,-184,106,-174
21.199,21.01,0.20,6.16,-9.94,-3.92,4.58,2.72,-1.74,5.39,-4.71,1057.00,1699.00,614.00,778.00,2250.00,3581.00,1072.00,1296.00,,,,,,,,,,,,0,0,0,,-928,14356,7400,-160,118,-231
21.24,21.07,0.19,-11.34,11.03,6.07,-3.96,0.01,-0.09,-1.91,0.37,467.00,1935.00,813.00,659.00,2162.00,3813.00,930.00,1510.00,,,,,,,,,,,,0,0,0,,-940,14040,7380,-12,151,-203
21.3,21.12,0.18,4.06,-1.47,-1.17,-0.08,0.12,0.63,-1.99,2.39,694.00,1471.00,752.00,791.00,2075.00,3724.00,835.00,1435.00,,,,,,,,,,,,0,0,0,,-944,14168,7372,-59,99,-165
21.362,21.18,0.26,4.17,-6.45,-2.64,2.93,1.72,-0.47,1.99,-1.04,907.00,1674.00,656.00,773.00,2139.00,3600.00,935.00,1344.00,,,,,,,,,,,,0,0,0,,-852,13968,7404,-91,101,-184
21.465,21.23,0.34,-2.10,2.07,-0.06,0.81,1.84,-0.83,0.81,-0.64,641.00,1707.00,702.00,739.00,2176.00,3618.00,935.00,1393.00,,,,,,,,,,,,0,0,0,,-924,14192,7348,-87,124,-240
21.486,21.29,0.32,-1.45,1.60,3.37,-1.85,0.05,0.19,-1.73,1.21,650.00,1685.00,762.00,693.00,2128.00,3779.00,886.00,1466.00,,,,,,,,,,,,0,0,0,,-792,14264,7372,-50,12,-169
21.547,21.34,0.32,2.79,-2.40,-3.18,1.39,0.32,0.68,-1.20,1.90,747.00,1586.00,720.00,823.00,2062.00,3690.00,845.00,1409.00,,,,,,,,,,,,0,0,0,,-932,14252,7336,-24,-57,-246
21.608,21.40,0.46,4.04,-6.80,-2.16,3.40,2.95,-1.60,3.80,-3.13,927.00,1699.00,634.00,749.00,2223.00,3534.00,1013.00,1323.00,,,,,,,,,,,,0,0,0,,-948,14164,7512,-65,49,-257
21.628,21.45,0.41,-8.48,6.81,7.39,-4.47,-0.50,0.14,-2.77,1.02,557.00,1935.00,816.00,634.00,2155.00,3867.00,912.00,1535.00,,,,,,,,,,,,0,0,0,,-1000,14140,7416,-132,79,-183
21.712,21.51,0.36,3.66,-2.47,-4.37,1.46,-0.56,1.36,-2.87,3.97,738.00,1535.00,733.00,861.00,2019.00,3751.00,779.00,1424.00,,,,,,,,,,,,0,0,0,,-956,14148,7464,-180,170,-119
21.733,21.57,0.48,6.01,-9.63,-3.88,5.06,2.68,-1.63,4.13,-4.15,1042.00,1695.00,598.00,767.00,2238.00,3575.00,1064.00,1342.00,,,,,,,,,,,,0,0,0,,-1008,14152,7484,-195,166,-81
21.857,21.62,0.44,-11.37,10.88,5.43,-3.47,-0.29,-0.11,-2.15,0.35,471.00,1945.00,801.00,667.00,2176.00,3861.00,935.00,1525.00,,,,,,,,,,,,0,0,0,,-948,14224,7452,-65,135,-132
21.876,21.67,0.38,3.83,-1.63,-1.32,-0.11,-0.71,0.71,-2.41,2.49,703.00,1491.00,755.00,796.00,2098.00,3841.00,837.00,1455.00,,,,,,,,,,,,0,0,0,,-812,14144,7552,-36,62,-174
21.918,21.73,0.39,3.70,-6.29,-3.48,2.99,0.62,-0.30,0.44,-0.89,907.00,1698.00,664.00,798.00,2162.00,3743.00,954.00,1423.00,,,,,,,,,,,,0,0,0,,-896,14136,7360,-94,13,-276
21.98,21.78,0.41,-1.48,0.64,-2.06,2.57,0.80,-0.73,0.25,-0.63,685.00,1731.00,662.00,763.00,2206.00,3760.00,944.00,1424.00,,,,,,,,,,,,0,0,0,,-972,14176,7420,-28,43,-185
22.022,21.84,0.34,-3.26,2.49,2.35,-1.78,-1.09,0.16,-1.94,0.78,640.00,1767.00,773.00,720.00,2176.00,3956.00,910.00,1495.00,,,,,,,,,,,,0,0,0,,-868,14148,7268,-36,106,-138
22.084,21.89,0.29,2.55,-2.90,-4.29,1.26,-0.58,0.68,-1.71,1.92,771.00,1623.00,740.00,863.00,2096.00,3824.00,852.00,1437.00,,,,,,,,,,,,0,0,0,,-848,14148,7496,-196,7,-272
22.144,21.95,0.41,3.03,-5.73,-3.09,3.45,2.62,-1.62,1.67,-2.59,891.00,1718.00,643.00,776.00,2239.00,3583.00,1023.00,1419.00,,,,,,,,,,,,0,0,0,,-1008,14232,7624,-152,112,-191
22.205,22.00,0.36,-8.26,6.64,6.67,-4.27,-0.58,0.22,-2.77,1.02,560.00,1927.00,818.00,649.00,2148.00,3870.00,912.00,1535.00,,,,,,,,,,,,0,0,0,,-880,14128,7448,14,160,-147
22.246,22.06,0.33,3.62,-2.40,-4.79,1.91,-0.29,1.31,-3.12,4.34,736.00,1535.00,721.00,865.00,2015.00,3717.00,767.00,1424.00,,,,,,,,,,,,0,0,0,,-936,14212,7352,-51,131,-124
22.288,22.11,0.47,6.70,-9.84,-4.00,5.29,3.18,-1.77,4.98,-4.19,1041.00,1659.00,592.00,766.00,2235.00,3519.00,1050.00,1299.00,,,,,,,,,,,,0,0,0,,-952,14140,7368,-72,161,-87
22.35,22.17,0.46,-11.19,11.10,5.42,-3.40,0.34,-0.20,-1.62,0.02,464.00,1920.00,798.00,666.00,2161.00,3774.00,943.00,1507.00,,,,,,,,,,,,0,0,0,,-968,14248,7356,-152,87,-212
22.411,22.23,0.44,4.65,-1.96,-0.89,-0.13,0.07,0.65,-2.09,2.51,705.00,1456.00,750.00,783.00,2074.00,3729.00,831.00,1436.00,,,,,,,,,,,,0,0,0,,-848,14076,7412,-151,65,-159
22.472,22.28,0.49,4.56,-6.58,-2.64,2.93,1.39,-0.34,1.57,-1.05,907.00,1654.00,656.00,773.00,2137.00,3635.00,943.00,1367.00,,,,,,,,,,,,0,0,0,,-968,14232,7524,-88,91,-168
22.554,22.33,0.54,-1.09,0.89,-1.01,1.56,1.48,-0.68,0.68,-0.81,671.00,1693.00,686.00,752.00,2173.00,3655.00,946.00,1407.00,,,,,,,,,,,,0,0,0,,-936,14132,7548,-78,96,-194
22.573,22.39,0.50,-2.42,2.68,3.69,-2.06,-0.22,0.22,-1.88,0.74,624.00,1701.00,766.00,688.00,2135.00,3817.00,911.00,1493.00,,,,,,,,,,,,0,0,0,,-964,14164,7244,-81,133,-177
22.634,22.44,0.46,3.15,-2.89,-4.16,1.78,-0.27,0.81,-1.55,2.02,762.00,1584.00,718.00,847.00,2069.00,3763.00,845.00,1424.00,,,,,,,,,,,,0,0,0,,-984,14120,7612,-146,128,-149
22.674,22.50,0.56,4.11,-6.83,-2.15,2.80,2.35,-1.54,3.90,-3.32,927.00,1695.00,655.00,761.00,2240.00,3613.00,1022.00,1325.00,,,,,,,,,,,,0,0,0,,-896,14052,7428,-150,152,-112
22.735,22.55,0.48,-7.87,6.51,7.07,-4.41,-1.07,0.16,-3.44,1.25,560.00,1904.00,818.00,641.00,2175.00,3953.00,912.00,1567.00,,,,,,,,,,,,0,0,0,,-936,14136,7516,-167,114,-147
22.797,22.61,0.41,3.10,-2.58,-5.04,1.57,-0.83,1.14,-3.34,4.24,750.00,1574.00,738.00,882.00,2054.00,3815.00,774.00,1440.00,,,,,,,,,,,,0,0,0,,-972,14264,7504,-117,121,-140
22.859,22.66,0.49,6.03,-9.56,-4.50,5.30,2.02,-1.51,4.29,-3.99,1038.00,1691.00,597.00,781.00,2251.00,3659.00,1052.00,1328.00,,,,,,,,,,,,0,0,0,,-888,14176,7556,-114,144,-146
22.921,22.72,0.42,-10.86,10.55,3.96,-3.00,-0.85,-0.16,-2.06,0.13,475.00,1923.00,802.00,698.00,2204.00,3952.00,945.00,1529.00,,,,,,,,,,,,0,0,0,,-884,14212,7524,-159,74,-194
22.962,22.77,0.34,2.79,-1.62,-1.39,-0.23,-1.20,0.72,-2.53,2.31,716.00,1553.00,761.00,801.00,2115.00,3914.00,847.00,1469.00,,,,,,,,,,,,0,0,0,,-896,14252,7552,-60,74,-157
23.002,22.83,0.32,3.33,-5.90,-3.27,2.53,-0.17,-0.23,0.81,-1.01,894.00,1705.00,678.00,801.00,2185.00,3855.00,954.00,1407.00,,,,,,,,,,,,0,0,0,,-904,14196,7500,-86,132,-91
23.063,22.89,0.33,-1.76,0.73,-1.92,1.44,0.63,-0.78,0.41,-0.90,685.00,1746.00,702.00,782.00,2219.00,3791.00,955.00,1425.00,,,,,,,,,,,,0,0,0,,-948,14136,7564,-210,44,-262
23.145,22.94,0.29,-2.82,2.14,3.06,-2.04,-0.60,0.14,-1.76,0.74,647.00,1753.00,774.00,705.00,2159.00,3882.00,909.00,1486.00,,,,,,,,,,,,0,0,0,,-900,14140,7676,-159,74,-207
23.166,23.00,0.27,3.13,-2.86,-4.01,1.60,-0.08,0.73,-1.53,2.24,761.00,1584.00,723.00,846.00,2071.00,3743.00,835.00,1415.00,,,,,,,,,,,,0,0,0,,-836,14108,7652,-37,153,-158
23.226,23.05,0.40,3.79,-6.72,-2.20,3.21,2.81,-1.65,3.85,-3.31,927.00,1712.00,641.00,754.00,2235.00,3559.00,1022.00,1327.00,,,,,,,,,,,,0,0,0,,-876,14060,7596,-95,111,-87
23.307,23.10,0.35,-7.89,6.19,7.09,-4.44,-0.55,0.13,-2.71,0.94,570.00,1922.00,819.00,641.00,2158.00,3876.00,915.00,1535.00,,,,,,,,,,,,0,0,0,,-872,14144,7596,-70,210,-95
23.349,23.16,0.30,2.72,-1.85,-5.21,1.90,-0.59,1.35,-3.47,4.70,726.00,1567.00,727.00,880.00,2021.00,3756.00,757.00,1430.00,,,,,,,,,,,,0,0,0,,-956,14148,7608,-175,170,-196
23.409,23.21,0.42,6.38,-9.65,-3.90,5.03,2.60,-1.51,4.75,-4.02,1036.00,1671.00,599.00,768.00,2227.00,3575.00,1045.00,1305.00,,,,,,,,,,,,0,0,0,,-824,14020,7380,-194,86,-122
23.472,23.27,0.40,-10.33,10.14,3.94,-2.64,0.16,-0.21,-1.71,0.23,481.00,1904.00,787.00,692.00,2170.00,3803.00,934.00,1504.00,,,,,,,,,,,,0,0,0,,-872,14196,7432,-136,44,-155
23.531,23.32,0.38,3.86,-1.95,-0.55,-0.24,-0.01,0.32,-2.22,2.47,715.00,1502.00,750.00,775.00,2115.00,3775.00,835.00,1445.00,,,,,,,,,,,,0,0,0,,-972,14140,7584,-51,135,-231
23.572,23.38,0.40,3.38,-5.73,-2.78,2.62,0.73,-0.17,1.10,-0.88,885.00,1694.00,669.00,784.00,2143.00,3714.00,942.00,1386.00,,,,,,,,,,,,0,0,0,,-924,14048,7472,-24,141,-191
23.696,23.43,0.44,-0.63,-0.18,-1.09,1.53,1.21,-0.75,0.62,-0.74,705.00,1711.00,688.00,755.00,2192.00,3701.00,943.00,1407.00,,,,,,,,,,,,0,0,0,,-932,14052,7476,-102,104,-159
23.717,23.49,0.38,-3.66,3.12,3.32,-2.10,-0.84,0.20,-2.15,0.91,623.00,1765.00,773.00,699.00,2161.00,3913.00,907.00,1502.00,,,,,,,,,,,,0,0,0,,-968,14048,7584,-139,122,-136
23.738,23.55,0.32,3.08,-3.22,-3.46,1.36,-0.75,0.81,-1.40,1.65,777.00,1603.00,725.00,833.00,2087.00,3835.00,860.00,1430.00,,,,,,,,,,,,0,0,0,,-916,14108,7460,-164,161,-124
23.778,23.60,0.40,3.87,-7.30,-2.90,3.42,1.87,-1.50,3.84,-3.32,955.00,1733.00,642.00,771.00,2256.00,3680.00,1023.00,1328.00,,,,,,,,,,,,0,0,0,,-952,14208,7604,-93,107,-181
23.84,23.66,0.29,-9.13,6.83,6.48,-4.46,-1.70,0.36,-3.53,1.28,563.00,1984.00,829.00,657.00,2176.00,4031.00,912.00,1571.00,,,,,,,,,,,,0,0,0,,-948,14024,7632,-85,88,-169
23.881,23.71,0.20,2.83,-2.41,-5.95,1.95,-1.61,1.35,-3.56,4.08,747.00,1584.00,735.00,905.00,2059.00,3911.00,784.00,1459.00,,,,,,,,,,,,0,0,0,,-944,14120,7528,-64,113,-208
23.943,23.76,0.27,5.90,-10.03,-3.99,4.31,1.56,-1.55,4.21,-3.93,1067.00,1721.00,624.00,786.00,2275.00,3730.00,1050.00,1330.00,,,,,,,,,,,,0,0,0,,-880,14096,7476,-36,131,-177
24.024,23.82,0.19,-12.01,11.65,3.03,-2.78,-1.18,-0.21,-2.04,0.14,457.00,1954.00,806.00,720.00,2223.00,4009.00,944.00,1527.00,,,,,,,,,,,,0,0,0,,-904,14256,7396,-107,151,-187
24.086,23.87,0.13,3.55,-1.61,-1.62,0.02,-1.07,0.61,-2.47,2.53,706.00,1507.00,754.00,803.00,2123.00,3906.00,836.00,1457.00,,,,,,,,,,,,0,0,0,,-892,14068,7588,-235,79,-220
24.108,23.93,0.14,3.90,-5.99,-2.84,2.42,0.28,-0.06,0.71,-0.49,889.00,1671.00,677.00,790.00,2148.00,3770.00,929.00,1393.00,,,,,,,,,,,,0,0,0,,-1096,14184,7492,-90,126,-221
24.17,23.98,0.19,-0.40,-0.52,-1.63,1.69,1.18,-0.72,1.20,-1.18,715.00,1711.00,689.00,768.00,2189.00,3702.00,956.00,1392.00,,,,,,,,,,,,0,0,0,,-932,14044,7484,-18,151,-122
24.231,24.04,0.16,-4.43,3.74,3.04,-1.96,-0.42,0.18,-1.85,0.98,611.00,1790.00,771.00,704.00,2147.00,3851.00,899.00,1482.00,,,,,,,,,,,,0,0,0,,-960,14140,7628,-72,112,-151
24.273,24.09,0.14,3.68,-3.33,-4.46,1.90,-0.30,0.87,-1.55,2.26,773.00,1570.00,717.00,854.00,2064.00,3762.00,834.00,1415.00,,,,,,,,,,,,0,0,0,,-1080,14120,7556,-82,174,-178
24.335,24.15,0.26,4.69,-7.77,-3.02,3.98,2.50,-1.58,3.87,-3.31,965.00,1699.00,624.00,763.00,2240.00,3597.00,1022.00,1326.00,,,,,,,,,,,,0,0,0,,-1028,13916,7500,-165,121,-230
24.396,24.20,0.20,-10.39,8.37,7.60,-4.25,-0.90,0.27,-3.17,1.16,530.00,2001.00,803.00,625.00,2155.00,3915.00,912.00,1554.00,,,,,,,,,,,,0,0,0,,-940,14164,7608,-121,51,-151
24.458,24.26,0.14,3.17,-2.18,-5.26,1.71,-0.88,1.43,-3.35,4.32,733.00,1553.00,735.00,886.00,2023.00,3792.00,771.00,1438.00,,,,,,,,,,,,0,0,0,,-856,14248,7644,-48,127,-199
24.5,24.32,0.24,7.35,-10.60,-4.08,4.82,2.06,-1.31,4.47,-3.75,1072.00,1650.00,608.00,778.00,2225.00,3633.00,1035.00,1310.00,,,,,,,,,,,,0,0,0,,-964,14108,7600,-30,162,-193
24.562,24.37,0.21,-11.24,11.11,3.78,-2.57,-0.25,-0.10,-1.71,0.25,464.00,1923.00,786.00,695.00,2173.00,3854.00,933.00,1503.00,,,,,,,,,,,,0,0,0,,-968,14064,7560,-84,160,-150
24.624,24.42,0.17,3.33,-1.95,-0.88,-0.18,-0.77,0.72,-2.48,2.62,722.00,1534.00,752.00,784.00,2099.00,3849.00,832.00,1454.00,,,,,,,,,,,,0,0,0,,-940,14180,7484,-90,160,-133
24.687,24.48,0.16,2.49,-4.88,-3.24,2.63,0.05,0.06,0.47,-0.27,859.00,1715.00,674.00,798.00,2143.00,3792.00,922.00,1398.00,,,,,,,,,,,,0,0,0,,-828,14244,7672,-139,197,-126
24.769,24.53,0.20,-0.64,-0.64,-1.44,1.65,0.96,-0.78,1.05,-1.21,723.00,1733.00,688.00,763.00,2206.00,3742.00,960.00,1401.00,,,,,,,,,,,,0,0,0,,-944,14128,7448,-131,176,-169
24.789,24.59,0.12,-4.71,4.05,3.63,-2.35,-1.40,0.36,-2.71,1.33,604.00,1795.00,779.00,695.00,2165.00,3984.00,896.00,1519.00,,,,,,,,,,,,0,0,0,,-860,14112,7668,-160,152,-126
24.831,24.64,0.06,2.81,-3.13,-4.42,1.58,-1.03,0.81,-1.80,1.99,777.00,1616.00,729.00,860.00,2098.00,3879.00,850.00,1439.00,,,,,,,,,,,,0,0,0,,-920,14212,7748,-69,168,-116
24.872,24.70,0.14,4.17,-7.93,-3.78,4.09,1.68,-1.53,3.57,-3.23,983.00,1742.00,629.00,784.00,2267.00,3710.00,1023.00,1339.00,,,,,,,,,,,,0,0,0,,-960,14064,7612,54,186,-208
24.936,24.75,0.03,-8.73,6.21,6.70,-4.55,-2.03,0.33,-3.73,1.35,578.00,1986.00,830.00,653.00,2193.00,4087.00,912.00,1581.00,,,,,,,,,,,,0,0,0,,-856,14188,7420,-98,155,-142
24.997,24.81,-0.03,2.95,-2.35,-5.33,1.44,-1.27,1.40,-3.29,4.01,743.00,1574.00,747.00,895.00,2041.00,3854.00,783.00,1446.00,,,,,,,,,,,,0,0,0,,-880,14120,7772,-130,161,-170
25.039,24.86,0.07,6.66,-10.25,-4.04,4.56,2.00,-1.28,4.28,-3.47,1065.00,1680.00,616.00,782.00,2224.00,3639.00,1023.00,1310.00,,,,,,,,,,,,0,0,0,,-968,14008,7528,-3,178,-214
25.14,24.92,0.07,-10.52,10.48,3.56,-2.56,0.02,-0.22,-1.45,0.16,474.00,1901.00,789.00,701.00,2176.00,3824.00,933.00,1491.00,,,,,,,,,,,,0,0,0,,-976,14132,7536,-73,134,-125
25.16,24.98,0.04,3.76,-1.60,-0.74,-0.25,-0.56,0.86,-2.03,2.45,703.00,1494.00,753.00,781.00,2075.00,3802.00,833.00,1435.00,,,,,,,,,,,,0,0,0,,-948,13868,7680,-128,124,-110
25.203,25.03,0.05,3.80,-5.38,-3.05,2.68,0.36,0.08,0.32,0.08,862.00,1651.00,670.00,791.00,2128.00,3743.00,907.00,1393.00,,,,,,,,,,,,0,0,0,,-880,14152,7468,-96,179,-218
25.263,25.08,0.12,0.68,-1.81,-1.51,1.81,1.28,-0.67,1.02,-0.89,752.00,1697.00,683.00,762.00,2180.00,3683.00,944.00,1391.00,,,,,,,,,,,,0,0,0,,-896,14184,7412,-76,156,-122
25.324,25.14,0.07,-4.17,3.24,3.52,-2.07,-0.83,0.35,-2.23,0.96,625.00,1796.00,769.00,693.00,2143.00,3895.00,906.00,1505.00,,,,,,,,,,,,0,0,0,,-868,14088,7620,-79,77,-201
25.386,25.19,0.05,3.30,-2.86,-4.35,1.79,-0.28,0.71,-1.67,2.28,759.00,1574.00,720.00,853.00,2081.00,3775.00,835.00,1421.00,,,,,,,,,,,,0,0,0,,-960,14140,7504,-54,119,-216
25.426,25.25,0.16,4.57,-8.07,-3.19,4.04,2.28,-1.48,4.24,-3.44,983.00,1721.00,624.00,767.00,2237.00,3619.00,1022.00,1311.00,,,,,,,,,,,,0,0,0,,-948,14136,7436,-48,156,-161
25.507,25.30,0.09,-10.08,7.92,7.03,-4.35,-1.35,0.35,-3.33,1.13,540.00,2001.00,816.00,641.00,2164.00,3977.00,916.00,1565.00,,,,,,,,,,,,0,0,0,,-976,14052,7640,-140,126,-124
25.547,25.36,0.02,2.62,-1.79,-5.21,1.77,-1.23,1.47,-3.48,4.46,725.00,1571.00,732.00,883.00,2032.00,3841.00,767.00,1440.00,,,,,,,,,,,,0,0,0,,-948,14096,7616,-106,153,-134
25.609,25.41,0.10,5.98,-9.58,-3.63,4.55,1.59,-1.23,3.62,-3.25,1040.00,1695.00,612.00,770.00,2234.00,3693.00,1023.00,1337.00,,,,,,,,,,,,0,0,0,,-936,14136,7612,-77,169,-160
25.671,25.47,0.06,-10.96,10.63,3.46,-2.58,-0.61,-0.05,-1.50,0.14,474.00,1927.00,791.00,704.00,2181.00,3903.00,935.00,1495.00,,,,,,,,,,,,0,0,0,,-880,14196,7564,-79,159,-150
25.712,25.52,-0.00,3.33,-1.62,-0.82,-0.37,-1.23,0.75,-2.31,2.50,709.00,1520.00,759.00,786.00,2113.00,3916.00,835.00,1449.00,,,,,,,,,,,,0,0,0,,-836,14196,7636,24,128,-149
25.754,25.58,-0.03,2.67,-4.96,-3.36,2.48,-0.67,0.33,-0.37,0.26,860.00,1707.00,681.00,805.00,2139.00,3873.00,910.00,1425.00,,,,,,,,,,,,0,0,0,,-800,13880,7432,1,102,-84
25.815,25.64,-0.01,-0.20,-1.42,-1.83,1.65,0.51,-0.62,1.12,-1.23,748.00,1739.00,693.00,775.00,2205.00,3793.00,960.00,1398.00,,,,,,,,,,,,0,0,0,,-840,14188,7672,-188,13,-255
25.877,25.69,-0.08,-4.79,3.89,3.70,-2.44,-1.43,0.41,-2.74,1.19,610.00,1808.00,782.00,695.00,2160.00,3983.00,903.00,1526.00,,,,,,,,,,,,0,0,0,,-960,14100,7644,-75,206,-187
25.939,25.75,-0.11,2.80,-2.67,-4.37,1.77,-0.69,0.98,-1.90,2.54,758.00,1597.00,721.00,854.00,2066.00,3809.00,827.00,1424.00,,,,,,,,,,,,0,0,0,,-860,14024,7504,-84,195,-146
26.0,25.80,0.02,3.80,-7.06,-3.41,4.18,2.45,-1.62,4.08,-3.40,944.00,1727.00,622.00,771.00,2246.00,3607.00,1023.00,1318.00,,,,,,,,,,,,0,0,0,,-952,14288,7600,-134,77,-131
26.041,25.85,-0.05,-9.27,7.21,6.93,-4.32,-1.43,0.40,-3.45,1.35,553.00,1975.00,816.00,643.00,2161.00,3984.00,907.00,1563.00,,,,,,,,,,,,0,0,0,,-968,14216,7628,-84,139,-176
26.104,25.91,-0.10,2.74,-1.88,-5.20,1.79,-1.04,1.35,-3.18,4.17,727.00,1567.00,731.00,882.00,2038.00,3824.00,775.00,1434.00,,,,,,,,,,,,0,0,0,,-944,14048,7640,-56,163,-163
26.163,25.96,-0.01,6.27,-9.68,-4.11,4.68,1.77,-1.20,4.01,-3.58,1040.00,1680.00,613.00,782.00,2223.00,3664.00,1034.00,1328.00,,,,,,,,,,,,0,0,0,,-904,14124,7480,-71,139,-146
26.245,26.02,-0.03,-11.08,10.94,3.46,-2.41,-0.50,-0.07,-1.51,0.30,467.00,1920.00,784.00,701.00,2179.00,3888.00,927.00,1489.00,,,,,,,,,,,,0,0,0,,-908,14208,7464,-59,111,-180
26.266,26.07,-0.07,3.31,-1.58,-0.31,-0.45,-0.81,0.65,-2.28,2.55,708.00,1520.00,755.00,772.00,2108.00,3861.00,832.00,1445.00,,,,,,,,,,,,0,0,0,,-964,14148,7496,-55,113,-152
26.307,26.13,-0.09,2.86,-4.79,-3.07,2.33,-0.35,0.23,-0.12,0.25,849.00,1686.00,683.00,799.00,2139.00,3835.00,906.00,1411.00,,,,,,,,,,,,0,0,0,,-1064,14004,7608,-34,202,-115
26.37,26.18,-0.05,0.74,-2.46,-1.56,1.64,0.59,-0.68,1.02,-1.08,778.00,1723.00,690.00,767.00,2208.00,3786.00,954.00,1398.00,,,,,,,,,,,,0,0,0,,-884,14116,7644,-74,240,-106
26.43,26.24,-0.14,-4.81,3.93,2.99,-2.25,-1.89,0.48,-2.89,1.21,609.00,1808.00,784.00,711.00,2170.00,4049.00,905.00,1535.00,,,,,,,,,,,,0,0,0,,-936,14060,7620,-60,133,-178
26.472,26.30,-0.21,2.58,-3.17,-4.95,1.81,-1.39,0.95,-2.05,2.36,782.00,1633.00,727.00,873.00,2096.00,3919.00,837.00,1439.00,,,,,,,,,,,,0,0,0,,-904,14112,7532,-97,98,-137
26.533,26.35,-0.11,4.20,-8.02,-3.88,4.24,1.69,-1.55,4.04,-3.62,987.00,1744.00,625.00,784.00,2269.00,3710.00,1036.00,1328.00,,,,,,,,,,,,0,0,0,,-884,14140,7420,-87,129,-114
26.594,26.41,-0.21,-9.48,7.05,6.24,-4.44,-2.10,0.36,-4.13,1.46,560.00,2000.00,832.00,663.00,2192.00,4095.00,913.00,1601.00,,,,,,,,,,,,0,0,0,,-912,13896,7560,-28,145,-188
26.637,26.46,-0.30,2.06,-1.65,-5.44,1.35,-2.09,1.28,-3.65,4.11,727.00,1600.00,752.00,901.00,2086.00,3995.00,784.00,1463.00,,,,,,,,,,,,0,0,0,,-888,14284,7296,-156,67,-248
26.698,26.51,-0.24,5.39,-9.08,-4.62,4.58,1.06,-1.12,3.53,-3.45,1023.00,1712.00,622.00,800.00,2242.00,3760.00,1036.00,1349.00,,,,,,,,,,,,0,0,0,,-1048,14208,7628,-128,101,-222
26.739,26.57,-0.25,-9.88,10.11,3.27,-2.56,-0.48,-0.23,-1.43,0.05,478.00,1872.00,793.00,709.00,2198.00,3903.00,938.00,1494.00,,,,,,,,,,,,0,0,0,,-892,14052,7504,-8,165,-203
26.8,26.62,-0.29,3.00,-1.24,-0.88,-0.18,-1.03,0.71,-2.56,2.72,699.00,1525.00,752.00,784.00,2110.00,3890.00,829.00,1455.00,,,,,,,,,,,,0,0,0,,-960,14088,7596,-5,116,-107
26.863,26.68,-0.29,3.00,-4.77,-3.03,2.24,-0.35,0.31,-0.46,0.55,846.00,1676.00,686.00,800.00,2129.00,3826.00,897.00,1419.00,,,,,,,,,,,,0,0,0,,-736,14016,7312,-88,114,-51
26.905,26.73,-0.23,-0.88,-0.48,-1.73,1.69,0.97,-0.80,1.26,-1.22,720.00,1742.00,690.00,771.00,2207.00,3741.00,957.00,1390.00,,,,,,,,,,,,0,0,0,,-924,14112,7428,-150,154,-254
26.967,26.79,-0.30,-4.37,3.51,3.19,-2.22,-1.67,0.48,-3.05,1.45,618.00,1797.00,780.00,705.00,2161.00,4014.00,896.00,1535.00,,,,,,,,,,,,0,0,0,,-944,14120,7608,-159,155,-139
27.051,26.84,-0.33,3.07,-3.01,-4.49,1.61,-0.86,0.83,-1.85,2.36,768.00,1594.00,729.00,862.00,2090.00,3851.00,834.00,1428.00,,,,,,,,,,,,0,0,0,,-908,14140,7492,-101,66,-157
27.071,26.90,-0.21,4.32,-7.80,-3.38,3.93,1.93,-1.57,4.69,-4.30,973.00,1725.00,630.00,775.00,2262.00,3678.00,1062.00,1318.00,,,,,,,,,,,,0,0,0,,-836,14108,7572,-39,103,-180
27.134,26.95,-0.31,-10.03,7.23,6.45,-4.36,-2.05,0.48,-4.08,1.52,560.00,2034.00,825.00,656.00,2176.00,4074.00,909.00,1595.00,,,,,,,,,,,,0,0,0,,-812,14132,7576,-64,110,-183
27.194,27.01,-0.37,3.10,-2.45,-5.36,1.57,-1.65,1.38,-3.51,4.09,745.00,1569.00,742.00,893.00,2058.00,3915.00,783.00,1456.00,,,,,,,,,,,,0,0,0,,-960,14164,7504,-72,126,-157
27.256,27.07,-0.31,5.66,-9.46,-4.45,4.46,0.80,-1.07,3.00,-2.95,1039.00,1711.00,624.00,797.00,2247.00,3794.00,1018.00,1359.00,,,,,,,,,,,,0,0,0,,-996,14112,7520,-84,174,-127
27.338,27.12,-0.36,-11.27,10.69,2.42,-2.08,-1.22,-0.05,-2.19,0.59,475.00,1947.00,785.00,724.00,2206.00,3999.00,924.00,1518.00,,,,,,,,,,,,0,0,0,,-752,14160,7500,-61,148,-151
27.358,27.17,-0.43,3.08,-1.61,-1.15,-0.31,-1.86,0.72,-2.91,2.41,712.00,1535.00,761.00,795.00,2140.00,4017.00,848.00,1487.00,,,,,,,,,,,,0,0,0,,-952,14112,7528,-95,90,-169
27.419,27.23,-0.49,2.36,-4.31,-3.96,2.36,-1.52,0.44,-0.95,0.41,835.00,1698.00,693.00,827.00,2160.00,3994.00,912.00,1452.00,,,,,,,,,,,,0,0,0,,-856,14140,7444,-58,141,-129
27.48,27.28,-0.48,-0.30,-1.82,-2.53,1.78,-0.27,-0.69,0.88,-1.27,766.00,1765.00,697.00,794.00,2245.00,3919.00,966.00,1413.00,,,,,,,,,,,,0,0,0,,-944,14112,7496,-69,190,-149
27.542,27.34,-0.56,-6.02,4.40,2.84,-2.55,-2.08,0.33,-3.40,1.24,607.00,1873.00,799.00,721.00,2195.00,4095.00,912.00,1565.00,,,,,,,,,,,,0,0,0,,-928,14128,7336,-159,63,-223
27.584,27.39,-0.60,2.38,-2.80,-4.93,1.48,-1.47,1.01,-2.09,2.38,769.00,1629.00,740.00,880.00,2092.00,3925.00,837.00,1441.00,,,,,,,,,,,,0,0,0,,-892,14072,7512,-180,108,-191
27.647,27.45,-0.48,5.02,-8.96,-4.03,4.33,1.82,-1.50,4.03,-3.69,1023.00,1731.00,624.00,787.00,2258.00,3687.00,1040.00,1331.00,,,,,,,,,,,,0,0,0,,-932,14064,7464,32,144,-204
27.708,27.50,-0.56,-9.93,7.91,6.95,-4.64,-1.98,0.45,-4.11,1.47,539.00,1990.00,830.00,648.00,2177.00,4066.00,912.00,1599.00,,,,,,,,,,,,0,0,0,,-948,14096,7476,-15,194,-107
27.728,27.56,-0.60,2.88,-2.10,-5.38,1.68,-1.38,1.46,-3.38,4.02,734.00,1568.00,738.00,891.00,2039.00,3865.00,784.00,1451.00,,,,,,,,,,,,0,0,0,,-752,13992,7540,-120,137,-110
27.788,27.61,-0.50,5.23,-8.48,-4.85,4.78,1.28,-1.13,2.87,-2.92,993.00,1695.00,618.00,803.00,2235.00,3729.00,1019.00,1365.00,,,,,,,,,,,,0,0,0,,-940,14196,7352,-166,162,-233
27.85,27.67,-0.51,-10.96,10.55,2.93,-2.16,-0.59,-0.14,-1.80,0.18,476.00,1931.00,781.00,711.00,2191.00,3910.00,938.00,1511.00,,,,,,,,,,,,0,0,0,,-840,13976,7428,-196,122,-126
27.911,27.73,-0.53,3.15,-1.43,-0.93,-0.12,-0.98,0.63,-3.82,2.94,704.00,1523.00,750.00,784.00,2117.00,3890.00,838.00,1520.00,,,,,,,,,,,,0,0,0,,-860,14180,7556,-120,94,-130
27.973,27.78,-0.54,2.92,-4.68,-3.47,2.28,-0.64,0.40,-0.74,0.44,843.00,1677.00,690.00,813.00,2130.00,3861.00,907.00,1439.00,,,,,,,,,,,,0,0,0,,-896,14204,7520,-60,132,-217
28.074,27.83,-0.47,0.93,-2.85,-2.02,2.17,0.75,-0.75,1.42,-1.64,792.00,1728.00,676.00,770.00,2211.00,3770.00,976.00,1397.00,,,,,,,,,,,,0,0,0,,-932,14120,7380,-40,130,-186
28.095,27.89,-0.54,-5.52,4.44,3.52,-2.46,-1.87,0.43,-3.38,1.35,600.00,1834.00,785.00,700.00,2175.00,4051.00,906.00,1559.00,,,,,,,,,,,,0,0,0,,-996,14060,7576,-48,112,-139
28.115,27.94,-0.60,2.63,-2.86,-4.59,1.79,-1.59,1.10,-2.41,2.80,768.00,1616.00,723.00,861.00,2087.00,3935.00,823.00,1443.00,,,,,,,,,,,,0,0,0,,-896,14108,7464,-115,137,-147
28.176,28.00,-0.50,5.03,-9.26,-4.00,4.37,1.39,-1.50,4.01,-3.67,1040.00,1745.00,622.00,785.00,2275.00,3750.00,1039.00,1331.00,,,,,,,,,,,,0,0,0,,-920,14148,7588,-133,116,-134
28.238,28.05,-0.58,-9.64,7.10,6.44,-4.51,-2.10,0.36,-4.53,1.63,560.00,2010.00,832.00,659.00,2192.00,4095.00,911.00,1619.00,,,,,,,,,,,,0,0,0,,-816,14084,7668,-164,111,-169
28.299,28.11,-0.66,2.76,-2.29,-5.55,1.51,-2.19,1.38,-4.17,4.41,743.00,1583.00,747.00,901.00,2078.00,3999.00,779.00,1482.00,,,,,,,,,,,,0,0,0,,-904,14128,7548,-133,108,-202
28.339,28.16,-0.61,6.42,-10.72,-4.58,4.25,0.21,-1.13,2.54,-3.19,1097.00,1717.00,633.00,806.00,2279.00,3891.00,1040.00,1393.00,,,,,,,,,,,,0,0,0,,-952,14124,7460,-80,142,-185
28.442,28.22,-0.66,-11.33,10.17,2.12,-2.05,-1.61,-0.06,-2.25,0.31,489.00,1979.00,788.00,732.00,2223.00,4063.00,939.00,1533.00,,,,,,,,,,,,0,0,0,,-888,14312,7448,-84,126,-230
28.463,28.27,-0.72,2.59,-1.73,-1.16,-0.48,-1.80,0.81,-2.64,2.32,723.00,1570.00,768.00,799.00,2128.00,3999.00,848.00,1475.00,,,,,,,,,,,,0,0,0,,-984,14016,7484,-218,44,-213
28.505,28.33,-0.72,2.30,-4.22,-3.59,2.00,-0.70,0.44,-0.83,0.78,832.00,1698.00,702.00,823.00,2128.00,3867.00,892.00,1431.00,,,,,,,,,,,,0,0,0,,-892,14112,7544,-136,115,-215
28.567,28.39,-0.64,1.69,-4.04,-1.85,1.87,0.94,-0.74,0.93,-1.19,833.00,1731.00,685.00,771.00,2202.00,3741.00,961.00,1407.00,,,,,,,,,,,,0,0,0,,-984,13992,7376,-103,100,-117
28.629,28.44,-0.67,-6.43,4.84,3.27,-2.35,-1.39,0.41,-2.82,1.10,597.00,1881.00,784.00,705.00,2158.00,3977.00,909.00,1535.00,,,,,,,,,,,,0,0,0,,-856,14200,7564,-144,160,-139
28.691,28.50,-0.69,3.18,-3.31,-4.07,1.29,-1.04,1.06,-2.36,2.78,779.00,1600.00,736.00,855.00,2070.00,3854.00,823.00,1441.00,,,,,,,,,,,,0,0,0,,-920,14172,7548,-86,159,-178
28.752,28.55,-0.56,5.44,-9.40,-3.52,4.33,1.98,-1.46,4.02,-3.65,1040.00,1723.00,618.00,771.00,2246.00,3659.00,1038.00,1330.00,,,,,,,,,,,,0,0,0,,-944,14040,7540,-121,86,-203
28.814,28.60,-0.63,-11.37,8.67,6.88,-4.41,-1.96,0.49,-4.48,1.70,531.00,2064.00,821.00,646.00,2171.00,4058.00,907.00,1613.00,,,,,,,,,,,,0,0,0,,-824,14104,7428,-120,75,-130
28.835,28.66,-0.67,3.40,-2.08,-5.20,1.67,-1.40,1.39,-3.66,4.33,726.00,1535.00,736.00,885.00,2047.00,3875.00,775.00,1455.00,,,,,,,,,,,,0,0,0,,-936,14148,7604,-100,71,-217
28.895,28.71,-0.58,7.00,-10.76,-4.57,4.51,1.02,-0.96,2.60,-2.91,1088.00,1680.00,624.00,800.00,2225.00,3751.00,1023.00,1379.00,,,,,,,,,,,,0,0,0,,-1004,14068,7404,-80,67,-229
28.956,28.77,-0.59,-11.89,11.57,2.35,-1.78,-0.76,0.02,-1.92,0.44,458.00,1949.00,773.00,720.00,2179.00,3920.00,927.00,1508.00,,,,,,,,,,,,0,0,0,,-880,14052,7480,-118,35,-178
28.998,28.82,-0.63,2.62,-0.93,-1.04,0.04,-1.41,0.79,-2.69,2.34,692.00,1535.00,745.00,784.00,2115.00,3939.00,848.00,1477.00,,,,,,,,,,,,0,0,0,,-1044,14148,7660,-156,74,-188
29.058,28.88,-0.66,2.59,-4.34,-3.56,2.23,-1.13,0.56,-1.23,0.75,833.00,1684.00,693.00,817.00,2131.00,3921.00,900.00,1455.00,,,,,,,,,,,,0,0,0,,-916,14088,7628,-173,83,-175
29.119,28.93,-0.61,0.76,-3.00,-2.61,2.31,0.32,-0.67,0.60,-1.17,801.00,1747.00,678.00,785.00,2218.00,3826.00,966.00,1425.00,,,,,,,,,,,,0,0,0,,-900,14080,7636,-210,38,-210
29.181,28.99,-0.69,-6.45,4.79,3.49,-2.68,-2.22,0.54,-3.61,1.31,599.00,1885.00,795.00,705.00,2176.00,4095.00,912.00,1575.00,,,,,,,,,,,,0,0,0,,-904,14168,7596,-147,72,-130
29.244,29.05,-0.76,2.53,-3.06,-4.98,1.65,-2.06,1.11,-2.94,2.67,778.00,1631.00,734.00,878.00,2103.00,4007.00,837.00,1479.00,,,,,,,,,,,,0,0,0,,-824,14052,7636,-162,67,-162
29.284,29.10,-0.67,4.59,-8.72,-4.38,4.50,1.06,-1.43,3.36,-3.54,1018.00,1750.00,622.00,794.00,2280.00,3792.00,1044.00,1361.00,,,,,,,,,,,,0,0,0,,-956,14048,7688,-189,-33,-277
29.325,29.16,-0.74,-10.95,8.04,6.53,-4.48,-2.22,0.54,-4.58,1.53,545.00,2064.00,829.00,656.00,2176.00,4095.00,917.00,1627.00,,,,,,,,,,,,0,0,0,,-1056,14028,7648,-130,59,-213
29.406,29.21,-0.79,2.48,-1.87,-4.82,1.37,-1.63,1.47,-3.80,4.19,730.00,1583.00,743.00,879.00,2047.00,3902.00,783.00,1469.00,,,,,,,,,,,,0,0,0,,-1048,13984,7620,-99,120,-186
29.446,29.26,-0.70,6.23,-10.00,-4.62,4.67,0.91,-0.92,2.37,-2.83,1059.00,1697.00,619.00,798.00,2224.00,3763.00,1023.00,1389.00,,,,,,,,,,,,0,0,0,,-960,14040,7648,-152,125,-47
29.547,29.32,-0.70,-10.61,10.01,2.53,-1.84,-0.64,-0.13,-1.95,0.01,487.00,1932.00,773.00,716.00,2192.00,3917.00,949.00,1527.00,,,,,,,,,,,,0,0,0,,-760,14044,7512,-101,182,-44
29.567,29.37,-0.74,3.13,-1.68,-0.55,-0.19,-1.41,0.72,-3.30,2.41,714.00,1535.00,748.00,774.00,2123.00,3947.00,854.00,1510.00,,,,,,,,,,,,0,0,0,,-772,14064,7580,-137,92,-258
29.608,29.43,-0.75,2.81,-4.42,-3.31,2.22,-0.95,0.54,-1.28,0.34,833.00,1673.00,690.00,809.00,2126.00,3894.00,921.00,1474.00,,,,,,,,,,,,0,0,0,,-864,14044,7764,-193,140,-170
29.669,29.48,-0.68,1.18,-3.26,-1.95,2.45,0.65,-0.83,0.74,-1.69,806.00,1730.00,665.00,762.00,2224.00,3793.00,991.00,1437.00,,,,,,,,,,,,0,0,0,,-952,14140,7656,-188,49,-283
29.71,29.54,-0.75,-5.97,4.38,3.71,-2.35,-2.22,0.55,-3.89,1.16,607.00,1870.00,778.00,693.00,2175.00,4095.00,924.00,1599.00,,,,,,,,,,,,0,0,0,,-828,14008,7720,-135,59,-264
29.772,29.59,-0.80,2.96,-3.32,-4.35,1.79,-1.64,1.08,-4.54,2.96,783.00,1615.00,720.00,853.00,2091.00,3945.00,848.00,1563.00,,,,,,,,,,,,0,0,0,,-924,14000,7604,-141,88,-263
29.833,29.65,-0.70,4.54,-8.49,-3.70,4.60,1.14,-1.38,3.03,-3.72,1006.00,1742.00,611.00,771.00,2271.00,3775.00,1061.00,1386.00,,,,,,,,,,,,0,0,0,,-944,14080,7596,-144,69,-189
29.915,29.70,-0.77,-10.88,7.82,7.14,-4.46,-2.11,0.37,-4.81,1.05,551.00,2071.00,819.00,640.00,2191.00,4095.00,945.00,1663.00,,,,,,,,,,,,0,0,0,,-904,13984,7784,-169,102,-186
29.935,29.76,-0.86,2.75,-1.63,-5.06,1.67,-2.52,1.43,-5.60,4.14,717.00,1556.00,734.00,880.00,2085.00,4047.00,811.00,1579.00,,,,,,,,,,,,0,0,0,,-1044,13944,7828,-214,148,-127
29.998,29.82,-0.82,6.13,-10.10,-4.20,4.38,-0.14,-0.88,1.83,-3.30,1067.00,1709.00,624.00,791.00,2262.00,3918.00,1060.00,1437.00,,,,,,,,,,,,0,0,0,,-892,13976,7800,-217,208,-113
30.059,29.87,-0.88,-11.43,10.67,2.25,-1.62,-1.91,0.08,-2.88,0.11,477.00,1961.00,768.00,720.00,2218.00,4095.00,960.00,1580.00,,,,,,,,,,,,1,1,0,,-804,14132,7728,-138,207,-93
30.099,29.92,-0.94,2.22,-1.11,-1.08,0.01,-2.06,0.75,-3.38,1.95,704.00,1567.00,747.00,786.00,2145.00,4047.00,877.00,1534.00,,,,,,,,,,,,1,1,0,,-896,14012,7912,-193,134,-223
30.163,29.98,-0.95,2.71,-4.30,-3.11,2.21,-1.11,0.58,-1.65,0.60,829.00,1674.00,688.00,803.00,2128.00,3915.00,914.00,1485.00,,,,,,,,,,,,1,1,0,,-1016,13984,7936,-38,140,-225
30.224,30.03,-0.87,0.71,-2.66,-1.98,2.40,0.57,-0.69,0.34,-1.41,787.00,1734.00,667.00,764.00,2211.00,3791.00,983.00,1449.00,,,,,,,,,,,,1,1,0,,-936,13828,7816,49,162,-176
30.285,30.09,-0.92,-6.22,5.21,4.32,-2.39,-1.97,0.59,-3.68,1.15,583.00,1847.00,771.00,677.00,2160.00,4049.00,921.00,1586.00,,,,,,,,,,,,1,1,0,,-1068,13904,7620,-39,94,-167
30.328,30.14,-0.95,3.30,-3.08,-4.23,1.82,-1.41,1.13,-2.84,2.39,768.00,1583.00,717.00,848.00,2076.00,3903.00,848.00,1484.00,,,,,,,,,,,,1,1,0,,-884,14172,7656,-118,84,-155
30.39,30.20,-0.82,4.94,-8.65,-3.55,4.67,1.64,-1.42,3.11,-3.63,1008.00,1723.00,607.00,765.00,2255.00,3705.00,1054.00,1378.00,,,,,,,,,,,,1,1,0,,-932,13960,7840,-151,74,-207
30.451,30.25,-0.89,-10.66,8.53,7.07,-4.23,-2.25,0.58,-4.69,1.33,528.00,2014.00,810.00,638.00,2172.00,4095.00,929.00,1643.00,,,,,,,,,,,,1,1,0,,-896,14092,7700,-154,37,-159
30.513,30.31,-0.93,3.10,-1.64,-5.18,2.07,-1.67,1.42,-4.03,3.80,713.00,1535.00,720.00,875.00,2054.00,3914.00,803.00,1498.00,,,,,,,,,,,,1,1,0,,-872,14036,7744,-94,-30,-264
30.575,30.36,-0.85,6.44,-10.02,-4.03,4.74,0.66,-0.84,2.05,-3.08,1056.00,1684.00,610.00,778.00,2225.00,3792.00,1043.00,1416.00,,,,,,,,,,,,1,1,0,,-1004,14044,7700,-18,-31,-235
30.636,30.42,-0.87,-10.93,10.42,3.19,-1.70,-1.23,0.16,-2.11,0.05,479.00,1935.00,758.00,695.00,2182.00,3979.00,950.00,1535.00,,,,,,,,,,,,1,1,0,,-916,13936,7772,-6,32,-224
30.678,30.48,-0.92,2.02,-0.62,-0.52,0.14,-1.78,0.86,-3.18,2.07,688.00,1559.00,734.00,766.00,2122.00,3991.00,868.00,1517.00,,,,,,,,,,,,1,1,0,,-976,14004,7884,-24,159,-195
30.7,30.53,-0.94,2.09,-3.84,-3.11,2.21,-1.38,0.66,-1.64,0.54,818.00,1695.00,688.00,803.00,2129.00,3949.00,917.00,1487.00,,,,,,,,,,,,1,1,0,,-1020,13940,7796,-86,65,-168
30.762,30.58,-0.89,0.77,-3.01,-1.67,2.19,0.04,-0.61,0.44,-1.59,801.00,1746.00,671.00,759.00,2222.00,3862.00,991.00,1450.00,,,,,,,,,,,,1,1,0,,-904,14156,7720,-13,60,-187
30.824,30.64,-0.95,-6.85,5.65,3.70,-2.40,-2.19,0.50,-3.67,0.93,576.00,1872.00,780.00,694.00,2179.00,4095.00,932.00,1595.00,,,,,,,,,,,,1,1,0,,-788,13820,7736,-28,55,-192
30.886,30.69,-1.01,2.34,-2.64,-4.58,1.87,-2.01,1.27,-3.00,2.40,763.00,1625.00,720.00,859.00,2083.00,3982.00,850.00,1493.00,,,,,,,,,,,,1,1,0,,-1052,14124,7824,-168,-20,-295
30.949,30.75,-0.87,4.78,-8.49,-3.08,4.12,1.69,-1.40,3.19,-3.69,1002.00,1726.00,620.00,762.00,2251.00,3696.00,1056.00,1376.00,,,,,,,,,,,,1,1,0,,-960,14064,7872,63,122,-310
31.011,30.80,-0.94,-10.89,8.54,7.41,-4.32,-2.17,0.61,-4.51,1.01,530.00,2032.00,809.00,631.00,2166.00,4080.00,942.00,1645.00,,,,,,,,,,,,1,1,0,,-924,13860,7500,558,-28,-34
31.032,30.86,-0.96,3.61,-2.15,-4.64,1.91,-1.40,1.43,-3.74,3.52,726.00,1525.00,719.00,860.00,2043.00,3871.00,811.00,1492.00,,,,,,,,,,,,1,1,0,,-1040,14356,7564,1127,-680,162
31.093,30.91,-0.87,6.69,-10.29,-4.60,5.30,0.87,-0.90,2.06,-3.01,1067.00,1680.00,598.00,784.00,2224.00,3767.00,1039.00,1413.00,,,,,,,,,,,,1,1,0,,-816,14160,7556,1083,-507,337
31.156,30.97,-0.85,-11.22,10.83,3.20,-1.55,-0.50,-0.61,-2.04,-0.05,471.00,1936.00,752.00,692.00,2244.00,3945.00,954.00,1535.00,,,,,,,,,,,,1,1,0,,-676,13856,7860,709,-83,442
31.196,31.02,-0.88,2.20,-0.84,-3.80,1.20,-1.47,0.78,-3.21,2.04,694.00,1557.00,736.00,848.00,2119.00,3950.00,870.00,1520.00,,,,,,,,,,,,1,1,0,,-596,14200,7280,83,705,417
31.321,31.08,-0.89,2.16,-3.77,-2.74,2.03,-1.06,0.56,-1.68,0.68,814.00,1687.00,690.00,795.00,2128.00,3910.00,911.00,1484.00,,,,,,,,,,,,1,1,0,,-348,14124,7496,54,333,-103
31.342,31.14,-0.82,1.72,-4.38,-1.72,2.26,0.55,-0.79,0.45,-1.52,848.00,1745.00,669.00,759.00,2223.00,3803.00,987.00,1447.00,,,,,,,,,,,,1,1,0,,-472,14512,7684,317,-208,-231
31.383,31.19,-0.89,-6.23,4.93,4.03,-2.55,-2.18,0.48,-3.76,0.92,592.00,1862.00,782.00,688.00,2181.00,4095.00,934.00,1601.00,,,,,,,,,,,,1,1,0,,-724,14408,7892,310,-444,-239
31.444,31.25,-0.93,2.13,-2.45,-4.38,1.75,-1.84,1.24,-3.24,2.50,758.00,1630.00,722.00,855.00,2080.00,3959.00,849.00,1503.00,,,,,,,,,,,,1,1,0,,-776,14180,7608,330,-72,-311
31.486,31.30,-0.83,4.22,-8.15,-3.58,4.56,1.12,-1.42,3.18,-3.65,994.00,1749.00,611.00,768.00,2276.00,3781.00,1054.00,1375.00,,,,,,,,,,,,1,1,0,,-784,14000,7232,15,337,-347
31.547,31.35,-0.89,-11.28,8.22,6.46,-4.32,-2.10,0.36,-4.79,1.24,543.00,2081.00,823.00,655.00,2192.00,4095.00,935.00,1653.00,,,,,,,,,,,,1,1,0,,-640,14248,7052,-229,665,-107
31.609,31.41,-0.98,2.03,-1.46,-5.28,1.62,-2.58,1.50,-4.48,4.04,720.00,1594.00,739.00,889.00,2079.00,4048.00,799.00,1515.00,,,,,,,,,,,,1,1,0,,-648,13988,7428,-82,627,-71
31.671,31.46,-0.92,5.74,-9.83,-4.76,4.69,0.19,-0.83,1.84,-3.01,1059.00,1723.00,620.00,802.00,2242.00,3861.00,1043.00,1425.00,,,,,,,,,,,,1,1,0,,-672,14444,7996,-227,688,-243
31.753,31.52,-0.93,-11.27,10.85,2.75,-1.48,-1.05,0.00,-2.61,0.33,471.00,1939.00,755.00,703.00,2193.00,3967.00,944.00,1554.00,,,,,,,,,,,,1,1,0,,-576,14360,7280,196,1023,-46
31.773,31.57,-0.94,2.48,-0.72,-0.62,0.10,-1.27,0.62,-3.20,2.10,686.00,1535.00,737.00,770.00,2130.00,3937.00,867.00,1517.00,,,,,,,,,,,,1,1,0,,-500,14092,6628,577,581,-256
31.814,31.63,-0.94,1.77,-3.39,-2.93,1.99,-0.86,0.54,-1.73,0.67,803.00,1696.00,694.00,802.00,2123.00,3881.00,912.00,1487.00,,,,,,,,,,,,1,1,0,,-820,14196,6796,-32,449,-146
31.876,31.68,-0.87,1.67,-3.92,-2.08,2.30,0.40,-0.66,0.41,-1.35,828.00,1727.00,672.00,769.00,2214.00,3813.00,979.00,1443.00,,,,,,,,,,,,1,1,0,,-872,14380,7272,-118,682,-26
31.917,31.74,-0.94,-6.03,4.55,3.90,-2.75,-2.15,0.52,-3.79,1.28,602.00,1866.00,792.00,695.00,2176.00,4087.00,916.00,1587.00,,,,,,,,,,,,1,1,0,,-984,14728,7244,-447,924,-182
31.977,31.80,-0.98,2.61,-2.87,-4.45,1.67,-1.82,1.29,-2.73,2.68,769.00,1618.00,726.00,859.00,2074.00,3951.00,833.00,1466.00,,,,,,,,,,,,1,1,0,,-712,14744,6888,-22,694,128
32.038,31.85,-0.86,4.62,-8.64,-3.83,4.40,1.46,-1.37,3.32,-3.45,1013.00,1744.00,619.00,779.00,2257.00,3727.00,1040.00,1360.00,,,,,,,,,,,,1,1,0,,-924,14388,6576,225,79,-109
32.12,31.91,-0.92,-10.46,7.38,6.76,-4.53,-2.17,0.47,-4.66,1.46,560.00,2061.00,828.00,651.00,2182.00,4095.00,922.00,1635.00,,,,,,,,,,,,1,1,0,,-780,14348,6504,-208,27,82
32.14,31.96,-0.99,2.75,-1.63,-5.16,1.60,-2.16,1.76,-4.10,4.19,717.00,1556.00,738.00,885.00,2035.00,3955.00,787.00,1486.00,,,,,,,,,,,,1,1,0,,-1132,14812,6672,-1082,229,-120
32.202,32.02,-0.93,5.16,-8.86,-4.75,4.54,0.22,-0.80,1.89,-2.86,1015.00,1717.00,625.00,805.00,2238.00,3855.00,1034.00,1417.00,,,,,,,,,,,,1,1,0,,-1076,14172,7180,-1403,654,-101
32.243,32.07,-0.95,-11.35,10.84,2.34,-1.65,-1.33,0.08,-2.67,0.35,472.00,1946.00,768.00,718.00,2195.00,4003.00,944.00,1557.00,,,,,,,,,,,,1,1,0,,-664,14768,7304,-1006,625,131
32.303,32.13,-1.00,1.73,-0.79,-1.50,0.03,-2.00,0.88,-3.49,2.31,698.00,1584.00,752.00,799.00,2127.00,4022.00,862.00,1526.00,,,,,,,,,,,,1,1,0,,-656,14360,7156,-644,-23,-308
32.364,32.18,-1.02,1.45,-3.51,-3.46,1.67,-1.34,0.54,-1.71,0.63,813.00,1723.00,713.00,826.00,2141.00,3955.00,914.00,1488.00,,,,,,,,,,,,1,1,0,,-832,14288,7440,-615,-334,-432
32.427,32.24,-0.94,0.33,-2.39,-2.09,1.79,0.49,-0.64,0.42,-1.32,781.00,1748.00,691.00,780.00,2208.00,3797.00,977.00,1441.00,,,,,,,,,,,,1,1,0,,-968,14692,8104,-197,-374,-421
32.489,32.29,-0.98,-5.80,4.23,3.44,-2.33,-1.75,0.62,-3.43,1.18,610.00,1865.00,781.00,700.00,2148.00,4011.00,915.00,1569.00,,,,,,,,,,,,1,1,1,,-1016,14288,8020,143,-309,-338
32.55,32.35,-0.98,3.22,-3.01,-4.24,1.75,-0.90,1.01,-2.98,2.77,766.00,1585.00,720.00,850.00,2071.00,3838.00,833.00,1477.00,,,,,,,,,,,,1,1,1,,-1136,14908,7476,560,-220,69
32.593,32.40,-0.84,4.82,-8.25,-3.85,4.29,1.85,-1.39,3.43,-3.47,988.00,1712.00,623.00,782.00,2243.00,3671.00,1039.00,1355.00,,,,,,,,,,,,1,1,1,,-896,14720,7000,649,-58,-14
32.656,32.46,-0.89,-11.57,9.08,6.65,-4.24,-2.01,0.58,-4.34,1.33,521.00,2057.00,817.00,649.00,2163.00,4057.00,923.00,1620.00,,,,,,,,,,,,1,1,1,,-880,14416,6464,682,326,-150
32.717,32.51,-0.92,3.47,-1.82,-4.74,1.41,-1.50,1.50,-3.80,3.95,715.00,1520.00,740.00,875.00,2039.00,3879.00,793.00,1478.00,,,,,,,,,,,,1,1,1,,-908,14572,6180,984,232,-296
32.758,32.57,-0.84,6.27,-9.68,-4.13,3.95,0.74,-0.81,1.92,-2.68,1040.00,1680.00,638.00,798.00,2218.00,3777.00,1023.00,1408.00,,,,,,,,,,,,1,1,1,,-616,14116,6204,1094,385,-107
32.84,32.62,-0.84,-10.76,10.68,2.60,-1.62,-0.73,-0.02,-2.20,0.22,471.00,1909.00,763.00,710.00,2183.00,3920.00,943.00,1534.00,,,,,,,,,,,,1,1,1,,-352,14352,5752,597,662,221
32.862,32.67,-0.87,2.61,-1.32,-0.97,-0.05,-1.51,0.83,-2.80,2.05,707.00,1552.00,748.00,784.00,2115.00,3952.00,863.00,1495.00,,,,,,,,,,,,1,1,1,,-488,14728,5600,-147,561,116
32.902,32.73,-0.88,2.06,-3.49,-3.06,1.77,-1.03,0.54,-1.44,0.66,803.00,1681.00,704.00,811.00,2129.00,3907.00,908.00,1471.00,,,,,,,,,,,,1,1,1,,-552,14536,6028,-710,137,49
32.963,32.78,-0.82,0.55,-2.63,-2.43,2.14,0.30,-0.60,0.48,-1.15,788.00,1744.00,682.00,783.00,2211.00,3822.00,967.00,1431.00,,,,,,,,,,,,1,1,1,,-832,14368,6592,-1089,-241,-180
33.026,32.84,-0.89,-5.30,3.67,3.03,-2.52,-2.23,0.56,-3.98,1.33,623.00,1856.00,795.00,715.00,2174.00,4095.00,917.00,1597.00,,,,,,,,,,,,1,1,1,,-868,14352,7252,-1016,-360,-115
33.067,32.90,-0.94,2.67,-2.94,-5.05,1.74,-1.84,1.25,-3.16,2.78,771.00,1617.00,731.00,878.00,2079.00,3958.00,835.00,1487.00,,,,,,,,,,,,1,1,1,,-764,14576,8032,-798,435,-227
33.151,32.95,-0.81,4.27,-8.19,-3.91,4.43,1.57,-1.44,3.27,-3.45,995.00,1747.00,619.00,781.00,2260.00,3717.00,1041.00,1363.00,,,,,,,,,,,,1,1,1,,-856,14552,7684,-917,136,-781
33.254,33.01,-0.86,-10.68,8.43,7.29,-4.55,-1.87,0.74,-4.34,1.43,531.00,2021.00,821.00,638.00,2139.00,4018.00,918.00,1616.00,,,,,,,,,,,,1,1,1,,-876,14248,7016,131,-392,-468
33.275,33.06,-0.87,3.34,-1.80,-4.80,1.71,-0.95,1.51,-3.82,4.19,716.00,1527.00,729.00,870.00,2017.00,3794.00,783.00,1470.00,,,,,,,,,,,,1,1,1,,-712,13560,7152,239,-1153,-157
33.296,33.12,-0.74,6.18,-8.96,-3.58,4.32,1.76,-0.86,2.56,-2.84,1002.00,1654.00,619.00,773.00,2183.00,3632.00,1020.00,1379.00,,,,,,,,,,,,1,1,1,,-724,14012,7544,171,-1064,-158
33.358,33.17,-0.69,-10.85,11.34,3.71,-1.70,0.28,-0.08,-1.64,-0.05,455.00,1882.00,751.00,681.00,2150.00,3772.00,947.00,1511.00,,,,,,,,,,,,1,1,1,,-680,14232,7584,207,-511,-98
33.398,33.23,-0.67,3.14,-0.59,-0.38,0.63,-0.31,0.88,-2.73,2.37,673.00,1490.00,713.00,752.00,2063.00,3763.00,847.00,1478.00,,,,,,,,,,,,1,1,1,,-528,14032,7068,-144,-128,-221
33.462,33.28,-0.62,2.98,-3.57,-2.12,2.31,0.24,0.64,-1.10,0.67,793.00,1624.00,672.00,770.00,2069.00,3705.00,902.00,1451.00,,,,,,,,,,,,1,1,1,,-664,14220,7196,-338,361,-127
33.522,33.34,-0.51,1.49,-2.86,-0.82,2.43,1.70,-0.59,1.11,-1.42,784.00,1690.00,652.00,729.00,2154.00,3615.00,970.00,1406.00,,,,,,,,,,,,1,1,1,,-740,13868,7272,-635,1066,-239
33.583,33.39,-0.52,-7.26,6.77,5.20,-2.40,-0.79,0.67,-2.99,0.58,546.00,1846.00,759.00,654.00,2105.00,3856.00,938.00,1567.00,,,,,,,,,,,,1,1,1,,-756,14304,7236,-778,932,-349
33.623,33.45,-0.50,4.03,-2.77,-2.98,1.93,-0.10,1.22,-2.38,2.65,745.00,1525.00,697.00,805.00,2018.00,3698.00,829.00,1447.00,,,,,,,,,,,,1,1,1,,-1004,14168,7636,-690,288,-480
33.684,33.50,-0.33,5.87,-9.04,-3.04,5.06,2.86,-1.31,3.40,-3.57,1012.00,1678.00,589.00,742.00,2192.00,3519.00,1045.00,1360.00,,,,,,,,,,,,1,1,1,,-968,14164,7988,-1074,-82,-386
33.725,33.56,-0.37,-11.98,10.13,8.06,-3.96,-1.07,0.78,-4.43,1.12,496.00,2033.00,784.00,609.00,2103.00,3888.00,935.00,1635.00,,,,,,,,,,,,1,1,1,,-1200,14576,8296,-1122,705,-368
33.786,33.61,-0.38,3.77,-0.97,-3.97,1.71,-0.54,1.68,-3.55,3.57,679.00,1468.00,718.00,842.00,1984.00,3717.00,806.00,1479.00,,,,,,,,,,,,1,1,1,,-876,13844,7856,-675,170,-501
33.887,33.67,-0.25,7.82,-10.81,-3.04,5.31,2.21,-0.65,2.27,-2.79,1075.00,1629.00,581.00,737.00,2141.00,3549.00,1023.00,1393.00,,,,,,,,,,,,1,1,1,,-1080,13504,8328,-1130,-942,30
33.907,33.72,-0.17,-12.99,14.12,4.79,-1.16,1.25,0.23,-0.99,-0.45,407.00,1901.00,715.00,643.00,2077.00,3600.00,956.00,1488.00,,,,,,,,,,,,1,1,1,,-1488,13856,9056,-1838,-587,-333
33.967,33.78,-0.09,2.32,1.35,1.90,0.69,1.58,1.39,-2.65,2.30,615.00,1461.00,682.00,686.00,1939.00,3444.00,849.00,1476.00,,,,,,,,,,,,1,1,1,,-1148,13524,9108,-1421,-512,-743
34.031,33.83,0.05,4.73,-3.71,0.22,3.77,2.64,1.35,-0.63,0.39,774.00,1521.00,595.00,675.00,1906.00,3306.00,908.00,1435.00,,,,,,,,,,,,1,1,1,,-836,12864,8892,-247,-336,366
34.073,33.89,0.26,3.89,-4.49,1.76,4.67,4.32,0.28,1.74,-1.71,820.00,1606.00,551.00,620.00,1959.00,3184.00,974.00,1382.00,,,,,,,,,,,,1,1,1,,-312,13216,8988,-393,-328,1002
34.135,33.94,0.37,-7.66,9.25,8.96,-1.28,2.36,1.33,-2.52,1.00,481.00,1755.00,667.00,547.00,1918.00,3345.00,909.00,1521.00,,,,,,,,,,,,1,1,1,,4,13308,9568,-650,-75,433
34.177,34.00,0.47,5.59,-2.14,-1.08,3.96,2.45,2.26,-1.44,2.47,700.00,1410.00,603.00,707.00,1821.00,3251.00,823.00,1401.00,,,,,,,,,,,,1,1,1,,-308,14016,9644,-163,245,-145
34.238,34.05,0.72,6.87,-8.54,-0.04,7.15,5.41,-0.56,5.30,-3.81,967.00,1591.00,498.00,623.00,2010.00,3119.00,1023.00,1270.00,,,,,,,,,,,,1,1,1,,-452,13028,10032,1194,-301,605
34.32,34.10,0.79,-11.72,12.13,13.37,-3.99,2.04,1.06,-2.85,1.58,443.00,1907.00,713.00,494.00,1958.00,3413.00,886.00,1517.00,,,,,,,,,,,,1,1,1,,-820,13064,10060,1720,-524,348
34.34,34.16,0.84,5.55,-1.04,-1.61,3.10,1.89,2.30,-2.22,4.72,660.00,1371.00,638.00,739.00,1835.00,3320.00,739.00,1360.00,,,,,,,,,,,,1,1,1,,-596,12756,8808,1682,556,49
34.402,34.22,1.00,8.17,-9.65,-1.47,6.37,4.09,-0.16,4.10,-2.65,1003.00,1557.00,533.00,673.00,2014.00,3250.00,982.00,1291.00,,,,,,,,,,,,1,1,1,,64,13352,7932,221,1359,180
34.464,34.27,1.09,-10.80,12.37,7.13,-1.34,2.74,0.43,-0.60,0.23,430.00,1827.00,692.00,589.00,2000.00,3376.00,915.00,1439.00,,,,,,,,,,,,1,1,1,,456,13572,7880,-738,2353,-215
34.528,34.33,1.13,3.48,0.57,2.22,0.88,1.84,1.33,-1.66,2.61,628.00,1425.00,671.00,674.00,1936.00,3414.00,820.00,1408.00,,,,,,,,,,,,1,1,1,,500,13588,7996,-1026,1653,-959
34.568,34.38,1.20,4.50,-3.61,-0.04,2.69,2.55,0.36,0.11,0.78,773.00,1531.00,634.00,702.00,2014.00,3407.00,877.00,1379.00,,,,,,,,,,,,1,1,1,,-640,14196,8400,-207,1426,-1646
34.628,34.44,1.31,2.37,-2.84,0.74,3.23,3.46,-0.39,2.36,-1.34,771.00,1632.00,607.00,671.00,2063.00,3353.00,944.00,1335.00,,,,,,,,,,,,1,1,1,,-1672,14644,7728,606,277,-2321
34.69,34.49,1.30,-6.82,7.24,6.71,-2.08,1.07,0.81,-2.44,1.57,528.00,1791.00,726.00,611.00,2020.00,3570.00,880.00,1493.00,,,,,,,,,,,,1,1,1,,-2120,13956,8412,444,-666,-2092
34.753,34.55,1.33,5.56,-2.47,-2.06,2.38,1.96,1.50,-1.33,3.31,713.00,1424.00,669.00,767.00,1914.00,3383.00,785.00,1364.00,,,,,,,,,,,,1,1,1,,-2436,13320,8448,838,-202,-575
34.794,34.60,1.52,7.34,-9.20,-0.83,5.55,5.14,-1.19,5.93,-3.64,994.00,1590.00,551.00,671.00,2090.00,3206.00,1002.00,1233.00,,,,,,,,,,,,1,1,1,,-1924,13252,7808,537,679,-106
34.835,34.66,1.53,-11.02,11.12,11.63,-4.39,1.67,0.80,-2.49,1.44,462.00,1906.00,752.00,535.00,1999.00,3487.00,887.00,1501.00,,,,,,,,,,,,1,1,1,,-1536,13608,6872,-628,1331,644
34.897,34.71,1.55,5.71,-0.93,-2.48,2.46,1.89,1.88,-2.04,4.74,654.00,1358.00,671.00,778.00,1878.00,3358.00,736.00,1350.00,,,,,,,,,,,,1,1,1,,-1036,13656,7084,-1384,1304,671
34.959,34.77,1.69,8.77,-10.00,-1.76,5.49,4.38,-0.71,4.67,-2.62,1011.00,1535.00,562.00,697.00,2064.00,3261.00,970.00,1261.00,,,,,,,,,,,,1,1,1,,-752,14512,6720,-1725,644,475
35.041,34.82,1.75,-11.19,13.34,6.20,-1.40,2.92,0.16,0.33,0.47,411.00,1808.00,706.00,612.00,2023.00,3376.00,888.00,1378.00,,,,,,,,,,,,1,1,1,,-992,14228,7536,-970,-511,-354
35.061,34.88,1.78,4.31,0.35,2.52,0.26,2.34,0.90,-0.47,2.67,626.00,1387.00,690.00,677.00,1964.00,3387.00,800.00,1341.00,,,,,,,,,,,,1,1,1,,-1236,14132,7972,-157,-1114,-802
35.123,34.93,1.83,4.88,-3.85,0.54,2.32,2.69,0.75,1.38,1.03,778.00,1518.00,640.00,693.00,1967.00,3353.00,845.00,1302.00,,,,,,,,,,,,1,1,1,,-1588,13640,7996,226,-1041,-1244
35.185,34.99,1.94,2.62,-2.61,1.80,2.51,4.18,-0.76,3.88,-1.21,758.00,1606.00,619.00,656.00,2077.00,3291.00,912.00,1253.00,,,,,,,,,,,,1,1,1,,-1788,13608,7808,30,-759,-903
35.247,35.04,1.94,-5.91,6.93,7.92,-2.69,1.84,0.34,-0.87,1.79,528.00,1742.00,734.00,592.00,2043.00,3507.00,845.00,1395.00,,,,,,,,,,,,1,1,1,,-1716,13764,7960,153,-680,-586
35.288,35.10,1.93,6.09,-3.48,-1.54,2.34,1.86,1.13,-0.06,3.33,746.00,1433.00,664.00,752.00,1957.00,3431.00,766.00,1296.00,,,,,,,,,,,,1,1,1,,-1580,13740,8092,357,-571,-279
35.351,35.15,2.07,7.24,-9.41,-0.21,5.07,4.66,-1.51,7.03,-3.47,1007.00,1605.00,559.00,663.00,2145.00,3296.00,973.00,1175.00,,,,,,,,,,,,1,1,1,,-1668,13936,7972,116,-463,-206
35.413,35.21,2.01,-10.81,10.15,10.77,-4.49,0.91,0.44,-1.69,1.66,485.00,1940.00,768.00,555.00,2067.00,3629.00,864.00,1446.00,,,,,,,,,,,,1,1,1,,-1452,13924,8092,77,-243,-105
35.434,35.26,1.97,5.12,-1.69,-2.20,2.09,1.23,1.45,-0.90,4.58,689.00,1419.00,681.00,777.00,1945.00,3487.00,727.00,1296.00,,,,,,,,,,,,1,1,1,,-1440,14028,7856,-165,-220,-338
35.496,35.32,2.08,7.92,-9.66,-1.02,4.88,4.10,-1.04,5.81,-2.64,1008.00,1573.00,573.00,688.00,2113.00,3328.00,951.00,1206.00,,,,,,,,,,,,1,1,1,,-1520,14040,8048,166,-358,-226
35.538,35.37,2.12,-10.36,11.97,6.89,-1.55,2.96,-0.20,1.14,0.66,436.00,1815.00,703.00,598.00,2061.00,3403.00,866.00,1328.00,,,,,,,,,,,,1,1,1,,-1644,14256,7576,395,-126,-151
35.6,35.42,2.15,4.41,-0.09,3.44,0.09,2.57,0.60,0.47,2.72,640.00,1398.00,685.00,656.00,1987.00,3382.00,784.00,1290.00,,,,,,,,,,,,1,1,1,,-1384,13604,7108,181,-46,176
35.661,35.48,2.19,5.47,-3.98,0.60,2.50,3.08,0.43,1.98,1.23,775.00,1488.00,633.00,688.00,1987.00,3330.00,827.00,1265.00,,,,,,,,,,,,1,1,1,,-1100,13524,7056,-455,135,39
35.723,35.53,2.30,4.09,-4.08,1.70,2.55,4.40,-0.71,3.98,-1.25,799.00,1576.00,619.00,658.00,2064.00,3259.00,912.00,1249.00,,,,,,,,,,,,1,1,1,,-1092,14336,7060,-1191,140,218
35.827,35.59,2.30,-6.47,8.13,7.15,-2.44,2.23,0.40,-1.00,1.32,500.00,1725.00,734.00,606.00,2022.00,3447.00,869.00,1420.00,,,,,,,,,,,,1,1,1,,-1384,14576,9048,409,-448,-128
35.848,35.65,2.30,7.31,-3.42,-0.95,1.92,2.37,1.13,0.08,2.65,727.00,1363.00,672.00,743.00,1938.00,3361.00,793.00,1313.00,,,,,,,,,,,,1,1,1,,-1464,14628,8960,2324,-179,396
35.889,35.70,2.45,8.47,-10.12,-0.01,4.84,5.29,-1.52,6.92,-3.71,1023.00,1558.00,564.00,662.00,2122.00,3216.00,988.00,1188.00,,,,,,,,,,,,1,1,1,,-1212,14736,8208,3473,357,626
35.931,35.76,2.41,-11.00,11.23,10.89,-4.26,1.67,0.47,-1.78,1.54,459.00,1899.00,757.00,549.00,2035.00,3518.00,871.00,1456.00,,,,,,,,,,,,1,1,1,,-784,14120,7040,3206,1011,591
35.995,35.81,2.39,6.40,-1.38,-2.09,2.03,1.99,1.37,-0.75,3.95,662.00,1338.00,682.00,775.00,1927.00,3391.00,750.00,1310.00,,,,,,,,,,,,1,1,1,,-776,14472,5960,2308,1141,455
36.058,35.87,2.47,9.74,-10.79,-1.22,4.85,3.98,-0.91,4.85,-2.58,1037.00,1509.00,576.00,694.00,2102.00,3331.00,965.00,1251.00,,,,,,,,,,,,1,1,1,,-692,14252,5356,1115,854,272
36.161,35.92,2.47,-10.97,13.04,6.02,-1.67,2.36,-0.06,0.27,0.62,416.00,1807.00,719.00,621.00,2068.00,3472.00,882.00,1376.00,,,,,,,,,,,,1,1,1,,-696,14100,4984,-202,468,309
36.181,35.98,2.42,3.73,0.23,2.41,-0.28,1.53,0.62,-0.37,2.27,637.00,1424.00,712.00,690.00,2023.00,3523.00,816.00,1350.00,,,,,,,,,,,,1,1,1,,-720,14196,5812,-1398,250,176
36.202,36.03,2.39,3.87,-2.11,0.55,1.14,1.85,0.17,0.98,0.44,721.00,1508.00,682.00,715.00,2061.00,3521.00,879.00,1344.00,,,,,,,,,,,,1,1,2,,-688,14656,6508,-1355,376,94
36.264,36.09,2.45,3.78,-3.81,0.87,1.78,3.52,-0.95,3.27,-1.31,792.00,1584.00,655.00,694.00,2125.00,3397.00,927.00,1287.00,,,,,,,,,,,,1,1,2,,-868,14664,7316,-1325,223,-327
36.326,36.14,2.40,-7.29,8.30,7.54,-2.94,1.55,0.24,-0.77,1.05,503.00,1774.00,749.00,605.00,2065.00,3556.00,878.00,1417.00,,,,,,,,,,,,1,1,2,,-1180,14564,7624,-948,140,-452
36.367,36.20,2.37,6.30,-2.77,-1.57,1.69,1.86,1.00,-0.05,2.78,715.00,1394.00,688.00,766.00,1970.00,3442.00,789.00,1315.00,,,,,,,,,,,,1,1,2,,-1048,14512,7360,-298,414,-142
36.43,36.25,2.50,7.49,-8.94,-0.76,4.83,4.83,-1.57,6.51,-3.71,977.00,1569.00,572.00,682.00,2145.00,3279.00,995.00,1207.00,,,,,,,,,,,,1,1,2,,-916,14120,7148,-334,527,-235
36.514,36.31,2.44,-11.09,11.14,11.25,-4.79,1.34,0.27,-1.98,1.41,462.00,1910.00,774.00,549.00,2069.00,3583.00,880.00,1472.00,,,,,,,,,,,,1,1,2,,-804,13944,6792,-488,469,-343
36.535,36.36,2.40,6.52,-1.45,-1.78,1.76,1.56,1.28,-1.32,4.32,663.00,1334.00,688.00,771.00,1951.00,3457.00,743.00,1327.00,,,,,,,,,,,,1,1,2,,-888,13968,6900,-949,111,-245
36.597,36.42,2.47,8.74,-9.92,-3.45,5.16,3.86,-0.97,5.20,-2.89,1007.00,1533.00,590.00,752.00,2114.00,3353.00,975.00,1244.00,,,,,,,,,,,,1,1,2,,-840,13928,7192,-1525,-240,-231
36.638,36.47,2.48,-10.39,12.36,6.36,-1.81,2.68,-0.37,0.79,0.15,427.00,1798.00,720.00,615.00,2090.00,3456.00,896.00,1365.00,,,,,,,,,,,,1,1,2,,-820,13920,7876,-1524,-520,-336
36.699,36.53,2.44,4.08,0.11,2.80,-0.15,1.73,0.65,-0.32,2.39,637.00,1409.00,702.00,677.00,2013.00,3493.00,810.00,1343.00,,,,,,,,,,,,1,1,2,,-944,13856,8308,-1332,-702,-542
36.761,36.58,2.43,5.09,-3.64,0.46,1.75,2.25,0.48,1.27,0.94,766.00,1497.00,661.00,706.00,2012.00,3437.00,851.00,1311.00,,,,,,,,,,,,1,1,2,,-1168,13612,8624,-1073,-778,-388
36.823,36.64,2.50,3.57,-3.79,1.51,2.37,3.70,-0.85,3.75,-1.35,794.00,1596.00,627.00,666.00,2106.00,3363.00,921.00,1264.00,,,,,,,,,,,,1,1,2,,-1220,13540,8716,-948,-434,-169
36.904,36.69,2.44,-7.12,8.27,7.67,-2.76,1.45,0.25,-0.68,1.09,502.00,1763.00,740.00,599.00,2067.00,3569.00,875.00,1411.00,,,,,,,,,,,,1,1,2,,-924,13220,8836,-764,-94,57
36.925,36.75,2.40,6.66,-3.25,-1.12,1.57,1.58,1.10,0.28,2.86,729.00,1392.00,687.00,755.00,1970.00,3471.00,781.00,1295.00,,,,,,,,,,,,1,1,2,,-884,13640,8820,-345,23,42
36.987,36.80,2.52,7.96,-9.76,-0.31,4.62,4.86,-1.57,7.09,-3.68,1013.00,1575.00,574.00,674.00,2144.00,3275.00,983.00,1179.00,,,,,,,,,,,,1,1,2,,-952,13796,8800,-298,-117,2
37.048,36.85,2.48,-11.25,11.32,12.01,-4.95,1.59,0.39,-1.35,1.18,459.00,1913.00,770.00,535.00,2047.00,3537.00,881.00,1445.00,,,,,,,,,,,,1,1,2,,-1008,13740,8592,-563,-540,64
37.091,36.91,2.45,7.01,-1.62,-1.54,2.09,1.90,1.31,-0.97,4.70,663.00,1314.00,673.00,757.00,1936.00,3408.00,723.00,1295.00,,,,,,,,,,,,1,1,2,,-920,13248,8964,-150,-517,-54
37.151,36.97,2.55,9.91,-10.53,-0.38,4.54,4.47,-1.00,6.15,-2.93,1019.00,1488.00,577.00,677.00,2094.00,3276.00,960.00,1199.00,,,,,,,,,,,,1,1,2,,-936,13220,8948,-120,-130,-101
37.212,37.02,2.58,-10.08,12.43,7.09,-1.41,3.11,-0.12,1.35,0.74,423.00,1773.00,695.00,591.00,2046.00,3376.00,859.00,1314.00,,,,,,,,,,,,1,1,2,,-860,13520,8588,-299,50,-135
37.253,37.08,2.56,4.36,0.28,3.39,0.11,2.31,0.72,0.35,2.77,628.00,1387.00,685.00,657.00,1984.00,3407.00,784.00,1295.00,,,,,,,,,,,,1,1,2,,-864,13672,8608,-238,171,78
37.313,37.13,2.57,5.41,-3.43,0.91,1.99,2.66,0.54,2.16,1.08,753.00,1470.00,647.00,689.00,1991.00,3376.00,831.00,1261.00,,,,,,,,,,,,1,1,2,,-768,13656,8560,7,351,118
37.375,37.19,2.65,3.57,-3.15,1.66,2.71,4.17,-0.75,4.83,-1.47,767.00,1569.00,614.00,656.00,2077.00,3292.00,909.00,1215.00,,,,,,,,,,,,1,1,2,,-544,13596,8232,145,424,218
37.416,37.24,2.60,-6.48,8.21,8.51,-2.87,1.65,0.50,-0.63,1.65,498.00,1722.00,733.00,581.00,2032.00,3517.00,848.00,1387.00,,,,,,,,,,,,1,1,2,,-560,13692,8032,108,219,133
37.479,37.30,2.57,6.56,-3.04,-1.05,1.87,1.97,1.18,1.23,1.87,722.00,1390.00,675.00,747.00,1947.00,3410.00,810.00,1281.00,,,,,,,,,,,,1,1,2,,-420,13680,7868,-3,-46,-15
37.52,37.35,2.68,8.57,-9.71,-0.31,4.78,4.87,-1.51,7.28,-3.61,999.00,1535.00,569.00,671.00,2137.00,3269.00,976.00,1168.00,,,,,,,,,,,,1,1,2,,-472,13816,8216,-43,-256,-178
37.624,37.41,2.60,-11.02,11.16,12.10,-5.44,1.13,0.37,-1.68,1.70,461.00,1904.00,789.00,540.00,2066.00,3603.00,862.00,1444.00,,,,,,,,,,,,1,1,2,,-520,13604,7884,184,-345,-131
37.645,37.46,2.53,5.72,-1.18,-1.60,1.60,1.18,1.37,-1.69,4.95,663.00,1367.00,692.00,769.00,1955.00,3501.00,723.00,1324.00,,,,,,,,,,,,1,1,2,,-460,13672,7572,-330,-658,-102
37.728,37.52,2.61,8.23,-9.20,-0.86,4.70,3.98,-0.94,5.63,-2.77,978.00,1535.00,577.00,687.00,2106.00,3334.00,961.00,1219.00,,,,,,,,,,,,1,1,2,,-432,12956,8092,-1752,-682,-9
37.77,37.57,2.62,-10.35,12.79,6.88,-1.60,2.96,-0.13,1.32,0.31,417.00,1775.00,705.00,599.00,2053.00,3397.00,880.00,1331.00,,,,,,,,,,,,1,1,2,,-176,13988,8700,-1456,-802,149
37.811,37.63,2.62,5.06,-0.11,2.98,0.76,2.48,0.69,0.47,2.58,633.00,1363.00,666.00,656.00,1981.00,3386.00,790.00,1295.00,,,,,,,,,,,,1,1,2,,-452,14152,9772,-305,-412,-337
37.873,37.68,2.63,5.50,-3.19,0.77,2.30,2.94,0.54,2.38,0.96,742.00,1455.00,638.00,687.00,1981.00,3339.00,833.00,1254.00,,,,,,,,,,,,1,1,2,,-664,13836,9540,341,254,-526
37.934,37.74,2.72,4.29,-3.39,2.06,2.69,4.47,-0.80,4.87,-1.28,767.00,1535.00,610.00,646.00,2071.00,3258.00,899.00,1207.00,,,,,,,,,,,,1,1,2,,-324,13800,8788,1331,176,-517
37.997,37.79,2.69,-6.25,8.54,8.96,-2.82,2.12,0.46,-0.18,1.69,487.00,1691.00,725.00,570.00,2019.00,3456.00,839.00,1361.00,,,,,,,,,,,,1,1,2,,-44,13868,8252,1555,190,-282
38.017,37.85,2.72,7.18,-3.07,-0.68,2.02,3.29,-0.13,3.52,-0.95,715.00,1357.00,665.00,733.00,2041.00,3353.00,905.00,1262.00,,,,,,,,,,,,1,1,2,,-20,13428,7852,885,-149,-195
38.08,37.90,2.83,8.68,-9.11,0.91,3.82,4.81,-1.15,6.71,-2.80,965.00,1504.00,586.00,656.00,2098.00,3245.00,944.00,1169.00,,,,,,,,,,,,1,1,3,,-52,13792,7724,-63,-48,-264
38.142,37.96,2.77,-9.96,10.60,11.91,-4.31,1.64,0.42,-1.28,1.63,466.00,1853.00,745.00,528.00,2041.00,3526.00,859.00,1424.00,,,,,,,,,,,,1,1,3,,-388,13676,7224,-414,-99,-469
38.184,38.01,2.72,6.93,-1.89,-1.52,1.68,1.87,1.32,-0.83,4.74,674.00,1328.00,688.00,765.00,1936.00,3411.00,720.00,1287.00,,,,,,,,,,,,1,1,3,,-624,13696,7960,-808,-265,-344
38.245,38.07,2.78,8.96,-9.92,-0.81,4.69,3.93,-0.98,5.87,-2.79,1003.00,1520.00,577.00,686.00,2112.00,3344.00,958.00,1208.00,,,,,,,,,,,,1,1,3,,-496,13856,8184,-686,364,16
38.307,38.12,2.77,-10.53,12.80,6.68,-1.74,2.47,-0.26,1.20,0.12,418.00,1787.00,713.00,606.00,2086.00,3475.00,891.00,1344.00,,,,,,,,,,,,1,1,3,,-244,13852,8056,-530,803,32
38.39,38.17,2.71,4.60,-0.47,0.86,0.58,1.62,0.54,-0.13,2.53,651.00,1402.00,699.00,717.00,2029.00,3518.00,801.00,1328.00,,,,,,,,,,,,1,1,3,,-228,13968,7664,-239,633,-27
38.411,38.23,2.68,4.89,-3.55,0.42,1.54,2.15,0.43,1.64,1.23,765.00,1505.00,669.00,711.00,2021.00,3455.00,832.00,1282.00,,,,,,,,,,,,1,1,3,,-308,14004,7880,-298,-4,-60
38.475,38.28,2.76,3.64,-3.55,1.83,2.17,4.12,-0.92,4.18,-1.03,783.00,1582.00,630.00,661.00,2098.00,3314.00,898.00,1232.00,,,,,,,,,,,,1,1,3,,-444,14340,8256,-280,-143,64
38.516,38.34,2.72,-5.64,7.45,8.18,-3.08,2.01,0.17,-0.24,1.54,511.00,1700.00,746.00,592.00,2055.00,3498.00,847.00,1370.00,,,,,,,,,,,,1,1,3,,-336,14248,8356,424,-101,-6
38.598,38.40,2.70,6.99,-3.13,-1.24,2.04,2.39,1.00,0.81,3.02,720.00,1370.00,671.00,749.00,1951.00,3370.00,767.00,1263.00,,,,,,,,,,,,1,1,3,,-412,13704,7708,378,333,259
38.619,38.45,2.83,8.23,-9.20,0.27,4.64,5.23,-1.49,7.50,-3.50,978.00,1535.00,567.00,658.00,2121.00,3221.00,966.00,1154.00,,,,,,,,,,,,1,1,3,,-172,13784,7372,-75,856,556
38.721,38.51,2.78,-9.99,10.50,11.02,-4.53,1.81,0.25,-0.83,1.43,469.00,1861.00,766.00,550.00,2054.00,3519.00,861.00,1406.00,,,,,,,,,,,,1,1,3,,-136,13692,7760,-752,716,174
38.761,38.56,2.74,6.89,-1.80,-1.48,1.66,2.06,1.27,-0.06,4.12,671.00,1327.00,688.00,764.00,1935.00,3391.00,734.00,1269.00,,,,,,,,,,,,1,1,3,,-240,13812,8180,-924,922,161
38.802,38.62,2.82,8.69,-8.98,-0.36,4.57,4.27,-0.95,5.97,-2.69,958.00,1498.00,576.00,676.00,2096.00,3297.00,951.00,1200.00,,,,,,,,,,,,1,1,3,,-188,13736,8164,-888,1036,69
38.843,38.67,2.84,-9.50,11.98,7.30,-1.85,3.20,-0.33,1.38,0.56,429.00,1754.00,709.00,593.00,2066.00,3383.00,867.00,1319.00,,,,,,,,,,,,1,1,3,,-288,13540,8224,-754,952,176
38.905,38.73,2.81,4.92,-0.12,3.39,0.05,2.37,0.63,0.57,2.55,635.00,1371.00,687.00,658.00,1991.00,3406.00,790.00,1291.00,,,,,,,,,,,,1,1,3,,-276,13384,8536,-616,1104,258
38.966,38.78,2.81,5.38,-3.39,0.88,2.03,2.66,0.56,2.26,0.85,752.00,1470.00,646.00,689.00,1989.00,3375.00,840.00,1264.00,,,,,,,,,,,,1,1,3,,-248,13356,8744,-722,1112,234
39.007,38.84,2.87,3.78,-3.41,1.93,2.32,4.05,-0.80,4.47,-1.39,775.00,1567.00,624.00,656.00,2087.00,3312.00,911.00,1230.00,,,,,,,,,,,,1,1,3,,-464,13424,9004,-412,837,142
39.109,38.89,2.81,-5.28,6.72,7.46,-2.51,1.81,0.22,-0.10,1.51,528.00,1709.00,733.00,600.00,2057.00,3522.00,846.00,1363.00,,,,,,,,,,,,1,1,3,,-428,13096,9076,23,712,347
39.13,38.95,2.78,6.56,-2.94,-0.66,1.79,2.02,1.25,1.13,3.32,718.00,1386.00,673.00,737.00,1938.00,3397.00,750.00,1237.00,,,,,,,,,,,,1,1,3,,-428,13236,8924,-113,602,350
39.173,39.00,2.91,8.44,-9.37,0.29,4.90,5.40,-1.52,8.73,-3.48,983.00,1529.00,559.00,653.00,2117.00,3201.00,944.00,1099.00,,,,,,,,,,,,1,1,3,,-172,12876,8956,-219,279,258
39.233,39.06,2.87,-9.91,10.47,13.52,-5.17,2.27,0.36,-0.70,2.02,469.00,1856.00,758.00,507.00,2025.00,3446.00,832.00,1377.00,,,,,,,,,,,,1,1,3,,-296,12964,9048,-373,73,-117
39.294,39.11,2.87,7.77,-1.76,-0.89,2.04,2.79,1.42,0.08,5.08,659.00,1280.00,667.00,739.00,1894.00,3281.00,695.00,1230.00,,,,,,,,,,,,1,1,3,,-256,12992,9172,-528,235,-257
39.355,39.17,2.98,10.45,-10.51,0.78,4.87,5.03,-0.92,8.09,-3.15,1008.00,1456.00,555.00,641.00,2064.00,3197.00,938.00,1117.00,,,,,,,,,,,,1,1,3,,-236,12964,9072,-567,80,-291
39.417,39.22,3.02,-10.33,13.46,8.63,-1.74,3.82,-0.13,2.11,0.75,402.00,1742.00,688.00,561.00,2021.00,3283.00,847.00,1275.00,,,,,,,,,,,,1,1,3,,-384,13708,9572,-684,-192,-449
39.458,39.28,3.03,5.01,0.81,4.49,0.23,3.20,0.85,1.59,3.07,603.00,1333.00,667.00,627.00,1939.00,3278.00,754.00,1223.00,,,,,,,,,,,,1,1,3,,-380,13152,9220,-240,-487,-742
39.519,39.33,3.05,6.38,-3.66,1.63,2.42,3.39,0.92,3.57,1.19,749.00,1423.00,624.00,662.00,1924.00,3246.00,805.00,1189.00,,,,,,,,,,,,1,1,3,,-496,12792,9428,172,-721,-738
39.581,39.39,3.15,4.67,-3.62,2.71,3.03,5.03,-0.65,5.56,-0.89,771.00,1521.00,592.00,624.00,2034.00,3174.00,869.00,1162.00,,,,,,,,,,,,1,1,3,,-700,13276,9224,-79,-271,-587
39.643,39.44,3.13,-5.30,7.70,9.75,-2.72,2.81,0.50,0.99,1.48,501.00,1666.00,711.00,551.00,1989.00,3359.00,831.00,1307.00,,,,,,,,,,,,1,1,3,,-736,13216,9104,-24,-195,-244
39.664,39.50,3.12,7.55,-2.83,-0.70,2.62,2.88,1.31,1.65,3.37,701.00,1329.00,644.00,722.00,1902.00,3279.00,741.00,1210.00,,,,,,,,,,,,1,1,3,,-432,13124,8960,247,-60,64
39.726,39.55,3.25,8.18,-8.77,1.12,5.19,5.74,-1.42,8.62,-3.48,956.00,1520.00,542.00,627.00,2093.00,3150.00,946.00,1104.00,,,,,,,,,,,,1,1,3,,-172,13432,8560,344,-51,50
