Time_Host,Time_Arduino,easingdata,CH1_Oxy,CH1_Deoxy,CH2_Oxy,CH2_Deoxy,CH3_Oxy,CH3_Deoxy,CH4_Oxy,CH4_Deoxy,CH1_PD730,CH1_PD850,CH2_PD730,CH2_PD850,CH3_PD730,CH3_PD850,CH4_PD730,CH4_PD850,Answers,airplane_playstate,trail_times,frameRate,Airplane X,Airplane Y,Correct,Wrong,Slow,AnswerRate,CorrectRate,VFTstates,VFTchoose,VFTCount,Culfstates,ax,ay,az,gx,gy,gz
1.446,0.04,0.00,0.00,0.00,0.00,0.00,0.00,0.00,0.00,0.00,454.00,1047.00,144.00,155.00,878.00,2119.00,379.00,694.00,,,,,,,,,,,,0,1,0,,-1420,15628,3456,-156,120,-110
1.466,0.10,0.00,0.00,0.00,0.00,0.00,0.00,0.00,0.00,0.00,394.00,1104.00,111.00,214.00,784.00,2113.00,369.00,658.00,,,,,,,,,,,,0,1,0,,-1460,15816,3296,26,149,-166
1.487,0.15,0.00,0.00,0.00,0.00,0.00,0.00,0.00,0.00,0.00,354.00,1101.00,37.00,221.00,862.00,2029.00,391.00,624.00,,,,,,,,,,,,0,1,0,,-1320,15676,3332,185,104,-18
1.508,0.21,0.00,0.00,0.00,0.00,0.00,0.00,0.00,0.00,0.00,415.00,1051.00,96.00,144.00,894.00,2096.00,380.00,669.00,,,,,,,,,,,,0,1,0,,-1480,15788,3196,134,143,-231
1.53,0.26,0.00,0.00,0.00,0.00,0.00,0.00,0.00,0.00,0.00,408.00,1091.00,141.00,191.00,803.00,2109.00,336.00,653.00,,,,,,,,,,,,0,1,0,,-1368,15732,3416,136,149,-210
1.549,0.32,0.00,0.00,0.00,0.00,0.00,0.00,0.00,0.00,0.00,333.00,1074.00,51.00,225.00,832.00,2015.00,375.00,614.00,,,,,,,,,,,,0,1,0,,-1452,15592,3364,225,63,-196
1.57,1.06,0.00,0.00,0.00,0.00,0.00,0.00,0.00,0.00,0.00,411.00,1054.00,146.00,176.00,881.00,2111.00,384.00,689.00,,,,,,,,,,,,0,1,0,,-1336,15768,3124,-77,212,-34
1.591,1.11,0.00,0.00,0.00,0.00,0.00,0.00,0.00,0.00,0.00,385.00,1067.00,133.00,215.00,803.00,2097.00,353.00,683.00,,,,,,,,,,,,0,1,0,,-1280,15664,3052,-176,138,-151
1.632,1.17,0.00,0.00,0.00,0.00,0.00,0.00,0.00,0.00,0.00,322.00,1038.00,47.00,229.00,859.00,1991.00,386.00,624.00,,,,,,,,,,,,0,1,0,,-1240,15700,3152,-176,101,-186
1.713,1.22,0.00,0.00,0.00,0.00,0.00,0.00,0.00,0.00,0.00,379.00,978.00,113.00,139.00,864.00,2063.00,404.00,660.00,,,,,,,,,,,,0,1,0,,-1384,15660,2984,-136,8,-287
1.754,1.28,-0.06,1.07,-0.24,5.52,-6.78,-1.27,1.48,-2.90,2.87,383.00,1023.00,133.00,184.00,799.00,2096.00,339.00,682.00,,,,,,,,,,,,0,1,0,,-1444,15808,2996,-32,-46,-194
1.814,1.33,-0.02,-1.71,3.50,-13.18,12.18,0.83,-0.45,2.01,-2.06,329.00,1033.00,67.00,232.00,854.00,2032.00,405.00,641.00,,,,,,,,,,,,0,1,0,,-1448,15732,3144,-50,143,-143
1.875,1.39,0.07,0.68,0.63,-6.39,7.32,1.77,-1.63,0.06,-1.77,368.00,1015.00,77.00,202.00,895.00,2021.00,413.00,687.00,,,,,,,,,,,,0,1,0,,-1344,15728,2932,-189,133,-212
1.917,1.45,0.02,2.45,-2.88,11.84,-15.68,-0.88,0.45,-2.07,0.10,431.00,1040.00,192.00,182.00,839.00,2122.00,388.00,711.00,,,,,,,,,,,,0,1,0,,-1408,15588,3036,-246,11,-166
1.978,1.50,0.02,-0.78,0.82,-14.34,7.96,-0.08,0.71,-0.21,-0.04,374.00,1070.00,86.00,272.00,815.00,2041.00,378.00,663.00,,,,,,,,,,,,0,1,0,,-1396,15680,3160,-258,-47,-217
2.018,1.55,0.13,-0.16,1.58,-14.21,18.30,2.22,-1.81,2.31,-2.97,355.00,1023.00,49.00,205.00,896.00,1994.00,423.00,649.00,,,,,,,,,,,,0,1,0,,-1488,15628,3224,-228,45,-141
2.059,1.61,0.15,2.82,-2.27,18.63,-14.01,0.50,-1.00,-2.09,1.09,414.00,1008.00,155.00,133.00,885.00,2089.00,368.00,693.00,,,,,,,,,,,,0,1,0,,-1452,15764,3276,-146,118,-141
2.12,1.66,0.09,0.02,0.70,-0.57,-2.36,-1.00,1.72,3.74,-6.20,371.00,1040.00,117.00,208.00,785.00,2061.00,491.00,669.00,,,,,,,,,,,,0,1,0,,-1436,15700,3232,-93,154,-97
2.224,1.72,0.17,-1.84,3.16,-22.12,24.25,1.76,-0.96,1.51,-1.66,336.00,1048.00,41.00,239.00,863.00,1985.00,400.00,647.00,,,,,,,,,,,,0,1,0,,-1428,15736,3188,-111,184,-117
2.244,1.77,0.22,3.08,-1.49,8.03,-0.81,1.11,-1.29,0.09,-0.48,395.00,977.00,92.00,142.00,889.00,2055.00,385.00,663.00,,,,,,,,,,,,0,1,0,,-1364,15740,3020,-47,136,-120
2.285,1.83,0.12,-0.45,0.37,5.65,-7.37,-1.85,2.03,-2.76,2.82,381.00,1069.00,137.00,186.00,784.00,2114.00,339.00,679.00,,,,,,,,,,,,0,1,0,,-1436,15760,3220,-70,111,-131
2.348,1.88,0.14,-2.93,3.47,-22.45,21.45,0.50,-0.10,0.07,0.51,337.00,1085.00,48.00,261.00,843.00,2039.00,365.00,646.00,,,,,,,,,,,,0,1,0,,-1428,15752,3164,-20,84,-208
2.409,1.94,0.22,0.64,0.00,-1.26,4.89,1.72,-1.89,-0.03,-0.91,381.00,1034.00,80.00,176.00,908.00,2038.00,395.00,674.00,,,,,,,,,,,,0,1,0,,-1484,15800,3092,34,131,-106
2.492,2.00,0.19,0.83,-1.42,10.84,-12.32,-0.38,-0.22,-2.61,1.26,410.00,1066.00,163.00,173.00,862.00,2118.00,368.00,704.00,,,,,,,,,,,,0,1,0,,-1348,15664,3044,-44,158,-235
2.513,2.05,0.16,-2.47,2.72,-14.58,8.04,-0.24,1.07,1.03,-0.26,348.00,1087.00,86.00,274.00,802.00,2035.00,374.00,635.00,,,,,,,,,,,,0,1,0,,-1392,15708,3016,-160,115,-226
2.554,2.10,0.26,-0.33,2.16,-13.72,18.14,2.17,-1.79,1.64,-2.43,345.00,1014.00,49.00,202.00,896.00,1997.00,416.00,657.00,,,,,,,,,,,,0,1,0,,-1356,15712,3160,-84,-25,-167
2.616,2.16,0.28,2.98,-1.69,15.30,-10.20,0.64,-0.58,-2.82,1.79,400.00,986.00,134.00,137.00,863.00,2054.00,359.00,700.00,,,,,,,,,,,,0,1,0,,-1476,15744,3328,-93,98,-74
2.679,2.21,0.26,0.23,0.68,-1.05,-3.57,-0.17,0.57,-0.35,0.50,370.00,1032.00,126.00,219.00,823.00,2057.00,368.00,657.00,,,,,,,,,,,,0,1,0,,-1488,15768,3120,-79,239,-134
2.742,2.27,0.34,-1.07,2.30,-17.59,23.65,1.81,-0.19,2.46,-1.89,347.00,1040.00,39.00,203.00,827.00,1941.00,398.00,627.00,,,,,,,,,,,,0,1,0,,-1344,15724,3164,-146,165,-124
2.784,2.33,0.38,3.11,-0.88,10.80,0.16,1.17,-0.74,0.98,-1.35,382.00,960.00,83.00,124.00,862.00,2020.00,397.00,655.00,,,,,,,,,,,,0,1,0,,-1444,15660,3316,-125,27,-107
2.887,2.38,0.31,0.36,-0.05,0.35,-3.89,-0.95,1.58,-1.19,1.29,384.00,1047.00,125.00,209.00,790.00,2064.00,358.00,665.00,,,,,,,,,,,,0,1,0,,-1340,15800,3316,-145,106,-152
2.908,2.43,0.36,-2.24,4.25,-22.93,25.45,1.21,-0.12,2.75,-0.99,319.00,1034.00,39.00,239.00,833.00,1984.00,377.00,605.00,,,,,,,,,,,,0,1,0,,-1328,15712,3004,-110,162,-134
2.949,2.49,0.43,1.15,0.42,-2.31,6.44,1.80,-1.48,0.60,-0.85,369.00,1002.00,75.00,176.00,887.00,2010.00,389.00,656.00,,,,,,,,,,,,0,1,0,,-1240,15724,3208,-161,58,-140
3.01,2.54,0.40,0.67,-0.44,12.79,-12.52,-0.22,0.01,-2.70,1.24,390.00,1045.00,159.00,161.00,849.00,2092.00,369.00,707.00,,,,,,,,,,,,0,1,0,,-1476,15600,3208,-204,55,-83
3.071,2.60,0.37,-2.02,2.00,-11.82,6.07,-0.09,0.63,-0.30,0.43,359.00,1089.00,91.00,259.00,819.00,2047.00,369.00,657.00,,,,,,,,,,,,0,1,0,,-1400,15732,3248,-192,211,-79
3.111,2.65,0.46,-0.99,2.12,-13.16,15.15,2.10,-1.64,2.96,-3.57,350.00,1042.00,57.00,214.00,890.00,1995.00,432.00,643.00,,,,,,,,,,,,0,1,0,,-1376,15788,3220,-142,227,-65
3.173,2.71,0.45,2.73,-2.33,10.18,-9.81,0.19,-0.54,-2.91,1.92,416.00,1013.00,144.00,166.00,868.00,2089.00,357.00,700.00,,,,,,,,,,,,0,1,0,,-1404,15716,3236,-126,116,-85
3.235,2.77,0.35,-1.29,0.60,-3.56,0.82,-1.52,2.37,-0.68,1.22,382.00,1098.00,104.00,215.00,765.00,2067.00,356.00,653.00,,,,,,,,,,,,0,1,0,,-1180,15720,3292,-181,-17,-100
3.297,2.82,0.37,-0.95,1.74,-24.09,30.08,0.89,-0.01,1.50,-0.12,357.00,1051.00,31.00,221.00,833.00,2003.00,368.00,621.00,,,,,,,,,,,,0,1,0,,-1280,15792,3212,-38,128,-75
3.338,2.87,0.39,0.64,0.54,9.29,-2.40,0.71,-0.86,-1.12,-0.07,370.00,1019.00,98.00,141.00,875.00,2064.00,385.00,688.00,,,,,,,,,,,,0,1,0,,-1232,15648,3284,-261,157,-212
3.399,2.93,0.34,0.17,0.02,3.55,-5.26,-0.62,1.20,-3.09,3.44,384.00,1053.00,127.00,191.00,802.00,2059.00,330.00,677.00,,,,,,,,,,,,0,1,0,,-1372,15516,3232,-203,71,-179
3.5,2.98,0.37,-1.25,4.15,-23.76,26.21,0.92,0.24,1.44,-0.98,315.00,997.00,38.00,242.00,821.00,1987.00,386.00,637.00,,,,,,,,,,,,0,1,0,,-1408,15724,3256,-60,15,-181
3.52,3.04,0.45,1.28,0.93,-2.12,6.37,2.04,-1.35,0.88,-1.36,358.00,983.00,75.00,175.00,877.00,1984.00,398.00,658.00,,,,,,,,,,,,0,1,0,,-1452,15552,3292,-10,52,-161
3.601,3.10,0.43,1.64,-1.00,8.82,-9.98,-0.03,0.12,-2.25,1.70,395.00,1021.00,149.00,176.00,841.00,2070.00,357.00,686.00,,,,,,,,,,,,0,1,0,,-1400,15764,3044,-4,163,-143
3.621,3.15,0.42,-2.21,2.69,-10.06,1.64,0.16,0.96,1.16,-0.75,347.00,1077.00,112.00,272.00,801.00,2009.00,383.00,640.00,,,,,,,,,,,,0,1,0,,-1320,15696,3240,-70,178,-72
3.662,3.20,0.52,-0.23,1.86,-18.83,26.60,2.40,-1.66,2.58,-2.66,350.00,1018.00,34.00,197.00,886.00,1972.00,414.00,637.00,,,,,,,,,,,,0,1,0,,-1412,15708,3148,-163,113,-142
3.723,3.26,0.48,3.37,-2.63,15.17,-11.87,-0.16,0.47,-2.30,1.61,418.00,996.00,147.00,144.00,827.00,2061.00,359.00,689.00,,,,,,,,,,,,0,1,0,,-1340,15712,3336,-160,21,-104
3.765,3.31,0.42,-1.11,1.23,-9.55,5.71,-0.75,2.11,-0.09,0.46,368.00,1072.00,89.00,239.00,765.00,2019.00,367.00,651.00,,,,,,,,,,,,0,1,0,,-1320,15712,3180,-109,87,-199
3.827,3.37,0.50,-1.98,3.26,-29.50,38.23,1.98,-0.78,1.88,-1.27,335.00,1051.00,22.00,220.00,851.00,1958.00,389.00,631.00,,,,,,,,,,,,0,1,0,,-1424,15608,3144,-107,78,-110
3.888,3.42,0.51,1.19,0.36,14.41,-4.86,0.78,-0.44,-0.15,-0.97,370.00,1002.00,102.00,123.00,854.00,2035.00,397.00,678.00,,,,,,,,,,,,0,1,0,,-1492,15604,3332,-196,89,-145
3.97,3.48,0.43,0.33,0.06,-0.45,-2.71,-1.08,1.79,-2.71,3.03,382.00,1045.00,119.00,209.00,783.00,2063.00,335.00,674.00,,,,,,,,,,,,0,1,0,,-1304,15820,3396,-179,220,-88
3.99,3.54,0.47,-3.02,4.06,-24.91,27.59,1.20,-0.07,1.76,-1.28,327.00,1072.00,36.00,244.00,831.00,1982.00,390.00,634.00,,,,,,,,,,,,0,1,0,,-1324,15664,3232,-147,123,-154
4.053,3.59,0.52,1.37,-0.25,3.92,2.47,1.36,-0.99,0.22,-0.95,381.00,1011.00,83.00,153.00,871.00,2019.00,394.00,668.00,,,,,,,,,,,,0,1,0,,-1336,15752,3276,-119,50,-121
4.115,3.64,0.45,0.53,-1.18,8.64,-9.29,-0.87,0.89,-1.86,1.01,407.00,1072.00,144.00,174.00,819.00,2096.00,368.00,688.00,,,,,,,,,,,,0,1,0,,-1392,15704,3160,-68,60,-182
4.176,3.70,0.43,-3.26,2.67,-14.83,6.28,0.05,0.49,1.02,-1.41,354.00,1123.00,95.00,290.00,823.00,2043.00,398.00,655.00,,,,,,,,,,,,0,1,0,,-1392,15688,3332,-34,130,-48
4.217,3.75,0.52,0.71,-0.07,-3.38,7.81,2.36,-1.98,1.51,-2.12,382.00,1033.00,71.00,177.00,902.00,1992.00,410.00,655.00,,,,,,,,,,,,0,1,0,,-1336,15768,3232,-109,180,-272
4.257,3.81,0.48,3.54,-3.88,16.72,-13.37,-0.43,0.59,-1.96,0.89,446.00,1023.00,155.00,141.00,826.00,2077.00,371.00,693.00,,,,,,,,,,,,0,1,0,,-1408,15804,3272,-228,125,-151
4.339,3.87,0.41,-1.28,1.90,-8.22,4.85,-0.75,2.18,-0.40,2.20,356.00,1060.00,91.00,232.00,762.00,2015.00,336.00,629.00,,,,,,,,,,,,0,1,0,,-1472,15612,3188,-173,1,-199
4.381,3.92,0.49,-0.16,2.32,-26.68,34.92,1.82,-0.33,1.35,-0.62,341.00,1003.00,25.00,215.00,833.00,1947.00,379.00,633.00,,,,,,,,,,,,0,1,0,,-1380,15672,3400,-47,46,-156
4.442,3.98,0.54,2.42,-0.06,21.59,-8.84,1.48,-0.87,-1.17,0.93,370.00,965.00,111.00,103.00,863.00,2002.00,365.00,671.00,,,,,,,,,,,,0,1,0,,-1412,15720,3324,-30,131,7
4.504,4.03,0.45,0.04,0.84,-0.04,-4.20,-1.10,2.42,-0.25,1.34,368.00,1035.00,128.00,214.00,757.00,2030.00,351.00,640.00,,,,,,,,,,,,0,1,0,,-1392,15696,3224,-55,138,-196
4.566,4.08,0.53,-3.04,5.11,-25.22,26.70,1.97,-0.64,1.55,0.47,309.00,1043.00,38.00,253.00,845.00,1952.00,356.00,610.00,,,,,,,,,,,,0,1,0,,-1392,15764,3164,-121,42,-197
4.606,4.14,0.61,2.77,-0.37,0.47,3.41,2.21,-1.41,1.08,-0.62,374.00,960.00,84.00,171.00,877.00,1974.00,381.00,640.00,,,,,,,,,,,,0,1,0,,-1420,15616,3176,-123,162,-131
4.689,4.20,0.58,1.73,-0.84,12.65,-10.90,-0.11,0.26,-0.73,0.28,391.00,1013.00,146.00,155.00,836.00,2069.00,375.00,671.00,,,,,,,,,,,,0,1,0,,-1344,15680,3404,-148,-8,-137
4.71,4.25,0.56,-2.57,2.81,-17.27,10.28,0.14,0.96,0.69,0.30,347.00,1089.00,80.00,287.00,801.00,2010.00,365.00,634.00,,,,,,,,,,,,0,1,0,,-1452,15512,3264,-92,165,-171
4.772,4.30,0.65,0.33,1.15,-12.22,18.40,2.47,-1.71,2.27,-2.73,360.00,1015.00,47.00,189.00,887.00,1969.00,418.00,646.00,,,,,,,,,,,,0,1,0,,-1356,15800,3164,-30,-4,-35
4.834,4.36,0.62,4.06,-4.10,20.71,-15.07,0.11,-0.10,-2.58,1.97,447.00,1008.00,158.00,126.00,849.00,2071.00,354.00,690.00,,,,,,,,,,,,0,1,0,,-1320,15760,3228,-128,46,-139
4.876,4.41,0.53,-2.09,2.54,-7.17,0.67,-1.23,2.42,-1.28,2.22,349.00,1076.00,112.00,249.00,759.00,2041.00,341.00,651.00,,,,,,,,,,,,0,1,0,,-1304,15768,3312,-97,296,-190
4.939,4.47,0.61,-2.11,3.30,-26.03,33.28,2.12,-0.95,0.99,0.51,335.00,1055.00,27.00,219.00,857.00,1957.00,359.00,623.00,,,,,,,,,,,,0,1,0,,-1356,15704,3100,-114,115,-56
5.001,4.53,0.65,1.46,-0.37,15.98,-3.69,1.31,-1.15,-0.21,-0.43,383.00,1011.00,93.00,112.00,879.00,2031.00,386.00,670.00,,,,,,,,,,,,0,1,0,,-1360,15640,3380,-78,-38,-109
5.064,4.58,0.51,-0.63,0.43,1.42,-5.12,-2.06,3.04,-2.01,3.02,381.00,1075.00,131.00,207.00,745.00,2074.00,331.00,656.00,,,,,,,,,,,,0,1,0,,-1264,15836,3404,-54,92,-203
5.084,4.63,0.53,-4.01,4.96,-22.19,21.37,0.92,0.02,1.72,-0.69,317.00,1088.00,48.00,259.00,831.00,1999.00,378.00,625.00,,,,,,,,,,,,0,1,0,,-1280,15688,3224,-8,186,-120
5.146,4.69,0.60,1.60,-0.47,8.71,-5.79,1.83,-1.68,0.18,-0.56,384.00,1008.00,119.00,158.00,896.00,2018.00,386.00,662.00,,,,,,,,,,,,0,1,0,,-1364,15660,3336,-142,133,-202
5.208,4.75,0.54,0.58,-0.88,8.83,-9.36,-0.47,0.80,-1.58,1.37,400.00,1061.00,144.00,173.00,817.00,2068.00,359.00,674.00,,,,,,,,,,,,0,1,0,,-1376,15696,3320,-228,84,-180
5.249,4.80,0.53,-2.04,1.54,-16.40,10.45,0.31,0.81,-0.54,1.70,368.00,1103.00,78.00,276.00,805.00,2005.00,346.00,641.00,,,,,,,,,,,,0,1,0,,-1316,15596,3352,-82,53,-177
5.311,4.86,0.66,0.38,1.29,-10.83,14.05,3.18,-2.34,2.55,-2.15,357.00,1009.00,58.00,201.00,906.00,1947.00,403.00,629.00,,,,,,,,,,,,0,1,0,,-1448,15700,3196,-35,67,-131
5.433,4.91,0.66,2.93,-1.94,15.87,-13.67,0.60,-0.22,-2.61,2.72,406.00,995.00,160.00,147.00,847.00,2038.00,340.00,677.00,,,,,,,,,,,,0,1,0,,-1368,15660,3220,-35,171,-133
5.453,4.96,0.60,-2.80,3.21,-6.32,1.57,-0.59,1.77,-0.04,0.90,341.00,1087.00,105.00,235.00,777.00,2025.00,358.00,642.00,,,,,,,,,,,,0,1,0,,-1256,15612,3144,-46,154,-130
5.494,5.02,0.69,-1.27,3.69,-34.04,48.10,2.39,-0.96,2.74,-1.47,323.00,1010.00,14.00,202.00,853.00,1936.00,387.00,613.00,,,,,,,,,,,,0,1,0,,-1256,15764,3228,-138,152,-122
5.556,5.08,0.71,3.01,-0.84,11.56,-0.97,1.21,-0.41,0.40,-0.20,382.00,963.00,87.00,124.00,846.00,1999.00,377.00,650.00,,,,,,,,,,,,0,1,0,,-1332,15728,3152,-94,118,-192
5.596,5.13,0.61,0.01,0.76,-1.84,-5.51,-1.30,2.69,-3.16,4.08,370.00,1039.00,142.00,238.00,749.00,2032.00,319.00,667.00,,,,,,,,,,,,0,1,0,,-1440,15740,3128,-101,43,-232
5.658,5.18,0.67,-2.67,4.63,-37.52,46.81,1.69,-0.28,2.35,-0.16,315.00,1041.00,16.00,240.00,833.00,1955.00,363.00,601.00,,,,,,,,,,,,0,1,0,,-1364,15656,3224,-59,38,-142
5.718,5.24,0.76,2.50,-0.67,2.05,3.32,2.54,-1.89,0.66,-0.19,382.00,978.00,82.00,161.00,895.00,1974.00,375.00,643.00,,,,,,,,,,,,0,1,0,,-1500,15664,3308,-168,60,-135
5.803,5.29,0.70,0.81,-0.39,13.61,-13.02,-0.39,0.44,-0.59,0.58,388.00,1038.00,161.00,158.00,832.00,2082.00,368.00,662.00,,,,,,,,,,,,0,1,0,,-1428,15740,3152,-142,185,-63
5.823,5.35,0.67,-3.21,3.24,-16.06,9.42,0.12,0.65,0.09,0.65,343.00,1104.00,82.00,280.00,815.00,2029.00,362.00,643.00,,,,,,,,,,,,0,1,0,,-1376,15652,3212,-241,186,-26
5.864,5.41,0.78,-0.12,0.80,-8.85,12.45,2.84,-2.40,2.83,-3.27,370.00,1043.00,61.00,194.00,915.00,1977.00,426.00,641.00,,,,,,,,,,,,0,1,0,,-1276,15840,3276,-163,110,-38
5.926,5.46,0.75,2.89,-2.77,14.66,-13.38,0.17,-0.08,-2.78,1.52,425.00,1019.00,161.00,153.00,847.00,2065.00,364.00,704.00,,,,,,,,,,,,0,1,0,,-1316,15788,3448,-86,79,-152
5.967,5.51,0.65,-1.77,1.76,-4.59,0.82,-1.17,1.92,-0.59,1.72,362.00,1085.00,106.00,224.00,779.00,2064.00,346.00,642.00,,,,,,,,,,,,0,1,0,,-1256,15864,3232,-56,118,-154
6.049,5.57,0.74,-1.49,2.93,-26.95,36.55,2.27,-1.05,2.89,-0.89,338.00,1040.00,23.00,208.00,859.00,1950.00,374.00,600.00,,,,,,,,,,,,0,1,0,,-1380,15616,3132,-173,112,-230
6.09,5.62,0.76,3.14,-1.08,23.36,-10.72,1.13,-0.90,-0.43,0.68,386.00,964.00,119.00,101.00,870.00,2032.00,365.00,656.00,,,,,,,,,,,,0,1,0,,-1324,15588,3408,-124,60,-209
6.173,5.68,0.67,0.01,0.85,5.36,-8.32,-1.01,2.51,-1.29,3.40,368.00,1036.00,145.00,193.00,752.00,2018.00,320.00,631.00,,,,,,,,,,,,0,1,0,,-1332,15740,3296,-66,27,-185
6.193,5.74,0.73,-3.64,6.42,-23.90,26.25,1.85,-0.11,2.01,0.53,291.00,1031.00,38.00,243.00,823.00,1934.00,352.00,598.00,,,,,,,,,,,,0,1,0,,-1392,15500,3356,-14,57,-179
6.255,5.79,0.79,1.80,0.40,3.75,3.21,2.10,-1.33,1.62,-0.90,365.00,977.00,80.00,151.00,875.00,1978.00,383.00,631.00,,,,,,,,,,,,0,1,0,,-1284,15724,3180,-14,161,-141
6.297,5.84,0.74,1.71,-0.55,7.62,-9.45,-0.32,0.55,-2.38,2.06,385.00,1006.00,148.00,182.00,826.00,2070.00,351.00,683.00,,,,,,,,,,,,0,1,0,,-1220,15708,3060,-86,154,-127
6.359,5.90,0.71,-2.34,2.47,-13.07,6.09,0.24,1.30,0.36,0.26,352.00,1089.00,93.00,272.00,785.00,1984.00,368.00,643.00,,,,,,,,,,,,0,1,0,,-1296,15792,3368,-153,104,-82
6.42,5.95,0.84,-0.35,2.82,-6.85,11.48,3.19,-2.18,3.58,-3.13,333.00,997.00,62.00,184.00,898.00,1938.00,417.00,620.00,,,,,,,,,,,,0,1,0,,-1336,15820,3324,-66,72,-217
6.48,6.01,0.82,3.03,-1.97,17.05,-14.63,0.55,-0.23,-1.67,1.61,406.00,992.00,165.00,144.00,848.00,2042.00,355.00,672.00,,,,,,,,,,,,0,1,0,,-1388,15748,3292,-111,60,-196
6.542,6.07,0.74,-0.81,1.74,-6.25,3.59,-0.79,2.00,-0.13,2.11,356.00,1045.00,94.00,222.00,770.00,2028.00,336.00,624.00,,,,,,,,,,,,0,1,0,,-1532,15616,3228,-53,74,-172
6.583,6.12,0.82,-1.24,3.68,-27.41,36.71,2.19,-0.76,1.29,-0.05,323.00,1009.00,23.00,211.00,847.00,1941.00,368.00,625.00,,,,,,,,,,,,0,1,0,,-1312,15664,3348,-129,135,-128
6.667,6.17,0.83,1.96,0.20,13.08,-2.91,1.08,-0.65,1.82,-2.97,368.00,976.00,94.00,123.00,859.00,2022.00,427.00,662.00,,,,,,,,,,,,0,1,0,,-1340,15736,3304,-132,143,-151
6.687,6.23,0.72,-1.06,1.17,-0.50,-4.04,-1.43,2.32,-2.07,2.81,369.00,1072.00,128.00,217.00,766.00,2063.00,335.00,661.00,,,,,,,,,,,,0,1,0,,-1420,15700,3304,-110,114,-114
6.769,6.29,0.74,-3.24,4.59,-24.96,28.13,1.12,0.31,1.52,0.33,319.00,1066.00,35.00,241.00,815.00,1968.00,359.00,613.00,,,,,,,,,,,,0,1,0,,-1304,15764,3368,-87,77,-144
6.79,6.34,0.79,1.56,0.03,-1.65,5.26,1.91,-1.66,0.06,-0.66,374.00,996.00,79.00,177.00,894.00,2011.00,389.00,667.00,,,,,,,,,,,,0,1,0,,-1316,15756,3248,-22,28,-178
6.849,6.39,0.71,1.49,-2.04,8.93,-10.14,-0.99,1.00,-1.06,1.61,419.00,1056.00,150.00,176.00,816.00,2100.00,351.00,656.00,,,,,,,,,,,,0,1,0,,-1272,15744,3348,-8,127,-77
6.911,6.45,0.66,-3.04,2.65,-14.60,5.82,-0.14,1.38,1.35,-0.32,353.00,1114.00,97.00,291.00,787.00,2010.00,373.00,628.00,,,,,,,,,,,,0,1,0,,-1316,15500,3168,-129,182,-303
6.952,6.50,0.78,-0.14,1.62,-18.01,24.27,3.05,-2.21,3.33,-3.00,354.00,1021.00,38.00,203.00,902.00,1951.00,416.00,624.00,,,,,,,,,,,,0,1,0,,-1336,15708,3444,-245,67,-195
7.013,6.56,0.74,3.26,-2.33,21.18,-15.46,-0.01,0.67,-2.90,2.71,412.00,992.00,160.00,125.00,816.00,2038.00,342.00,685.00,,,,,,,,,,,,0,1,0,,-1432,15512,3404,-126,-19,-243
7.076,6.62,0.68,0.09,1.65,0.88,-2.85,-0.46,1.94,0.02,0.94,352.00,1011.00,117.00,199.00,768.00,2005.00,357.00,640.00,,,,,,,,,,,,0,1,0,,-1464,15696,3344,-54,85,-129
7.137,6.67,0.77,-1.13,3.94,-52.16,73.21,2.32,-0.27,4.81,-2.07,318.00,998.00,5.00,211.00,823.00,1906.00,385.00,574.00,,,,,,,,,,,,0,1,0,,-1356,15740,3360,-42,155,-89
7.177,6.72,0.83,2.97,-0.24,17.56,-7.65,2.00,-1.27,0.04,0.67,370.00,949.00,112.00,117.00,874.00,1983.00,362.00,644.00,,,,,,,,,,,,0,1,0,,-1320,15688,3176,-105,192,-170
7.258,6.78,0.74,0.87,0.72,3.11,-6.51,-0.85,2.02,-0.40,2.20,365.00,1005.00,137.00,201.00,770.00,2032.00,336.00,629.00,,,,,,,,,,,,0,1,0,,-1312,15628,3268,-134,33,-145
7.342,6.83,0.79,-2.71,5.48,-19.30,18.56,1.78,0.07,3.28,-2.26,301.00,1019.00,53.00,249.00,816.00,1930.00,400.00,613.00,,,,,,,,,,,,0,1,0,,-1424,15732,3352,-169,68,-173
7.362,6.89,0.88,1.96,0.20,5.10,2.98,2.43,-2.02,0.00,0.38,368.00,976.00,79.00,144.00,903.00,1989.00,368.00,650.00,,,,,,,,,,,,0,1,0,,-1404,15628,3232,-177,67,-206
7.403,6.95,0.80,1.66,-0.63,13.56,-14.33,-0.64,0.88,-1.99,1.10,387.00,1010.00,173.00,164.00,816.00,2078.00,367.00,690.00,,,,,,,,,,,,0,1,0,,-1416,15748,3256,-135,37,-140
7.465,7.00,0.79,-1.11,1.23,-13.30,6.56,0.51,0.79,2.03,-1.09,368.00,1072.00,91.00,271.00,803.00,1990.00,384.00,624.00,,,,,,,,,,,,0,1,0,,-1484,15704,3552,-105,83,-139
7.508,7.05,0.89,-1.52,4.66,-15.49,23.43,2.93,-1.71,4.00,-2.96,308.00,994.00,38.00,188.00,880.00,1934.00,410.00,607.00,,,,,,,,,,,,0,1,0,,-1372,15644,3396,-173,127,-89
7.568,7.11,0.86,3.79,-2.99,20.22,-13.44,0.20,0.09,-2.67,2.21,423.00,989.00,146.00,123.00,839.00,2053.00,350.00,688.00,,,,,,,,,,,,0,1,0,,-1260,15776,3332,-124,172,-72
7.648,7.16,0.80,-1.83,2.83,-8.47,-0.02,-0.37,1.74,-1.10,1.78,342.00,1057.00,119.00,267.00,775.00,2009.00,348.00,654.00,,,,,,,,,,,,0,1,0,,-1392,15740,3328,-148,126,-136
7.689,7.22,0.88,-4.12,7.42,-21.24,30.35,2.38,-0.84,1.80,0.29,278.00,1023.00,29.00,196.00,848.00,1931.00,358.00,607.00,,,,,,,,,,,,0,1,0,,-1360,15572,3476,-133,64,-106
7.749,7.28,0.91,2.14,-0.41,14.71,-1.81,1.64,-1.17,0.27,0.80,379.00,985.00,86.00,112.00,875.00,2006.00,358.00,636.00,,,,,,,,,,,,0,1,0,,-1332,15688,3368,-91,45,-174
7.81,7.33,0.80,-0.18,0.42,3.43,-7.54,-1.43,2.03,-2.94,4.90,378.00,1056.00,144.00,204.00,778.00,2079.00,304.00,647.00,,,,,,,,,,,,0,1,0,,-1304,15732,3348,-102,154,-125
7.852,7.38,0.81,-4.44,6.25,-19.97,20.62,1.12,0.20,2.62,0.01,298.00,1069.00,48.00,242.00,820.00,1974.00,358.00,592.00,,,,,,,,,,,,0,1,0,,-1336,15636,3340,-147,137,-232
7.913,7.44,0.90,1.90,0.07,0.28,2.20,2.58,-2.03,1.81,-2.00,371.00,982.00,90.00,178.00,901.00,1978.00,405.00,645.00,,,,,,,,,,,,0,1,0,,-1460,15644,3348,-204,58,-216
7.955,7.50,0.84,2.30,-1.32,12.43,-10.57,-0.39,1.07,-1.57,2.48,397.00,1003.00,144.00,155.00,804.00,2047.00,338.00,654.00,,,,,,,,,,,,0,1,0,,-1388,15568,3580,-81,9,-173
7.996,7.55,0.79,-1.87,3.17,-13.60,6.87,-0.03,1.82,1.20,0.80,336.00,1049.00,90.00,272.00,767.00,1978.00,352.00,613.00,,,,,,,,,,,,0,1,0,,-1468,15664,3316,-32,131,-172
8.057,7.61,0.91,-0.17,2.60,-24.15,34.07,3.14,-1.93,3.17,-2.41,336.00,996.00,25.00,199.00,887.00,1929.00,404.00,618.00,,,,,,,,,,,,0,1,0,,-1452,15600,3412,28,211,-93
8.119,7.66,0.89,3.61,-2.58,18.46,-14.31,0.58,0.47,-0.92,1.51,415.00,985.00,158.00,135.00,816.00,2002.00,352.00,654.00,,,,,,,,,,,,0,1,0,,-1408,15568,3236,-61,188,-170
8.202,7.71,0.86,0.91,1.37,-2.65,1.99,0.17,1.30,-1.44,3.51,352.00,986.00,96.00,201.00,786.00,1990.00,319.00,633.00,,,,,,,,,,,,0,1,0,,-1324,15644,3224,-144,138,-102
8.243,7.77,0.96,-0.99,4.06,inf,inf,2.85,-0.54,4.05,-1.08,315.00,989.00,0.00,217.00,827.00,1880.00,370.00,576.00,,,,,,,,,,,,0,1,0,,-1404,15672,3444,-140,72,-187
8.283,7.83,1.01,2.38,0.83,23.02,-7.94,1.98,-0.93,1.65,-0.52,353.00,944.00,103.00,95.00,858.00,1966.00,375.00,624.00,,,,,,,,,,,,0,1,0,,-1388,15584,3384,-124,127,-132
8.385,7.88,0.94,1.09,0.39,4.13,-6.31,-0.40,1.54,-0.62,1.95,370.00,1005.00,133.00,192.00,784.00,2022.00,342.00,639.00,,,,,,,,,,,,0,1,0,,-1396,15596,3516,-111,115,-86
8.407,7.93,0.95,-2.42,5.20,-18.72,19.08,1.09,0.37,1.80,-0.32,304.00,1015.00,51.00,240.00,813.00,1967.00,370.00,617.00,,,,,,,,,,,,0,1,0,,-1296,15620,3388,-90,158,-95
8.446,7.99,1.03,1.13,0.23,-0.43,8.17,2.68,-1.69,1.82,-1.72,373.00,1008.00,66.00,156.00,883.00,1952.00,399.00,640.00,,,,,,,,,,,,0,1,0,,-1312,15532,3476,-125,240,-30
8.508,8.05,0.97,2.16,-1.36,14.22,-16.00,-0.16,0.07,-1.24,0.65,399.00,1010.00,187.00,167.00,845.00,2083.00,371.00,678.00,,,,,,,,,,,,0,1,0,,-1312,15680,3384,-83,255,-48
8.588,8.10,0.92,-3.54,3.73,-19.98,15.60,-0.11,1.75,0.26,1.70,336.00,1104.00,63.00,277.00,771.00,1988.00,341.00,621.00,,,,,,,,,,,,0,1,0,,-1260,15624,3448,-62,212,-91
8.628,8.16,1.01,-0.25,1.81,-21.73,31.83,2.66,-1.39,2.50,-1.48,351.00,1020.00,27.00,192.00,869.00,1938.00,389.00,619.00,,,,,,,,,,,,0,1,0,,-1316,15680,3244,-102,67,-134
8.67,8.21,0.98,2.15,-1.17,18.69,-12.67,0.50,0.03,0.23,0.46,395.00,1005.00,144.00,128.00,837.00,2032.00,365.00,643.00,,,,,,,,,,,,0,1,0,,-1248,15604,3520,-92,87,-103
8.73,8.27,0.89,-1.41,2.42,1.32,-2.35,-0.82,2.48,-0.52,1.96,347.00,1051.00,113.00,193.00,751.00,2005.00,341.00,636.00,,,,,,,,,,,,0,1,0,,-1256,15676,3356,-54,204,-55
8.791,8.32,0.97,-1.79,3.98,-34.52,45.80,2.40,-0.52,3.76,-1.43,321.00,1023.00,16.00,219.00,833.00,1913.00,379.00,588.00,,,,,,,,,,,,0,1,0,,-1316,15696,3172,-166,165,-202
8.853,8.38,1.02,5.35,-3.47,24.18,-7.23,1.94,-1.15,0.62,-0.13,422.00,942.00,97.00,89.00,869.00,1981.00,374.00,643.00,,,,,,,,,,,,0,1,0,,-1380,15680,3476,-167,100,-130
8.913,8.43,0.90,0.57,1.12,7.43,-11.17,-1.22,2.59,-2.63,4.74,359.00,1006.00,163.00,192.00,752.00,2031.00,305.00,642.00,,,,,,,,,,,,0,1,0,,-1464,15640,3420,-109,54,-174
8.956,8.49,0.93,-1.55,4.25,-26.28,30.23,1.51,0.27,3.28,-0.97,315.00,1006.00,32.00,240.00,811.00,1940.00,373.00,592.00,,,,,,,,,,,,0,1,0,,-1472,15704,3372,-44,111,-93
9.016,8.54,1.06,1.43,0.83,3.67,2.11,3.56,-2.56,4.21,-3.21,359.00,980.00,85.00,156.00,911.00,1930.00,414.00,606.00,,,,,,,,,,,,0,1,0,,-1264,15680,3384,-104,221,-108
9.117,8.60,1.03,3.01,-2.06,8.35,-13.11,0.43,-0.15,-2.41,3.43,408.00,995.00,178.00,195.00,846.00,2047.00,326.00,659.00,,,,,,,,,,,,0,1,0,,-1504,15544,3248,-138,156,-168
9.137,8.65,1.00,-1.91,3.02,-14.04,9.19,0.28,1.45,0.94,0.94,339.00,1055.00,80.00,260.00,778.00,1973.00,351.00,617.00,,,,,,,,,,,,0,1,0,,-1268,15724,3384,-153,66,-153
9.179,8.71,1.11,-0.18,3.33,-15.46,22.01,3.32,-1.85,4.16,-2.32,323.00,977.00,41.00,195.00,880.00,1911.00,395.00,593.00,,,,,,,,,,,,0,1,0,,-1344,15804,3572,-115,161,-193
9.241,8.76,1.11,3.42,-1.41,18.00,-11.66,1.07,0.31,0.82,-0.24,391.00,962.00,138.00,128.00,816.00,1972.00,375.00,640.00,,,,,,,,,,,,0,1,0,,-1424,15664,3376,-80,129,-154
9.282,8.82,1.05,-0.48,2.05,1.27,-1.50,-0.15,1.86,-0.87,3.20,348.00,1023.00,108.00,189.00,767.00,1985.00,321.00,624.00,,,,,,,,,,,,0,1,0,,-1384,15596,3392,-58,61,-122
9.364,8.87,1.13,-0.73,3.69,inf,inf,2.64,-0.58,3.65,-1.82,320.00,989.00,0.00,223.00,832.00,1898.00,388.00,597.00,,,,,,,,,,,,0,1,0,,-1368,15636,3292,-125,83,-53
9.384,8.93,1.17,3.26,-0.98,16.14,-9.20,2.06,-1.42,2.68,-1.26,383.00,957.00,125.00,129.00,880.00,1986.00,383.00,611.00,,,,,,,,,,,,0,1,0,,-1252,15732,3276,-164,172,-129
9.488,8.98,1.09,0.81,0.58,7.63,-8.43,-0.56,1.78,-1.06,2.42,368.00,1011.00,140.00,177.00,776.00,2022.00,336.00,642.00,,,,,,,,,,,,0,1,0,,-1312,15684,3464,-169,152,-140
9.509,9.04,1.07,-2.10,4.14,-18.52,25.96,0.81,0.72,2.46,-0.45,320.00,1031.00,35.00,198.00,802.00,1971.00,368.00,603.00,,,,,,,,,,,,0,1,0,,-1148,15688,3224,-93,133,-132
9.551,9.09,1.16,1.07,0.50,-6.22,8.00,2.87,-2.25,1.58,-0.84,368.00,1003.00,74.00,197.00,907.00,1967.00,382.00,631.00,,,,,,,,,,,,0,1,0,,-1324,15608,3352,-78,26,-168
9.613,9.15,1.11,1.82,-1.70,8.60,-9.66,0.04,0.18,-3.25,3.94,409.00,1033.00,147.00,176.00,837.00,2061.00,322.00,672.00,,,,,,,,,,,,0,1,0,,-1336,15720,3340,-74,31,-152
9.674,9.20,1.04,-1.72,1.59,-15.87,9.81,-0.25,1.56,-0.23,2.25,365.00,1088.00,80.00,275.00,781.00,2009.00,334.00,624.00,,,,,,,,,,,,0,1,0,,-1312,15720,3292,-60,113,-122
9.737,9.26,1.14,-0.47,2.59,-13.09,19.09,3.12,-1.78,3.98,-3.00,338.00,1008.00,46.00,192.00,880.00,1923.00,411.00,608.00,,,,,,,,,,,,0,1,0,,-1284,15600,3384,-181,94,-261
9.777,9.31,1.16,3.98,-2.16,18.99,-8.13,1.44,-0.22,-0.10,1.29,403.00,960.00,112.00,112.00,834.00,1971.00,351.00,637.00,,,,,,,,,,,,0,1,0,,-1244,15640,3328,-157,77,-199
9.879,9.37,1.06,0.06,1.76,-0.68,0.21,-0.82,2.40,-1.09,3.10,350.00,1009.00,102.00,195.00,754.00,2009.00,324.00,631.00,,,,,,,,,,,,0,1,0,,-1364,15632,3472,-99,29,-256
9.899,9.42,1.16,-1.23,4.80,-24.88,36.67,3.05,-0.87,5.53,-2.55,304.00,979.00,22.00,191.00,839.00,1882.00,390.00,565.00,,,,,,,,,,,,0,1,0,,-1292,15752,3556,-37,87,-117
9.941,9.48,1.19,4.09,-0.62,12.70,-0.48,1.87,-0.80,5.28,-1.44,370.00,917.00,83.00,117.00,854.00,1968.00,369.00,554.00,,,,,,,,,,,,0,1,0,,-1408,15672,3384,-36,217,-160
10.002,9.53,1.11,0.84,0.88,4.15,-5.75,-0.58,1.60,-3.64,5.14,362.00,1002.00,129.00,189.00,784.00,2033.00,304.00,661.00,,,,,,,,,,,,0,1,0,,-1292,15608,3268,-141,166,-192
10.043,9.59,1.11,-1.47,3.99,-14.19,12.24,1.27,0.49,0.82,1.73,319.00,1010.00,68.00,241.00,805.00,1947.00,337.00,607.00,,,,,,,,,,,,0,1,0,,-1376,15740,3336,-152,56,-164
10.105,9.64,1.21,2.00,0.34,-11.33,18.90,2.97,-1.83,3.38,-2.30,365.00,971.00,45.00,180.00,885.00,1937.00,400.00,611.00,,,,,,,,,,,,0,1,0,,-1380,15656,3464,-191,35,-185
10.167,9.70,1.15,3.14,-2.60,15.03,-15.36,0.05,0.61,-2.71,2.65,419.00,1004.00,178.00,159.00,818.00,2037.00,342.00,681.00,,,,,,,,,,,,0,1,0,,-1452,15680,3484,-105,66,-182
10.207,9.75,1.07,-2.58,3.41,-14.92,8.81,-0.35,1.76,2.06,0.78,336.00,1072.00,83.00,272.00,774.00,2006.00,347.00,593.00,,,,,,,,,,,,0,1,0,,-1268,15592,3360,-72,75,-79
10.268,9.81,1.20,-0.63,3.31,-33.75,49.37,3.60,-1.94,3.01,-1.75,326.00,995.00,13.00,193.00,880.00,1895.00,391.00,611.00,,,,,,,,,,,,0,1,0,,-1392,15604,3520,-95,113,-70
10.33,9.86,1.22,2.54,-0.69,14.62,-6.66,1.70,-0.64,0.32,0.33,382.00,977.00,112.00,128.00,849.00,1973.00,367.00,643.00,,,,,,,,,,,,0,1,0,,-1312,15636,3596,-175,112,-56
10.371,9.91,1.11,-0.25,1.25,2.50,-2.91,-0.98,2.80,-0.31,2.72,362.00,1036.00,114.00,187.00,740.00,2000.00,326.00,618.00,,,,,,,,,,,,0,1,0,,-1264,15580,3600,-157,109,-122
10.432,9.97,1.19,-2.25,4.84,-52.16,73.21,2.59,-0.61,3.99,-1.06,309.00,1018.00,5.00,211.00,834.00,1903.00,370.00,577.00,,,,,,,,,,,,0,1,0,,-1324,15736,3348,-48,101,-190
10.514,10.03,1.20,2.56,-0.45,12.78,-3.95,1.37,-0.65,0.47,-0.37,377.00,970.00,100.00,128.00,855.00,2000.00,380.00,651.00,,,,,,,,,,,,0,1,0,,-1300,15644,3368,-12,58,-177
10.576,10.08,1.07,-0.15,0.91,5.19,-7.87,-1.40,2.14,-0.99,2.95,368.00,1041.00,142.00,192.00,773.00,2070.00,326.00,631.00,,,,,,,,,,,,0,1,0,,-1460,15768,3352,12,117,-199
10.596,10.14,1.05,-2.95,4.09,-19.84,20.57,0.72,0.42,1.42,0.41,326.00,1068.00,48.00,241.00,816.00,1993.00,358.00,614.00,,,,,,,,,,,,0,1,0,,-1392,15512,3360,27,70,-127
10.658,10.19,1.13,0.82,0.28,-3.25,5.56,2.64,-1.97,2.66,-2.19,374.00,1019.00,80.00,187.00,897.00,1970.00,403.00,627.00,,,,,,,,,,,,0,1,0,,-1360,15732,3304,-38,114,-206
10.719,10.25,1.09,3.51,-3.54,11.41,-12.51,0.25,0.01,-1.58,1.42,438.00,1015.00,163.00,170.00,842.00,2054.00,358.00,673.00,,,,,,,,,,,,0,1,0,,-1308,15620,3492,-165,131,-168
10.801,10.30,1.04,-1.88,2.57,-14.77,8.32,0.23,1.59,1.05,0.54,347.00,1066.00,85.00,274.00,773.00,1970.00,358.00,621.00,,,,,,,,,,,,0,1,0,,-1364,15684,3336,-145,15,-204
10.821,10.36,1.17,-0.75,3.75,-22.46,33.50,3.57,-1.80,3.67,-1.54,319.00,988.00,25.00,189.00,874.00,1890.00,382.00,592.00,,,,,,,,,,,,0,1,0,,-1420,15624,3404,-67,17,-193
10.862,10.41,1.19,3.20,-1.00,15.10,-5.28,1.50,-0.33,1.40,-0.34,384.00,960.00,103.00,121.00,838.00,1972.00,373.00,627.00,,,,,,,,,,,,0,1,0,,-1464,15648,3568,-64,116,-169
10.945,10.47,1.09,0.78,0.75,-2.96,-0.75,-0.74,2.45,-0.51,2.12,365.00,1008.00,112.00,219.00,751.00,2000.00,338.00,633.00,,,,,,,,,,,,0,1,0,,-1504,15664,3272,-48,169,-161
11.007,10.52,1.18,-1.96,5.41,-53.23,73.57,2.87,-0.77,4.62,-1.47,298.00,991.00,5.00,218.00,837.00,1890.00,374.00,569.00,,,,,,,,,,,,0,1,0,,-1292,15668,3408,-144,124,-169
11.047,10.58,1.24,3.75,-0.75,12.29,-3.22,2.35,-1.41,0.74,-0.07,375.00,933.00,97.00,128.00,875.00,1963.00,372.00,639.00,,,,,,,,,,,,0,1,0,,-1312,15568,3332,-200,61,-148
11.089,10.63,1.16,1.60,0.02,6.36,-6.35,-0.39,1.65,-0.65,2.28,374.00,995.00,128.00,176.00,779.00,2015.00,336.00,634.00,,,,,,,,,,,,0,1,0,,-1352,15656,3492,-132,62,-231
11.152,10.69,1.13,-2.50,4.16,-19.91,17.42,0.69,1.03,1.34,0.60,322.00,1047.00,57.00,263.00,790.00,1963.00,355.00,613.00,,,,,,,,,,,,0,1,0,,-1384,15600,3464,-41,139,-182
11.211,10.74,1.22,1.60,0.32,-4.94,8.86,2.84,-1.79,2.49,-1.76,368.00,987.00,69.00,183.00,885.00,1945.00,395.00,624.00,,,,,,,,,,,,0,1,0,,-1364,15604,3264,-73,93,-134
11.253,10.80,1.16,2.05,-1.65,18.83,-16.21,0.11,0.23,-3.00,3.07,406.00,1022.00,174.00,140.00,834.00,2053.00,336.00,681.00,,,,,,,,,,,,0,1,0,,-1348,15580,3488,-133,111,-80
11.316,10.85,1.09,-2.58,3.41,-7.85,3.36,-0.39,2.06,0.54,1.77,336.00,1072.00,98.00,238.00,762.00,1993.00,338.00,613.00,,,,,,,,,,,,0,1,0,,-1252,15712,3508,-162,195,-90
11.378,10.91,1.17,-0.87,2.78,-17.42,23.60,2.85,-1.66,4.97,-2.83,337.00,1019.00,39.00,202.00,879.00,1938.00,400.00,582.00,,,,,,,,,,,,0,1,0,,-1296,15728,3364,-209,171,-135
11.42,10.96,1.18,2.34,-0.62,17.40,-7.10,1.23,-0.46,0.40,-0.20,382.00,983.00,109.00,116.00,848.00,2000.00,377.00,650.00,,,,,,,,,,,,0,1,0,,-1392,15672,3496,-138,86,-171
11.481,11.02,1.06,-1.16,2.23,-3.42,1.31,-1.09,2.54,-0.82,2.17,349.00,1046.00,101.00,211.00,752.00,2023.00,339.00,640.00,,,,,,,,,,,,0,1,0,,-1340,15692,3420,-50,47,-175
11.542,11.07,1.11,-2.55,4.24,inf,inf,2.05,-0.16,7.68,-6.56,321.00,1047.00,0.00,237.00,822.00,1921.00,466.00,578.00,,,,,,,,,,,,0,1,0,,-1408,15688,3428,-29,67,-167
11.602,11.13,1.15,2.63,-0.86,13.37,-1.15,1.86,-1.48,2.13,-1.83,385.00,978.00,85.00,116.00,886.00,2005.00,399.00,634.00,,,,,,,,,,,,0,1,0,,-1372,15628,3440,32,175,-104
11.685,11.18,1.05,-0.11,0.25,5.71,-7.25,-0.88,1.47,-2.61,3.22,381.00,1058.00,136.00,185.00,794.00,2065.00,331.00,668.00,,,,,,,,,,,,0,1,0,,-1264,15572,3412,-110,158,-253
11.705,11.24,1.02,-1.69,2.41,-17.09,12.42,0.45,1.11,1.24,1.48,349.00,1063.00,71.00,269.00,790.00,1978.00,339.00,601.00,,,,,,,,,,,,0,1,0,,-1264,15660,3332,-166,123,-117
11.745,11.29,1.13,1.37,0.40,-5.18,10.05,3.25,-2.34,2.81,-2.83,368.00,994.00,65.00,179.00,905.00,1942.00,416.00,634.00,,,,,,,,,,,,0,1,0,,-1376,15616,3548,-80,68,-178
11.808,11.35,1.07,3.80,-3.38,19.88,-17.50,-0.14,0.85,-2.09,1.96,432.00,999.00,183.00,139.00,810.00,2039.00,351.00,677.00,,,,,,,,,,,,0,1,0,,-1424,15596,3588,-20,116,-128
11.85,11.40,1.02,-1.37,2.03,-11.80,5.46,0.21,1.34,0.29,1.47,354.00,1060.00,94.00,263.00,784.00,1985.00,345.00,624.00,,,,,,,,,,,,0,1,0,,-1340,15636,3420,-15,198,-99
11.912,11.46,1.11,0.05,2.20,-29.05,39.84,2.81,-0.99,5.87,-2.71,342.00,998.00,20.00,207.00,848.00,1906.00,391.00,560.00,,,,,,,,,,,,0,1,0,,-1416,15568,3304,-81,151,-198
11.973,11.51,1.12,2.11,0.25,18.55,-7.82,1.29,-0.06,-0.35,1.43,366.00,969.00,111.00,113.00,829.00,1974.00,350.00,641.00,,,,,,,,,,,,0,1,0,,-1404,15616,3412,-172,8,-133
12.056,11.57,1.02,-0.78,2.21,-1.77,-1.48,-0.94,2.54,-1.91,4.19,347.00,1031.00,114.00,213.00,750.00,2011.00,310.00,633.00,,,,,,,,,,,,0,1,0,,-1400,15732,3500,-140,49,-280
12.096,11.62,1.10,-2.51,5.60,inf,inf,2.60,-0.57,2.39,0.04,298.00,1008.00,0.00,211.00,832.00,1900.00,359.00,597.00,,,,,,,,,,,,0,1,0,,-1440,15680,3520,-155,115,-240
12.138,11.68,1.14,2.37,0.06,8.12,2.93,1.99,-0.95,1.76,-1.28,368.00,964.00,75.00,128.00,859.00,1967.00,390.00,634.00,,,,,,,,,,,,0,1,0,,-1396,15572,3472,-64,35,-189
12.199,11.73,1.07,0.53,-0.06,5.21,-6.11,-0.40,1.35,-3.65,4.31,383.00,1040.00,129.00,183.00,792.00,2032.00,318.00,676.00,,,,,,,,,,,,0,1,0,,-1384,15652,3264,-88,95,-171
12.26,11.79,1.05,-0.82,1.44,-12.29,7.48,0.68,1.01,1.50,-0.12,362.00,1054.00,85.00,254.00,791.00,1965.00,368.00,621.00,,,,,,,,,,,,0,1,0,,-1412,15628,3572,-128,193,-164
12.32,11.84,1.14,0.54,0.73,-10.03,18.47,2.94,-2.13,2.69,-2.47,367.00,1018.00,45.00,173.00,900.00,1955.00,409.00,631.00,,,,,,,,,,,,0,1,0,,-1352,15572,3416,-120,188,-129
12.362,11.90,1.08,3.07,-3.01,12.49,-12.76,-0.15,0.16,-2.61,3.22,429.00,1018.00,162.00,164.00,841.00,2078.00,331.00,668.00,,,,,,,,,,,,0,1,0,,-1448,15672,3460,-119,110,-146
12.446,11.95,1.02,-2.52,2.32,-12.39,5.08,-0.06,1.26,-0.67,2.02,356.00,1101.00,97.00,272.00,791.00,2010.00,341.00,639.00,,,,,,,,,,,,0,1,0,,-1392,15532,3428,-117,55,-131
12.467,12.01,1.10,-0.91,2.04,-28.42,38.73,2.57,-0.95,2.53,-1.16,351.00,1041.00,21.00,208.00,850.00,1922.00,382.00,613.00,,,,,,,,,,,,0,1,0,,-1400,15624,3464,-80,57,-185
12.548,12.06,1.10,0.90,0.01,18.12,-7.84,1.09,-0.71,-0.83,0.76,379.00,1023.00,112.00,115.00,862.00,2025.00,366.00,665.00,,,,,,,,,,,,0,1,0,,-1444,15676,3408,-57,140,-116
12.568,12.12,0.96,-1.72,2.10,-2.33,-0.29,-1.54,3.04,-2.11,3.67,355.00,1073.00,108.00,211.00,738.00,2032.00,320.00,647.00,,,,,,,,,,,,0,1,0,,-1396,15580,3328,-244,227,-156
12.629,12.17,1.01,-3.81,6.10,-33.35,43.23,1.95,0.01,3.51,-1.05,297.00,1047.00,18.00,224.00,816.00,1920.00,373.00,588.00,,,,,,,,,,,,0,1,0,,-1412,15572,3380,-161,129,-166
12.692,12.23,1.08,1.99,0.85,7.57,2.87,2.42,-1.67,0.48,-0.66,355.00,958.00,76.00,131.00,886.00,1971.00,386.00,656.00,,,,,,,,,,,,0,1,0,,-1412,15652,3356,-60,10,-98
12.776,12.28,0.98,1.28,-0.36,9.46,-10.93,-0.99,1.74,-2.56,3.54,384.00,1018.00,155.00,176.00,784.00,2059.00,325.00,661.00,,,,,,,,,,,,0,1,0,,-1348,15580,3636,-62,116,-175
12.796,12.34,0.96,-1.81,2.45,-12.61,8.26,0.66,0.67,1.19,-0.27,349.00,1067.00,82.00,252.00,806.00,1985.00,373.00,631.00,,,,,,,,,,,,0,1,0,,-1332,15732,3424,-29,212,-134
12.857,12.39,1.07,1.02,0.87,-4.88,10.23,3.09,-2.39,2.69,-2.06,361.00,995.00,64.00,176.00,910.00,1957.00,400.00,624.00,,,,,,,,,,,,0,1,0,,-1320,15552,3240,-61,138,-126
12.898,12.45,1.02,4.13,-3.45,21.15,-17.72,0.02,0.53,-1.86,0.96,431.00,988.00,181.00,133.00,822.00,2044.00,369.00,689.00,,,,,,,,,,,,0,1,0,,-1316,15700,3396,-136,62,-142
12.96,12.50,0.93,-1.51,2.77,-9.72,3.25,-0.73,2.32,0.44,1.32,341.00,1045.00,102.00,257.00,756.00,2006.00,347.00,623.00,,,,,,,,,,,,0,1,0,,-1324,15572,3512,-110,58,-230
13.023,12.56,1.02,-0.97,3.37,-44.62,64.46,2.62,-0.80,-0.99,0.71,327.00,1007.00,7.00,198.00,842.00,1910.00,368.00,670.00,,,,,,,,,,,,0,1,0,,-1420,15644,3512,-86,31,-194
13.063,12.61,1.03,1.60,0.32,14.31,-1.90,1.41,-0.73,-0.19,0.50,368.00,987.00,87.00,114.00,858.00,2001.00,367.00,653.00,,,,,,,,,,,,0,1,0,,-1468,15672,3420,-85,61,-121
13.145,12.66,0.90,-1.07,1.99,0.88,-3.77,-1.71,3.22,-2.41,3.77,353.00,1049.00,123.00,204.00,733.00,2036.00,320.00,653.00,,,,,,,,,,,,0,1,0,,-1424,15592,3488,-98,97,-83
13.186,12.72,0.95,-3.31,5.50,-53.69,70.36,2.03,-0.15,3.91,-1.77,304.00,1043.00,6.00,242.00,822.00,1922.00,385.00,590.00,,,,,,,,,,,,0,1,0,,-1448,15500,3580,-173,131,-66
13.249,12.78,1.01,1.86,0.23,9.15,-2.73,2.10,-1.43,0.25,0.60,368.00,979.00,100.00,143.00,880.00,1984.00,362.00,640.00,,,,,,,,,,,,0,1,0,,-1432,15656,3412,-175,166,-49
13.29,12.83,0.94,0.06,0.39,6.79,-5.91,-0.41,0.85,-0.88,1.34,377.00,1047.00,124.00,171.00,814.00,2061.00,355.00,656.00,,,,,,,,,,,,0,1,0,,-1404,15616,3348,-103,113,-122
13.332,12.89,0.90,-2.09,2.54,-15.76,13.04,0.15,1.10,1.03,0.04,349.00,1076.00,67.00,251.00,795.00,2002.00,368.00,630.00,,,,,,,,,,,,0,1,0,,-1368,15648,3528,-27,27,-143
13.394,12.94,0.97,0.29,0.41,-7.58,12.95,2.38,-1.76,1.85,-2.05,375.00,1037.00,58.00,182.00,891.00,1979.00,406.00,645.00,,,,,,,,,,,,0,1,0,,-1288,15804,3320,-36,151,-117
13.456,13.00,0.90,2.66,-2.91,15.38,-12.44,-0.42,0.81,-1.91,0.97,430.00,1032.00,151.00,145.00,816.00,2064.00,369.00,690.00,,,,,,,,,,,,0,1,0,,-1276,15464,3428,-192,119,-200
13.518,13.05,0.86,-2.25,2.91,-14.91,9.48,-0.08,1.65,0.24,2.09,343.00,1072.00,80.00,267.00,775.00,1991.00,334.00,615.00,,,,,,,,,,,,0,1,0,,-1392,15628,3592,-117,66,-198
13.579,13.11,0.94,-0.71,2.94,-32.83,45.23,2.55,-0.50,2.19,-0.35,333.00,1008.00,16.00,208.00,830.00,1901.00,368.00,608.00,,,,,,,,,,,,0,1,0,,-1520,15640,3484,-61,62,-199
13.64,13.16,0.94,3.34,-1.10,15.03,-5.78,0.87,0.13,-1.42,2.43,385.00,957.00,106.00,123.00,827.00,1997.00,338.00,651.00,,,,,,,,,,,,0,1,0,,-1352,15748,3620,-64,86,-151
13.701,13.22,0.83,-0.93,2.10,2.66,-2.14,-1.29,2.86,-2.16,3.98,350.00,1040.00,109.00,182.00,742.00,2022.00,315.00,643.00,,,,,,,,,,,,0,1,0,,-1456,15620,3348,2,154,-83
13.721,13.27,0.90,-3.21,5.47,-43.78,51.38,2.34,-0.39,2.87,-0.73,304.00,1040.00,14.00,272.00,828.00,1911.00,371.00,598.00,,,,,,,,,,,,0,1,0,,-1376,15696,3212,-134,118,-207
13.783,13.33,0.98,3.46,-0.80,9.02,-3.05,2.41,-1.54,0.77,-0.81,378.00,945.00,102.00,145.00,880.00,1965.00,387.00,651.00,,,,,,,,,,,,0,1,0,,-1396,15624,3428,-194,46,-154
13.886,13.38,0.93,1.40,-0.54,8.41,-10.21,0.11,0.61,-0.04,0.45,387.00,1018.00,152.00,180.00,817.00,2032.00,367.00,650.00,,,,,,,,,,,,0,1,0,,-1408,15652,3484,-169,62,-205
13.906,13.44,0.91,-1.74,2.16,-15.04,8.85,0.41,1.22,1.68,-0.63,354.00,1072.00,83.00,273.00,786.00,1975.00,377.00,625.00,,,,,,,,,,,,0,1,0,,-1392,15556,3444,-141,51,-198
13.948,13.49,1.02,1.27,0.99,-5.66,11.38,3.15,-2.00,2.45,-1.70,357.00,982.00,61.00,176.00,890.00,1932.00,394.00,624.00,,,,,,,,,,,,0,1,0,,-1464,15552,3464,-94,34,-132
14.01,13.55,0.97,3.32,-3.00,17.54,-14.57,-0.01,0.51,-2.61,2.94,427.00,1008.00,163.00,141.00,823.00,2047.00,336.00,673.00,,,,,,,,,,,,0,1,0,,-1504,15596,3536,-163,101,-66
14.053,13.60,0.88,-1.26,1.28,-8.81,2.95,-0.75,2.45,-0.32,1.84,368.00,1077.00,102.00,250.00,751.00,2001.00,342.00,633.00,,,,,,,,,,,,0,1,0,,-1328,15576,3684,-157,218,-120
14.115,13.66,0.96,-1.10,2.96,-34.67,45.85,2.46,-0.81,2.46,0.11,335.00,1023.00,16.00,220.00,845.00,1923.00,357.00,594.00,,,,,,,,,,,,0,1,0,,-1336,15696,3492,-145,155,-96
14.177,13.71,0.99,2.62,-0.81,17.70,-7.53,1.64,-1.03,-0.24,1.44,384.00,977.00,111.00,116.00,868.00,1998.00,349.00,638.00,,,,,,,,,,,,0,1,0,,-1444,15688,3584,-97,71,-180
14.259,13.77,0.87,-1.57,2.26,3.31,-2.69,-1.44,2.78,-2.07,2.76,351.00,1062.00,111.00,180.00,747.00,2038.00,336.00,662.00,,,,,,,,,,,,0,1,0,,-1320,15644,3532,-58,34,-168
14.28,13.82,0.90,-4.14,5.78,-25.29,28.78,1.35,0.32,2.55,-0.82,304.00,1070.00,34.00,240.00,811.00,1949.00,375.00,607.00,,,,,,,,,,,,0,1,0,,-1376,15612,3492,-27,156,-105
14.343,13.88,0.97,2.46,-0.80,4.63,2.91,2.35,-1.93,0.77,0.12,385.00,983.00,80.00,147.00,900.00,1991.00,368.00,635.00,,,,,,,,,,,,0,1,0,,-1344,15584,3516,-119,187,-252
14.404,13.93,0.92,0.70,-0.31,6.64,-8.62,-0.08,0.36,-0.59,1.09,387.00,1040.00,144.00,185.00,831.00,2061.00,358.00,653.00,,,,,,,,,,,,0,1,0,,-1444,15536,3520,-208,110,-124
14.465,13.99,0.91,-2.61,3.42,-15.88,7.84,0.69,0.73,1.60,-0.16,336.00,1073.00,89.00,290.00,803.00,1979.00,368.00,619.00,,,,,,,,,,,,0,1,0,,-1420,15580,3620,-116,54,-184
14.527,14.04,1.02,0.55,1.49,-17.06,24.95,3.20,-1.81,3.33,-3.00,352.00,997.00,36.00,192.00,880.00,1918.00,416.00,624.00,,,,,,,,,,,,0,1,0,,-1468,15572,3608,-71,106,-157
14.608,14.10,0.99,3.84,-2.83,23.76,-15.50,0.35,0.30,-2.32,2.62,419.00,983.00,153.00,113.00,827.00,2029.00,340.00,671.00,,,,,,,,,,,,0,1,0,,-1472,15680,3504,-18,188,-90
14.628,14.15,0.95,-1.49,2.39,-6.56,1.31,0.24,1.35,0.61,1.86,348.00,1055.00,107.00,239.00,783.00,1982.00,336.00,610.00,,,,,,,,,,,,0,1,0,,-1332,15620,3428,-69,189,-182
14.69,14.21,1.02,-1.31,4.05,-29.09,40.80,2.40,-0.21,0.71,0.86,317.00,1002.00,19.00,202.00,819.00,1897.00,354.00,624.00,,,,,,,,,,,,0,1,0,,-1392,15556,3504,-136,103,-175
14.711,14.26,1.07,2.43,0.39,18.84,-7.58,2.02,-0.81,2.19,-0.65,361.00,953.00,109.00,111.00,852.00,1957.00,374.00,613.00,,,,,,,,,,,,0,1,0,,-1444,15672,3520,-90,74,-208
14.773,14.32,0.96,1.03,0.26,3.30,-5.46,-1.20,2.80,-2.59,4.84,373.00,1011.00,129.00,194.00,743.00,2018.00,303.00,639.00,,,,,,,,,,,,0,1,0,,-1432,15628,3532,-82,102,-240
14.833,14.37,1.01,-2.72,5.42,-35.61,43.99,2.06,-0.03,2.39,-0.77,302.00,1021.00,18.00,240.00,816.00,1913.00,375.00,610.00,,,,,,,,,,,,0,1,0,,-1440,15536,3380,-25,50,-178
14.895,14.43,1.09,2.47,0.03,6.46,2.29,2.48,-1.44,0.90,-0.37,368.00,961.00,80.00,139.00,874.00,1954.00,377.00,640.00,,,,,,,,,,,,0,1,0,,-1372,15652,3380,-57,129,-129
14.955,14.48,1.01,0.60,-0.08,12.63,-8.89,-0.37,0.93,-1.59,1.32,383.00,1038.00,131.00,147.00,810.00,2053.00,360.00,675.00,,,,,,,,,,,,0,1,0,,-1376,15648,3464,-124,180,-147
15.017,14.54,0.96,-2.01,2.35,-13.43,6.21,0.03,1.66,0.77,0.12,352.00,1078.00,93.00,275.00,773.00,1982.00,368.00,635.00,,,,,,,,,,,,0,1,0,,-1340,15648,3404,-118,152,-119
15.038,14.59,1.05,0.75,0.61,-12.57,17.38,2.71,-1.87,1.90,-1.66,368.00,1013.00,50.00,197.00,891.00,1959.00,397.00,637.00,,,,,,,,,,,,0,1,0,,-1376,15612,3508,-91,124,-153
15.1,14.65,1.03,2.92,-2.78,19.21,-12.85,0.70,-0.28,-2.81,2.41,425.00,1018.00,144.00,126.00,848.00,2033.00,347.00,688.00,,,,,,,,,,,,0,1,0,,-1464,15572,3472,-41,64,-166
15.162,14.70,0.95,-1.48,1.91,-2.35,-0.62,-0.59,2.23,0.78,0.94,357.00,1068.00,110.00,213.00,758.00,2000.00,352.00,621.00,,,,,,,,,,,,0,1,0,,-1436,15676,3476,-58,38,-173
15.224,14.76,1.01,-2.64,4.62,-33.76,45.54,2.10,-0.49,2.54,-2.01,315.00,1040.00,16.00,214.00,836.00,1934.00,400.00,627.00,,,,,,,,,,,,0,1,0,,-1464,15672,3404,-12,153,-116
15.265,14.81,1.01,1.79,-0.53,20.99,-7.96,1.05,-0.40,-0.83,1.33,384.00,1002.00,107.00,103.00,848.00,2011.00,355.00,655.00,,,,,,,,,,,,0,1,0,,-1356,15608,3572,-195,191,-201
15.346,14.87,0.91,0.32,0.25,0.60,-2.44,-1.13,2.53,-2.21,3.59,378.00,1040.00,115.00,199.00,753.00,2027.00,322.00,651.00,,,,,,,,,,,,0,1,0,,-1464,15704,3420,-225,145,-169
15.368,14.92,0.96,-3.00,5.76,-25.29,28.78,1.98,-0.02,4.38,-2.02,298.00,1023.00,34.00,240.00,817.00,1919.00,387.00,583.00,,,,,,,,,,,,0,1,0,,-1452,15640,3580,-97,33,-158
15.429,14.98,1.05,3.08,-0.33,2.86,7.34,2.74,-1.84,0.81,0.01,371.00,947.00,65.00,140.00,889.00,1955.00,370.00,636.00,,,,,,,,,,,,0,1,0,,-1580,15752,3548,-49,103,-122
15.491,15.03,0.98,1.93,-0.58,8.26,-8.51,-0.26,0.76,-5.49,3.91,384.00,998.00,139.00,173.00,816.00,2054.00,336.00,735.00,,,,,,,,,,,,0,1,0,,-1448,15696,3532,-21,244,-89
15.533,15.09,0.97,-2.18,3.27,-17.53,13.92,0.76,0.53,1.19,0.03,336.00,1059.00,66.00,263.00,811.00,1985.00,367.00,626.00,,,,,,,,,,,,0,1,0,,-1376,15600,3328,-87,144,-147
15.615,15.14,1.09,0.34,2.48,-8.26,14.16,3.24,-1.63,2.69,-2.06,335.00,979.00,55.00,181.00,871.00,1906.00,400.00,624.00,,,,,,,,,,,,0,1,0,,-1324,15488,3620,-148,68,-85
15.657,15.20,1.06,3.49,-1.85,24.67,-16.52,0.49,0.55,-1.93,2.55,400.00,971.00,159.00,112.00,814.00,2005.00,339.00,662.00,,,,,,,,,,,,0,1,0,,-1348,15692,3492,-175,99,-178
15.718,15.25,0.96,0.07,1.60,-6.89,6.79,-0.81,2.67,0.89,1.38,353.00,1013.00,80.00,209.00,743.00,1994.00,343.00,611.00,,,,,,,,,,,,0,1,0,,-1428,15616,3404,-77,115,-191
15.781,15.31,1.04,-1.49,3.94,inf,inf,2.58,-0.52,2.84,-0.57,320.00,1012.00,0.00,219.00,830.00,1899.00,368.00,596.00,,,,,,,,,,,,0,1,0,,-1448,15564,3456,-21,73,-141
15.863,15.36,1.08,3.91,-0.95,27.29,-6.89,1.70,-0.64,0.26,0.30,378.00,932.00,90.00,78.00,849.00,1973.00,368.00,645.00,,,,,,,,,,,,0,1,0,,-1448,15584,3408,-111,73,-141
15.885,15.41,0.97,0.43,0.71,3.98,-5.69,-1.03,2.40,-2.16,4.04,368.00,1023.00,129.00,190.00,757.00,2026.00,314.00,642.00,,,,,,,,,,,,0,1,0,,-1444,15608,3500,-169,126,-170
15.927,15.47,1.01,-2.94,5.31,-33.91,40.57,1.73,-0.25,3.06,-0.65,305.00,1033.00,21.00,246.00,831.00,1950.00,368.00,592.00,,,,,,,,,,,,0,1,0,,-1404,15600,3556,-154,120,-139
15.989,15.53,1.09,1.47,0.36,-0.08,6.70,2.61,-1.84,1.16,-0.75,368.00,991.00,71.00,160.00,891.00,1965.00,383.00,640.00,,,,,,,,,,,,0,1,0,,-1328,15652,3404,-107,103,-140
16.05,15.58,1.04,1.81,-1.29,13.86,-14.33,0.02,0.10,-2.44,1.87,400.00,1022.00,172.00,162.00,841.00,2067.00,355.00,688.00,,,,,,,,,,,,0,1,0,,-1320,15592,3620,-69,71,-133
16.092,15.64,1.00,-1.98,1.52,-19.22,14.21,0.37,0.79,2.57,-0.98,368.00,1101.00,67.00,279.00,805.00,2001.00,378.00,609.00,,,,,,,,,,,,0,1,0,,-1456,15620,3420,-69,50,-139
16.154,15.69,1.10,-0.93,2.10,-15.49,24.42,2.91,-1.94,3.21,-2.83,350.00,1040.00,36.00,183.00,891.00,1947.00,413.00,624.00,,,,,,,,,,,,0,1,0,,-1400,15692,3500,-87,201,-92
16.195,15.75,1.06,3.55,-3.08,24.98,-16.96,0.38,-0.17,-3.00,3.24,427.00,1001.00,162.00,112.00,848.00,2053.00,333.00,678.00,,,,,,,,,,,,0,1,0,,-1388,15500,3488,-230,127,-232
16.278,15.80,0.92,0.38,0.78,-0.86,0.09,-1.74,2.71,-0.73,2.92,367.00,1023.00,103.00,197.00,754.00,2066.00,325.00,625.00,,,,,,,,,,,,0,1,0,,-1376,15604,3524,-190,32,-140
16.32,15.86,1.01,-1.76,4.98,inf,inf,2.72,-0.38,3.04,-1.43,304.00,995.00,0.00,222.00,822.00,1882.00,384.00,605.00,,,,,,,,,,,,0,1,0,,-1460,15540,3540,-54,12,-199
16.382,15.91,1.03,2.17,0.89,21.37,-6.28,1.42,-0.35,0.41,0.60,353.00,950.00,97.00,97.00,840.00,1979.00,361.00,636.00,,,,,,,,,,,,0,1,0,,-1616,15572,3508,-94,111,-135
16.485,15.97,0.94,1.03,0.26,2.16,-3.59,-0.72,2.37,-2.22,4.60,373.00,1011.00,119.00,193.00,754.00,2003.00,305.00,634.00,,,,,,,,,,,,0,1,0,,-1316,15680,3460,-5,217,-113
16.506,16.02,1.00,-1.55,3.96,-24.27,27.90,1.98,-0.02,2.94,-0.91,320.00,1014.00,35.00,236.00,817.00,1919.00,374.00,599.00,,,,,,,,,,,,0,1,0,,-1464,15632,3468,-112,203,-154
16.547,16.07,1.08,1.15,0.98,-7.56,11.72,2.58,-1.66,2.02,-1.84,358.00,987.00,62.00,188.00,883.00,1958.00,400.00,637.00,,,,,,,,,,,,0,1,0,,-1420,15588,3536,-125,66,-147
16.61,16.13,1.03,2.51,-1.25,10.74,-12.17,0.09,0.66,-2.21,2.97,394.00,993.00,162.00,173.00,815.00,2031.00,333.00,662.00,,,,,,,,,,,,0,1,0,,-1544,15584,3476,-140,35,-197
16.651,16.18,1.01,-1.94,2.70,-16.92,13.16,0.74,1.04,1.79,-0.07,345.00,1065.00,68.00,262.00,789.00,1959.00,365.00,613.00,,,,,,,,,,,,0,1,0,,-1476,15512,3640,-118,107,-204
16.714,16.24,1.13,0.05,3.02,-26.00,40.76,3.34,-2.18,3.36,-2.19,327.00,976.00,18.00,179.00,896.00,1927.00,398.00,610.00,,,,,,,,,,,,0,1,0,,-1472,15584,3652,-124,78,-136
16.777,16.30,1.09,4.10,-3.48,24.47,-10.46,0.35,0.55,-1.20,1.82,432.00,990.00,115.00,96.00,816.00,2016.00,348.00,656.00,,,,,,,,,,,,0,1,0,,-1456,15608,3556,-115,60,-123
16.819,16.35,1.01,-0.47,2.37,-0.98,2.22,-0.45,2.06,0.03,2.16,342.00,1014.00,92.00,187.00,763.00,1998.00,334.00,619.00,,,,,,,,,,,,0,1,0,,-1524,15584,3528,-161,98,-93
16.902,16.41,1.09,-0.88,3.22,-43.91,61.76,2.47,-0.59,3.88,-1.66,329.00,1007.00,8.00,207.00,835.00,1911.00,383.00,589.00,,,,,,,,,,,,0,1,0,,-1396,15600,3600,-184,172,-55
16.922,16.46,1.12,2.66,-0.48,21.93,-8.62,1.84,-0.97,-0.05,0.35,377.00,967.00,109.00,101.00,862.00,1979.00,369.00,652.00,,,,,,,,,,,,0,1,0,,-1404,15576,3448,-136,167,-121
16.966,16.51,1.01,0.49,0.15,1.27,-4.35,-1.24,2.59,-2.31,3.40,379.00,1036.00,126.00,204.00,752.00,2032.00,326.00,657.00,,,,,,,,,,,,0,1,0,,-1448,15556,3540,-127,74,-131
17.026,16.57,1.03,-3.26,5.36,-26.62,32.16,1.56,0.14,2.48,-0.10,306.00,1045.00,29.00,231.00,816.00,1943.00,361.00,597.00,,,,,,,,,,,,0,1,0,,-1388,15608,3484,-79,46,-177
17.088,16.62,1.09,1.14,0.03,-3.81,12.67,2.11,-1.54,0.64,-0.03,377.00,1013.00,55.00,158.00,885.00,1989.00,372.00,641.00,,,,,,,,,,,,0,1,0,,-1436,15524,3584,-85,157,-78
17.15,16.68,1.00,1.61,-1.04,14.76,-13.53,-0.57,0.79,-3.66,3.29,396.00,1023.00,162.00,153.00,819.00,2077.00,336.00,695.00,,,,,,,,,,,,0,1,0,,-1328,15624,3444,-147,203,-244
17.191,16.73,0.97,-3.42,3.85,-17.81,12.66,0.34,1.39,1.06,1.00,333.00,1095.00,71.00,275.00,780.00,1972.00,349.00,613.00,,,,,,,,,,,,0,1,0,,-1416,15588,3496,-170,111,-129
17.272,16.79,1.09,-0.45,3.77,-16.64,27.57,3.34,-1.83,3.85,-1.94,317.00,976.00,31.00,176.00,879.00,1909.00,389.00,594.00,,,,,,,,,,,,0,1,0,,-1452,15540,3576,-36,28,-190
17.293,16.84,1.11,3.70,-1.74,24.51,-15.26,1.52,-0.31,0.78,0.17,396.00,960.00,149.00,109.00,837.00,1970.00,367.00,634.00,,,,,,,,,,,,0,1,0,,-1436,15584,3612,-10,115,-99
17.354,16.90,1.06,0.70,1.34,-6.14,5.85,0.04,1.77,-1.12,3.99,354.00,995.00,83.00,208.00,768.00,1975.00,309.00,617.00,,,,,,,,,,,,0,1,0,,-1380,15656,3544,40,192,-81
17.416,16.95,1.16,-1.59,5.11,-36.68,48.99,3.16,-0.82,5.48,-2.00,301.00,985.00,14.00,219.00,835.00,1871.00,379.00,558.00,,,,,,,,,,,,0,1,0,,-1524,15604,3348,-84,145,-180
17.476,17.01,1.21,4.03,-0.45,21.06,-2.62,2.03,-1.05,1.08,0.02,367.00,915.00,80.00,89.00,863.00,1969.00,368.00,629.00,,,,,,,,,,,,0,1,0,,-1432,15616,3496,-103,65,-175
17.598,17.07,1.12,0.88,0.81,4.92,-6.30,-0.54,1.99,-1.45,3.45,363.00,1002.00,131.00,186.00,767.00,2009.00,320.00,634.00,,,,,,,,,,,,0,1,0,,-1360,15640,3580,-116,76,-171
17.618,17.12,1.12,-1.86,5.01,-28.90,31.70,1.06,0.81,5.06,-1.52,304.00,998.00,31.00,256.00,794.00,1946.00,372.00,560.00,,,,,,,,,,,,0,1,0,,-1484,15544,3476,-15,102,-177
17.658,17.17,1.18,1.22,1.37,-4.45,8.97,2.44,-1.36,1.99,-1.02,350.00,974.00,68.00,179.00,871.00,1953.00,383.00,624.00,,,,,,,,,,,,0,1,0,,-1412,15520,3412,-33,111,-140
17.699,17.23,1.09,3.38,-1.82,15.98,-12.02,-0.56,1.08,-1.15,1.12,400.00,974.00,146.00,140.00,806.00,2060.00,361.00,667.00,,,,,,,,,,,,0,1,0,,-1472,15496,3524,-64,150,-97
17.761,17.28,1.05,-1.91,2.80,-15.51,9.69,0.20,1.65,2.62,0.01,343.00,1061.00,80.00,272.00,771.00,1969.00,358.00,592.00,,,,,,,,,,,,0,1,0,,-1384,15632,3640,-110,192,-111
17.803,17.34,1.18,-0.40,2.67,-15.32,25.42,3.70,-2.33,2.88,-1.37,336.00,1003.00,34.00,177.00,897.00,1907.00,384.00,608.00,,,,,,,,,,,,0,1,0,,-1356,15636,3640,-129,195,-92
17.844,17.39,1.18,3.67,-2.24,21.78,-12.24,1.18,-0.29,-0.01,1.15,407.00,974.00,133.00,112.00,841.00,1995.00,353.00,637.00,,,,,,,,,,,,0,1,0,,-1364,15576,3532,-81,144,-105
17.926,17.45,1.06,-0.76,2.79,-2.95,1.16,-1.23,2.76,0.73,1.98,336.00,1014.00,101.00,208.00,745.00,2022.00,333.00,605.00,,,,,,,,,,,,0,1,0,,-1372,15640,3580,-25,102,-162
17.967,17.50,1.15,-1.91,4.97,-40.45,56.47,2.79,-0.98,3.83,-1.40,305.00,1001.00,10.00,208.00,848.00,1907.00,378.00,586.00,,,,,,,,,,,,0,1,0,,-1448,15504,3596,-15,125,-98
18.008,17.56,1.17,2.87,-0.80,16.20,-4.35,1.55,-0.63,0.70,-0.00,382.00,967.00,96.00,113.00,851.00,1984.00,371.00,639.00,,,,,,,,,,,,0,1,0,,-1492,15740,3532,-53,128,-181
18.069,17.61,1.07,0.25,0.98,4.25,-5.49,-0.89,2.09,-1.30,3.00,364.00,1023.00,127.00,187.00,768.00,2032.00,327.00,638.00,,,,,,,,,,,,0,1,0,,-1432,15696,3432,-68,167,-101
18.131,17.67,1.05,-2.94,5.31,-24.36,24.56,0.83,0.64,2.66,-0.61,305.00,1033.00,42.00,259.00,805.00,1973.00,370.00,601.00,,,,,,,,,,,,0,1,0,,-1348,15544,3380,-247,93,-237
18.193,17.73,1.17,1.71,0.38,-9.80,16.44,3.31,-2.50,2.39,-1.49,366.00,981.00,50.00,181.00,912.00,1946.00,390.00,622.00,,,,,,,,,,,,0,1,0,,-1520,15676,3616,-229,43,-202
18.234,17.78,1.12,3.15,-2.38,15.59,-14.26,0.22,0.26,-2.03,2.47,414.00,998.00,166.00,151.00,831.00,2042.00,341.00,666.00,,,,,,,,,,,,0,1,0,,-1540,15528,3724,-100,77,-188
18.296,17.83,1.08,-1.72,2.63,-14.29,8.16,0.43,1.24,1.35,0.28,345.00,1058.00,85.00,270.00,785.00,1973.00,361.00,618.00,,,,,,,,,,,,0,1,0,,-1512,15696,3488,-88,154,-147
18.358,17.89,1.20,0.09,3.47,-30.44,46.89,3.48,-1.90,4.38,-2.58,319.00,963.00,14.00,181.00,880.00,1902.00,399.00,592.00,,,,,,,,,,,,0,1,0,,-1440,15612,3360,-47,187,-139
18.399,17.94,1.20,3.61,-1.62,19.96,-12.45,1.18,0.23,-0.46,2.05,394.00,960.00,139.00,121.00,818.00,1968.00,339.00,633.00,,,,,,,,,,,,0,1,0,,-1420,15640,3384,-146,126,-113
18.462,18.00,1.12,0.32,1.84,-0.72,-0.49,-0.40,2.24,-0.67,2.96,347.00,997.00,106.00,199.00,755.00,1985.00,324.00,623.00,,,,,,,,,,,,0,1,0,,-1536,15592,3528,-189,118,-164
18.524,18.05,1.19,-2.64,6.53,inf,inf,2.37,-0.11,4.17,-0.41,284.00,988.00,0.00,208.00,815.00,1894.00,356.00,563.00,,,,,,,,,,,,0,1,0,,-1408,15588,3532,-124,123,-160
18.585,18.11,1.24,4.23,-0.86,19.62,-2.13,2.19,-1.28,0.50,0.93,374.00,918.00,80.00,93.00,871.00,1968.00,354.00,628.00,,,,,,,,,,,,0,1,0,,-1516,15664,3528,-76,90,-151
18.668,18.16,1.13,0.91,0.55,7.93,-8.66,-0.89,2.35,-1.81,4.52,368.00,1008.00,141.00,176.00,757.00,2017.00,304.00,625.00,,,,,,,,,,,,0,1,0,,-1424,15560,3556,-75,70,-119
18.689,18.22,1.15,-2.07,4.84,-19.01,20.30,1.54,0.13,1.83,0.48,308.00,1011.00,48.00,235.00,817.00,1945.00,354.00,603.00,,,,,,,,,,,,0,1,0,,-1536,15536,3544,-139,99,-109
18.731,18.27,1.24,1.21,0.10,-3.11,13.83,3.03,-2.26,2.72,-1.08,375.00,1008.00,51.00,149.00,905.00,1955.00,379.00,607.00,,,,,,,,,,,,0,1,0,,-1388,15472,3612,-187,194,-98
18.792,18.33,1.18,2.57,-1.82,16.51,-15.11,-0.07,0.29,-2.80,2.84,406.00,1006.00,171.00,149.00,834.00,2064.00,339.00,680.00,,,,,,,,,,,,0,1,0,,-1492,15652,3588,-155,192,-25
18.834,18.39,1.12,-2.78,3.53,-20.09,16.85,0.01,1.66,1.55,1.27,335.00,1077.00,59.00,269.00,773.00,1983.00,341.00,597.00,,,,,,,,,,,,0,1,0,,-1380,15568,3464,-149,170,-98
18.895,18.44,1.21,-0.45,2.64,-17.61,26.74,2.82,-1.51,4.13,-2.59,337.00,1006.00,33.00,187.00,872.00,1932.00,401.00,598.00,,,,,,,,,,,,0,1,0,,-1344,15612,3440,-147,102,-100
18.956,18.50,1.17,2.94,-1.63,15.28,-4.61,0.55,0.41,1.00,0.97,399.00,986.00,99.00,118.00,819.00,2007.00,350.00,615.00,,,,,,,,,,,,0,1,0,,-1420,15656,3492,-106,19,-151
19.039,18.55,1.10,-0.87,1.66,-2.65,1.99,-0.25,1.63,-0.23,2.25,358.00,1050.00,96.00,201.00,778.00,2005.00,334.00,624.00,,,,,,,,,,,,0,1,0,,-1388,15620,3512,-90,44,-80
19.081,18.60,1.17,-1.92,4.91,inf,inf,2.44,-0.40,3.08,-0.35,306.00,1003.00,0.00,208.00,827.00,1904.00,362.00,587.00,,,,,,,,,,,,0,1,0,,-1436,15524,3560,-226,149,-174
19.142,18.66,1.23,3.36,-0.82,15.62,-3.17,2.39,-1.47,0.25,1.60,379.00,949.00,91.00,112.00,877.00,1963.00,343.00,623.00,,,,,,,,,,,,0,1,0,,-1496,15620,3600,-218,112,-169
19.183,18.71,1.15,1.69,0.34,6.61,-6.72,-0.38,1.53,0.25,2.14,367.00,983.00,130.00,176.00,784.00,2021.00,333.00,614.00,,,,,,,,,,,,0,1,0,,-1560,15572,3628,-73,23,-165
19.246,18.77,1.18,-0.83,3.72,-19.56,20.48,1.70,0.03,2.77,-0.40,320.00,992.00,48.00,239.00,819.00,1938.00,365.00,595.00,,,,,,,,,,,,0,1,0,,-1552,15600,3828,-52,129,-171
19.308,18.82,1.26,1.77,0.72,-6.02,10.04,2.94,-1.82,3.14,-2.12,359.00,970.00,66.00,185.00,885.00,1939.00,398.00,614.00,,,,,,,,,,,,0,1,0,,-1480,15592,3452,12,171,-155
19.39,18.88,1.18,3.60,-2.44,14.47,-12.85,-0.45,0.89,-1.77,2.66,412.00,982.00,157.00,152.00,813.00,2062.00,336.00,656.00,,,,,,,,,,,,0,1,0,,-1480,15532,3584,-101,111,-157
19.411,18.93,1.12,-1.51,1.82,-10.00,5.45,0.09,1.85,2.48,0.85,359.00,1072.00,91.00,245.00,764.00,1967.00,343.00,582.00,,,,,,,,,,,,0,1,0,,-1284,15644,3556,-159,53,-122
19.473,18.99,1.25,0.98,1.61,-22.20,35.77,3.65,-1.64,4.28,-2.50,347.00,977.00,22.00,176.00,865.00,1876.00,398.00,593.00,,,,,,,,,,,,0,1,0,,-1420,15604,3788,-124,83,-230
19.494,19.05,1.25,3.03,-0.41,19.58,-8.33,1.17,-0.57,0.62,0.99,373.00,951.00,112.00,110.00,854.00,2011.00,352.00,624.00,,,,,,,,,,,,0,1,0,,-1516,15576,3616,-17,92,-182
19.556,19.10,1.14,0.35,1.56,-1.50,1.99,-0.90,2.72,-0.97,3.52,352.00,1003.00,94.00,192.00,742.00,1998.00,316.00,621.00,,,,,,,,,,,,0,1,0,,-1412,15532,3564,20,60,-169
19.618,19.16,1.22,-1.61,4.27,inf,inf,2.81,-0.59,5.06,-1.32,315.00,1008.00,0.00,208.00,830.00,1886.00,368.00,557.00,,,,,,,,,,,,0,1,0,,-1536,15680,3588,-16,117,-129
19.679,19.21,1.31,3.02,-0.16,18.56,-2.89,2.97,-2.73,1.82,-0.23,368.00,945.00,85.00,99.00,929.00,1984.00,368.00,615.00,,,,,,,,,,,,0,1,0,,-1436,15624,3660,-96,180,-95
19.78,19.26,1.20,-0.19,0.97,4.37,-6.67,-0.83,1.99,-2.56,3.83,367.00,1041.00,135.00,192.00,771.00,2032.00,320.00,656.00,,,,,,,,,,,,0,1,0,,-1496,15592,3672,-82,164,-108
19.8,19.32,1.16,-1.62,3.08,-20.81,24.73,0.32,1.30,2.96,-0.31,336.00,1041.00,39.00,224.00,784.00,1978.00,362.00,589.00,,,,,,,,,,,,0,1,0,,-1376,15580,3508,-36,118,-133
19.862,19.37,1.24,0.08,0.83,-4.32,9.20,2.84,-2.34,1.29,-0.05,368.00,1034.00,67.00,177.00,912.00,1974.00,368.00,625.00,,,,,,,,,,,,0,1,0,,-1484,15628,3484,-17,74,-149
19.902,19.43,1.17,2.44,-2.79,18.91,-16.87,-0.25,0.39,-2.76,3.95,429.00,1038.00,180.00,142.00,832.00,2073.00,319.00,659.00,,,,,,,,,,,,0,1,0,,-1420,15480,3548,-50,66,-141
19.962,19.48,1.07,-2.65,2.10,-14.39,7.76,-0.86,2.47,0.54,0.76,361.00,1113.00,87.00,274.00,752.00,2009.00,357.00,630.00,,,,,,,,,,,,0,1,0,,-1448,15652,3444,-110,155,-192
20.003,19.54,1.17,-0.56,2.24,-24.64,34.23,3.18,-1.76,3.67,-1.54,345.00,1021.00,25.00,202.00,878.00,1917.00,382.00,592.00,,,,,,,,,,,,0,1,0,,-1492,15500,3516,-263,111,-151
20.044,19.59,1.18,2.05,0.07,23.26,-9.07,1.33,-0.01,-0.41,1.93,370.00,976.00,109.00,97.00,826.00,1968.00,341.00,634.00,,,,,,,,,,,,0,1,0,,-1432,15728,3648,-169,34,-174
20.147,19.65,1.11,0.90,1.01,0.21,-1.48,-0.22,2.08,-0.52,4.27,359.00,996.00,110.00,197.00,759.00,1979.00,301.00,598.00,,,,,,,,,,,,0,1,0,,-1476,15588,3744,-78,50,-153
20.167,19.70,1.17,-1.96,5.92,-37.58,50.66,2.33,0.27,5.12,-1.54,290.00,978.00,13.00,217.00,799.00,1878.00,372.00,559.00,,,,,,,,,,,,0,1,0,,-1492,15588,3664,-49,207,-151
20.208,19.76,1.22,3.54,-0.13,12.95,0.11,2.08,-0.94,1.87,-0.25,364.00,925.00,80.00,114.00,857.00,1959.00,368.00,614.00,,,,,,,,,,,,0,1,0,,-1548,15556,3416,-7,193,-141
20.271,19.82,1.13,1.54,-0.15,5.75,-8.70,-0.44,2.01,-1.03,3.42,378.00,1002.00,147.00,192.00,765.00,2000.00,318.00,624.00,,,,,,,,,,,,0,1,0,,-1400,15552,3496,-18,143,-155
20.333,19.87,1.14,-1.23,3.23,-15.04,13.65,1.25,0.59,2.17,0.11,331.00,1021.00,64.00,240.00,801.00,1943.00,359.00,601.00,,,,,,,,,,,,0,1,0,,-1440,15676,3516,-87,56,-144
20.395,19.92,1.26,1.09,0.85,-6.31,11.30,3.52,-2.06,3.24,-2.75,361.00,993.00,62.00,181.00,887.00,1907.00,411.00,622.00,,,,,,,,,,,,0,1,0,,-1500,15656,3712,-112,98,-174
20.436,19.98,1.20,3.05,-1.89,21.30,-13.81,-0.01,0.67,-1.16,0.98,404.00,989.00,146.00,119.00,816.00,2038.00,364.00,670.00,,,,,,,,,,,,0,1,0,,-1500,15628,3644,-98,82,-191
20.498,20.03,1.13,-1.37,2.24,-14.66,9.40,-0.06,2.05,2.27,0.33,350.00,1054.00,80.00,265.00,758.00,1968.00,354.00,595.00,,,,,,,,,,,,0,1,0,,-1592,15556,3608,-60,86,-103
20.56,20.09,1.22,-0.42,2.62,-27.60,39.35,2.84,-1.00,4.97,-2.83,337.00,1005.00,20.00,198.00,848.00,1904.00,400.00,582.00,,,,,,,,,,,,0,1,0,,-1376,15580,3568,-134,171,-119
20.622,20.14,1.22,1.48,0.31,17.61,-5.76,1.30,-0.08,0.09,1.07,369.00,992.00,101.00,111.00,830.00,1975.00,354.00,636.00,,,,,,,,,,,,0,1,0,,-1424,15612,3636,-141,170,-101
20.664,20.20,1.14,-0.21,0.93,-0.09,3.16,-0.36,2.32,-1.03,3.37,368.00,1043.00,86.00,176.00,751.00,1977.00,319.00,625.00,,,,,,,,,,,,0,1,0,,-1544,15636,3516,-87,89,-138
20.748,20.25,1.22,-2.53,4.35,-34.56,44.69,2.63,-0.69,3.73,-0.42,319.00,1043.00,17.00,226.00,837.00,1904.00,359.00,573.00,,,,,,,,,,,,0,1,0,,-1448,15628,3528,-72,60,-152
20.769,20.31,1.26,2.40,-0.44,14.32,-1.25,2.01,-1.21,0.61,0.18,378.00,976.00,84.00,112.00,871.00,1979.00,368.00,638.00,,,,,,,,,,,,0,1,0,,-1500,15576,3540,-49,95,-159
20.852,20.36,1.16,0.25,0.04,10.13,-7.18,-0.64,1.20,-1.71,2.86,383.00,1049.00,125.00,155.00,802.00,2060.00,332.00,651.00,,,,,,,,,,,,0,1,0,,-1472,15544,3636,-22,90,-159
20.873,20.42,1.15,-2.24,2.59,-11.35,8.52,0.99,0.45,3.01,-0.63,349.00,1081.00,79.00,238.00,811.00,1971.00,368.00,593.00,,,,,,,,,,,,0,1,0,,-1392,15632,3416,-81,187,-167
20.935,20.48,1.28,0.94,0.54,-5.25,10.36,3.60,-2.74,2.30,-1.84,368.00,1007.00,64.00,178.00,919.00,1936.00,398.00,630.00,,,,,,,,,,,,0,1,0,,-1420,15624,3516,-235,100,-186
20.997,20.53,1.22,4.29,-3.50,17.83,-15.01,0.12,0.63,-0.92,1.41,431.00,983.00,166.00,141.00,816.00,2030.00,354.00,656.00,,,,,,,,,,,,0,1,0,,-1476,15576,3568,-182,33,-199
21.058,20.58,1.15,-0.96,1.90,-9.78,5.58,-0.12,2.32,0.56,1.93,354.00,1047.00,90.00,242.00,748.00,1959.00,335.00,610.00,,,,,,,,,,,,0,1,0,,-1448,15688,3752,-33,51,-149
21.119,20.64,1.28,0.10,2.84,-21.98,31.25,3.68,-1.63,3.65,-0.95,330.00,979.00,28.00,197.00,864.00,1873.00,370.00,583.00,,,,,,,,,,,,0,1,0,,-1476,15540,3556,-50,142,-144
21.16,20.69,1.31,3.83,-0.88,23.03,-9.49,1.99,-0.87,-1.15,2.73,377.00,933.00,112.00,99.00,855.00,1962.00,331.00,639.00,,,,,,,,,,,,0,1,0,,-1456,15584,3376,-26,211,-138
21.242,20.75,1.25,-0.36,2.49,1.18,-0.77,0.11,2.14,-0.01,3.14,339.00,1006.00,104.00,186.00,752.00,1950.00,317.00,604.00,,,,,,,,,,,,0,1,0,,-1348,15628,3476,-158,119,-158
21.262,20.80,1.34,-1.51,4.83,-41.77,55.16,2.92,-0.38,3.33,-0.02,305.00,989.00,11.00,227.00,819.00,1867.00,354.00,576.00,,,,,,,,,,,,0,1,0,,-1564,15620,3508,-157,12,-175
21.325,20.86,1.41,3.54,-0.08,13.93,-0.68,2.85,-1.33,1.20,-0.56,363.00,924.00,82.00,112.00,863.00,1920.00,379.00,636.00,,,,,,,,,,,,0,1,0,,-1560,15616,3740,-92,80,-198
21.388,20.91,1.32,2.57,-0.70,7.80,-7.40,-0.42,1.97,0.46,1.53,382.00,976.00,132.00,171.00,766.00,2000.00,343.00,619.00,,,,,,,,,,,,0,1,0,,-1496,15528,3608,-32,109,-169
21.449,20.97,1.33,-0.33,2.37,-21.53,20.39,1.49,0.26,2.48,0.21,341.00,1008.00,50.00,259.00,812.00,1942.00,355.00,592.00,,,,,,,,,,,,0,1,0,,-1472,15624,3624,-68,105,-145
21.511,21.02,1.44,1.91,0.02,-14.49,22.14,3.60,-2.33,3.19,-2.91,372.00,983.00,40.00,187.00,899.00,1915.00,415.00,626.00,,,,,,,,,,,,0,1,0,,-1452,15572,3728,-117,151,-80
21.571,21.08,1.38,3.55,-2.11,17.30,-15.27,0.19,0.60,-2.19,2.10,405.00,975.00,170.00,145.00,816.00,2026.00,349.00,677.00,,,,,,,,,,,,0,1,0,,-1480,15652,3476,-160,197,-124
21.611,21.14,1.29,-1.89,2.31,-16.18,12.64,-0.45,2.65,1.66,0.49,352.00,1074.00,69.00,258.00,739.00,1967.00,355.00,607.00,,,,,,,,,,,,0,1,0,,-1392,15612,3544,-116,102,-116
21.652,21.19,1.38,-0.33,2.27,-20.56,44.94,3.17,-1.09,3.83,-2.21,343.00,1011.00,13.00,129.00,847.00,1884.00,395.00,599.00,,,,,,,,,,,,0,1,0,,-1468,15660,3592,-53,40,-152
21.693,21.25,1.38,2.82,-0.88,21.03,-6.54,1.34,-0.30,0.75,0.38,384.00,971.00,99.00,99.00,839.00,1983.00,363.00,631.00,,,,,,,,,,,,0,1,0,,-1400,15492,3640,-81,84,-136
21.755,21.30,1.25,-0.18,0.92,2.08,-3.09,-1.25,3.14,-0.67,2.90,368.00,1042.00,116.00,191.00,730.00,2003.00,325.00,624.00,,,,,,,,,,,,0,1,0,,-1492,15636,3536,-32,105,-172
21.816,21.35,1.32,-3.71,5.63,inf,inf,2.67,-0.87,3.30,0.09,304.00,1056.00,0.00,240.00,845.00,1911.00,352.00,575.00,,,,,,,,,,,,0,1,0,,-1436,15588,3500,-65,215,-135
21.877,21.41,1.36,3.85,-1.22,10.47,0.05,2.07,-0.80,0.76,0.79,384.00,941.00,84.00,126.00,851.00,1953.00,355.00,624.00,,,,,,,,,,,,0,1,0,,-1412,15480,3540,-186,143,-184
21.981,21.46,1.29,1.92,-0.52,8.45,-9.23,-0.04,1.42,-0.04,1.91,383.00,997.00,144.00,175.00,784.00,2000.00,339.00,625.00,,,,,,,,,,,,0,1,0,,-1528,15680,3580,-172,51,-174
22.002,21.52,1.30,-0.74,3.06,-12.48,8.21,1.46,0.47,1.32,0.50,331.00,1006.00,82.00,251.00,803.00,1933.00,357.00,615.00,,,,,,,,,,,,0,1,0,,-1476,15636,3648,-34,79,-173
22.022,21.57,1.42,1.99,0.24,-8.48,17.95,3.72,-2.29,7.05,-6.27,367.00,974.00,45.00,165.00,895.00,1904.00,464.00,588.00,,,,,,,,,,,,0,1,0,,-1512,15604,3768,-17,160,-130
22.084,21.63,1.38,4.09,-2.51,26.32,-18.95,0.68,0.48,-1.08,2.15,410.00,965.00,176.00,112.00,814.00,1993.00,341.00,647.00,,,,,,,,,,,,0,1,0,,-1396,15640,3464,47,211,-152
22.146,21.68,1.33,-0.97,2.16,-16.60,12.25,0.46,1.90,0.74,2.09,349.00,1040.00,71.00,265.00,757.00,1936.00,331.00,603.00,,,,,,,,,,,,0,1,0,,-1404,15616,3464,-108,178,-150
22.187,21.74,1.41,0.55,1.86,-19.14,27.83,2.83,-0.28,4.80,-2.26,345.00,987.00,32.00,193.00,816.00,1869.00,389.00,577.00,,,,,,,,,,,,0,1,0,,-1384,15604,3340,-150,75,-152
22.248,21.80,1.46,3.25,-0.73,16.28,-1.01,2.34,-0.87,0.04,1.67,378.00,951.00,80.00,103.00,850.00,1936.00,343.00,627.00,,,,,,,,,,,,0,1,0,,-1484,15668,3632,-151,71,-201
22.351,21.85,1.36,-0.06,2.02,1.92,-0.84,-0.52,2.97,-1.34,3.70,346.00,1007.00,103.00,181.00,727.00,1955.00,315.00,627.00,,,,,,,,,,,,0,1,0,,-1524,15488,3812,-105,101,-159
22.371,21.91,1.44,-2.39,6.51,-32.93,44.15,3.09,-0.35,3.83,-0.75,283.00,979.00,17.00,215.00,815.00,1853.00,365.00,576.00,,,,,,,,,,,,0,1,0,,-1572,15656,3628,-50,105,-154
22.413,21.96,1.52,3.48,-0.36,11.14,1.19,3.00,-1.67,1.12,-0.05,369.00,933.00,78.00,119.00,877.00,1927.00,369.00,629.00,,,,,,,,,,,,0,1,0,,-1492,15564,3504,-95,130,-93
22.475,22.01,1.45,1.36,-0.48,12.93,-8.56,0.06,1.46,-1.04,3.03,386.00,1018.00,128.00,144.00,781.00,1990.00,325.00,631.00,,,,,,,,,,,,0,1,0,,-1456,15488,3648,-134,214,-135
22.539,22.07,1.49,-0.99,2.12,-10.71,6.95,2.26,-0.81,2.81,-0.71,350.00,1042.00,85.00,242.00,848.00,1938.00,371.00,599.00,,,,,,,,,,,,0,1,0,,-1472,15584,3488,-155,139,-113
22.58,22.12,1.60,1.77,0.21,-6.40,13.54,3.77,-2.65,4.45,-3.38,369.00,983.00,55.00,171.00,912.00,1919.00,416.00,603.00,,,,,,,,,,,,0,1,0,,-1472,15632,3528,-70,127,-133
22.701,22.18,1.54,3.79,-3.29,20.27,-13.20,0.31,0.32,-2.36,2.97,430.00,997.00,144.00,122.00,827.00,2032.00,334.00,666.00,,,,,,,,,,,,0,1,0,,-1380,15584,3476,-80,147,-138
22.722,22.23,1.48,-2.61,3.31,-11.70,6.02,0.35,1.15,0.69,2.16,338.00,1076.00,91.00,258.00,790.00,1984.00,330.00,603.00,,,,,,,,,,,,0,1,0,,-1480,15560,3600,-88,70,-158
22.743,22.29,1.54,-0.74,2.95,-18.88,30.88,2.79,-0.94,2.83,-0.62,333.00,1009.00,27.00,176.00,846.00,1905.00,369.00,597.00,,,,,,,,,,,,0,1,0,,-1464,15592,3492,-55,128,-78
22.805,22.34,1.53,1.56,-0.40,16.41,-4.99,1.35,-0.54,0.95,0.62,383.00,1008.00,99.00,114.00,850.00,1995.00,357.00,622.00,,,,,,,,,,,,0,1,0,,-1464,15644,3564,-178,160,-249
22.867,22.40,1.41,-0.05,1.75,2.21,-0.02,-0.89,3.28,0.65,3.03,351.00,1014.00,98.00,175.00,720.00,1968.00,315.00,590.00,,,,,,,,,,,,0,1,0,,-1500,15508,3580,-279,82,-141
22.908,22.45,1.50,-2.27,6.21,-31.37,43.62,3.22,-0.91,4.61,-1.91,287.00,982.00,17.00,205.00,838.00,1871.00,383.00,576.00,,,,,,,,,,,,0,1,0,,-1452,15628,3596,-135,57,-137
22.97,22.51,1.56,3.53,-0.43,13.74,-0.38,2.54,-1.35,3.16,-1.42,370.00,933.00,81.00,112.00,869.00,1945.00,383.00,602.00,,,,,,,,,,,,0,1,0,,-1488,15632,3672,-52,51,-151
23.012,22.57,1.48,2.19,-0.66,8.08,-6.93,-0.01,1.34,-1.86,3.65,384.00,990.00,128.00,167.00,787.00,2002.00,319.00,641.00,,,,,,,,,,,,0,1,0,,-1436,15724,3664,47,170,-105
23.073,22.62,1.46,-0.97,2.16,-18.79,15.50,1.15,0.95,0.85,1.56,349.00,1040.00,62.00,265.00,787.00,1932.00,340.00,609.00,,,,,,,,,,,,0,1,0,,-1484,15640,3392,-25,152,-135
23.134,22.67,1.58,0.71,1.18,-2.72,9.22,3.88,-2.43,3.93,-3.16,357.00,999.00,65.00,166.00,899.00,1899.00,415.00,612.00,,,,,,,,,,,,0,1,0,,-1420,15536,3344,-89,89,-62
23.197,22.73,1.53,4.53,-3.24,28.59,-19.18,0.53,0.15,-1.92,2.76,423.00,967.00,171.00,103.00,831.00,2023.00,335.00,658.00,,,,,,,,,,,,0,1,0,,-1464,15620,3548,-197,99,-193
23.238,22.78,1.48,-0.90,1.98,-10.13,7.20,0.53,1.75,1.55,1.22,352.00,1042.00,83.00,235.00,762.00,1938.00,342.00,598.00,,,,,,,,,,,,0,1,0,,-1468,15672,3512,-138,6,-200
23.299,22.84,1.57,-0.50,3.38,-17.91,29.88,3.40,-1.19,3.12,-0.67,324.00,988.00,28.00,174.00,848.00,1872.00,368.00,591.00,,,,,,,,,,,,0,1,0,,-1552,15512,3648,-114,-10,-146
23.362,22.89,1.61,2.81,-0.09,18.09,-2.95,2.36,-0.95,1.10,1.31,368.00,951.00,86.00,101.00,853.00,1938.00,343.00,607.00,,,,,,,,,,,,0,1,0,,-1516,15548,3832,-106,97,-112
23.445,22.95,1.51,0.77,0.50,4.90,-5.86,-0.49,2.76,-1.13,3.34,370.00,1015.00,128.00,184.00,735.00,1964.00,320.00,628.00,,,,,,,,,,,,0,1,0,,-1412,15492,3572,-133,200,-83
23.466,23.00,1.57,-2.51,5.60,inf,inf,2.74,-0.28,3.43,-0.62,298.00,1008.00,0.00,214.00,817.00,1875.00,365.00,583.00,,,,,,,,,,,,0,1,0,,-1416,15628,3668,-154,159,-108
23.506,23.06,1.59,2.51,0.01,12.62,0.93,2.05,-0.95,0.89,0.59,368.00,960.00,77.00,113.00,858.00,1962.00,358.00,624.00,,,,,,,,,,,,0,1,0,,-1332,15644,3700,-109,68,-133
23.567,23.11,1.51,1.44,-0.41,8.50,-10.96,-0.13,1.05,-1.92,2.87,384.00,1013.00,158.00,183.00,801.00,2027.00,333.00,656.00,,,,,,,,,,,,0,1,0,,-1396,15608,3604,-58,47,-181
23.671,23.17,1.49,-1.72,2.31,-15.47,11.87,1.14,0.72,1.79,0.24,351.00,1067.00,71.00,256.00,797.00,1945.00,359.00,608.00,,,,,,,,,,,,0,1,0,,-1480,15480,3580,-70,67,-195
23.692,23.23,1.58,0.81,0.58,-0.68,8.53,3.34,-1.92,4.10,-1.93,368.00,1011.00,65.00,156.00,883.00,1913.00,387.00,588.00,,,,,,,,,,,,0,1,0,,-1456,15680,3532,-10,99,-219
23.773,23.28,1.53,3.20,-3.05,16.87,-13.06,0.61,-0.01,-0.07,1.07,429.00,1014.00,152.00,139.00,837.00,2025.00,355.00,640.00,,,,,,,,,,,,0,1,0,,-1548,15448,3460,-148,102,-218
23.814,23.33,1.51,-1.24,2.10,-10.87,8.12,1.15,1.18,-0.13,2.11,352.00,1053.00,80.00,236.00,777.00,1920.00,336.00,624.00,,,,,,,,,,,,0,1,0,,-1456,15660,3748,-116,43,-214
23.855,23.39,1.60,-0.12,3.31,inf,inf,3.26,-0.57,3.46,-0.53,323.00,975.00,0.00,197.00,822.00,1851.00,363.00,581.00,,,,,,,,,,,,0,1,0,,-1448,15532,3676,-81,31,-231
23.937,23.44,1.61,4.15,-0.79,18.55,-7.48,1.77,-0.40,-0.05,2.58,373.00,919.00,109.00,112.00,837.00,1955.00,327.00,614.00,,,,,,,,,,,,0,1,0,,-1412,15556,3720,-56,100,-156
23.958,23.50,1.52,-0.01,2.54,4.66,-4.89,-0.19,2.66,-0.31,3.95,336.00,991.00,122.00,181.00,735.00,1946.00,305.00,598.00,,,,,,,,,,,,0,1,0,,-1392,15684,3532,-90,213,-133
24.019,23.55,1.64,-2.01,5.87,inf,inf,3.96,-1.38,4.30,-0.40,291.00,981.00,0.00,227.00,848.00,1840.00,355.00,560.00,,,,,,,,,,,,0,1,0,,-1532,15572,3352,-112,129,-187
24.06,23.61,1.71,3.98,-0.53,14.70,2.80,2.94,-1.14,1.08,0.02,369.00,919.00,67.00,99.00,853.00,1904.00,368.00,629.00,,,,,,,,,,,,0,1,0,,-1552,15576,3396,-123,31,-156
24.121,23.66,1.64,2.07,-0.33,13.50,-10.93,0.27,1.43,0.59,1.70,378.00,986.00,144.00,150.00,779.00,1975.00,339.00,613.00,,,,,,,,,,,,0,1,0,,-1572,15572,3668,-135,40,-164
24.183,23.72,1.63,-0.56,1.66,-14.30,13.98,1.57,0.62,3.46,-1.23,356.00,1037.00,62.00,231.00,795.00,1917.00,377.00,592.00,,,,,,,,,,,,0,1,0,,-1580,15644,3656,-86,94,-130
24.245,23.77,1.78,1.37,1.11,-4.07,10.54,4.52,-2.89,5.96,-4.28,354.00,975.00,62.00,169.00,911.00,1874.00,425.00,582.00,,,,,,,,,,,,0,1,0,,-1532,15500,3604,-114,122,-54
24.326,23.83,1.71,4.20,-2.91,20.13,-16.22,0.53,0.79,-0.22,1.12,418.00,971.00,170.00,133.00,803.00,1989.00,355.00,643.00,,,,,,,,,,,,0,1,0,,-1464,15580,3612,-141,148,-69
24.347,23.89,1.67,-1.64,2.55,-10.33,7.49,0.73,1.78,2.07,0.19,346.00,1057.00,82.00,235.00,758.00,1921.00,358.00,602.00,,,,,,,,,,,,0,1,0,,-1444,15460,3672,-185,167,-86
24.408,23.94,1.75,-0.27,2.63,-27.96,41.42,3.40,-1.19,2.72,0.23,336.00,999.00,18.00,190.00,848.00,1872.00,353.00,586.00,,,,,,,,,,,,0,1,0,,-1352,15640,3596,-131,74,-109
24.449,24.00,1.75,2.30,-0.07,24.61,-10.67,1.68,-0.35,-0.44,1.67,371.00,970.00,116.00,96.00,836.00,1959.00,346.00,639.00,,,,,,,,,,,,0,1,0,,-1432,15548,3640,-120,4,-160
24.552,24.05,1.63,-0.00,1.78,4.52,-3.43,-0.71,2.91,0.57,1.98,350.00,1011.00,113.00,175.00,732.00,1973.00,334.00,609.00,,,,,,,,,,,,0,1,0,,-1524,15572,3528,-51,111,-180
24.595,24.10,1.69,-1.96,5.05,inf,inf,2.98,-0.67,4.84,-1.59,304.00,1001.00,0.00,221.00,831.00,1877.00,375.00,566.00,,,,,,,,,,,,0,1,0,,-1376,15588,3664,-45,143,-183
24.616,24.16,1.74,2.49,-0.23,14.42,-0.38,2.62,-1.29,1.82,-0.77,373.00,967.00,80.00,109.00,865.00,1936.00,379.00,624.00,,,,,,,,,,,,0,1,0,,-1508,15628,3404,-60,137,-192
24.678,24.21,1.67,1.57,-0.45,12.75,-10.80,0.38,1.16,-1.39,3.84,384.00,1009.00,145.00,154.00,789.00,1981.00,313.00,626.00,,,,,,,,,,,,0,1,0,,-1472,15544,3648,-165,129,-205
24.72,24.27,1.69,-0.94,2.80,-7.79,1.89,2.01,0.13,3.57,-0.82,337.00,1021.00,106.00,247.00,810.00,1909.00,368.00,583.00,,,,,,,,,,,,0,1,0,,-1448,15532,3764,-154,64,-226
24.781,24.32,1.81,2.31,0.54,-4.92,13.38,4.20,-2.52,3.88,-1.85,359.00,954.00,54.00,162.00,898.00,1879.00,387.00,592.00,,,,,,,,,,,,0,1,0,,-1656,15528,3760,-7,65,-187
24.843,24.38,1.79,5.78,-3.83,21.51,-12.84,1.29,0.19,0.19,0.62,427.00,935.00,138.00,115.00,818.00,1961.00,362.00,641.00,,,,,,,,,,,,0,1,0,,-1520,15484,3676,7,143,-173
24.904,24.43,1.74,-1.01,2.17,-11.28,8.26,0.77,1.91,1.06,2.43,349.00,1041.00,80.00,239.00,752.00,1911.00,323.00,590.00,,,,,,,,,,,,0,1,0,,-1568,15612,3572,5,205,-179
24.966,24.49,1.83,0.04,3.78,-28.28,43.70,3.67,-0.95,5.30,-1.95,314.00,957.00,16.00,181.00,833.00,1840.00,379.00,561.00,,,,,,,,,,,,0,1,0,,-1528,15444,3468,-126,156,-159
25.028,24.55,1.87,2.60,0.54,10.27,-0.54,2.64,-0.82,0.32,1.74,357.00,943.00,87.00,129.00,843.00,1910.00,340.00,619.00,,,,,,,,,,,,0,1,0,,-1548,15588,3568,-188,91,-129
25.069,24.60,1.80,1.18,1.28,-3.61,2.12,0.35,2.06,0.44,3.22,352.00,978.00,97.00,208.00,752.00,1936.00,313.00,592.00,,,,,,,,,,,,0,1,0,,-1548,15528,3604,-91,181,-155
25.132,24.66,1.89,-1.39,5.72,inf,inf,3.63,-1.11,5.80,-1.67,290.00,961.00,0.00,198.00,841.00,1851.00,370.00,546.00,,,,,,,,,,,,0,1,0,,-1412,15588,3540,-61,119,-123
25.172,24.71,1.95,4.31,-1.13,19.27,-2.01,3.10,-1.50,2.08,-0.86,379.00,922.00,80.00,94.00,867.00,1910.00,379.00,619.00,,,,,,,,,,,,0,1,0,,-1612,15616,3700,-23,134,-93
25.233,24.76,1.86,2.09,-0.63,8.87,-7.19,0.16,1.90,1.39,0.95,384.00,993.00,128.00,163.00,761.00,1959.00,348.00,606.00,,,,,,,,,,,,0,1,0,,-1472,15548,3688,-61,182,-72
25.276,24.82,1.85,0.12,1.64,-13.17,11.36,1.65,0.80,2.07,1.20,352.00,1010.00,70.00,237.00,786.00,1902.00,339.00,586.00,,,,,,,,,,,,0,1,0,,-1400,15660,3448,-120,198,-65
25.339,24.87,1.98,1.42,0.43,-9.18,21.30,4.40,-2.81,3.41,-2.02,367.00,991.00,38.00,155.00,909.00,1879.00,394.00,606.00,,,,,,,,,,,,0,1,0,,-1360,15576,3688,-97,193,-115
25.4,24.93,1.92,4.34,-3.35,24.89,-17.82,0.79,0.29,-1.02,2.24,427.00,977.00,170.00,115.00,821.00,1995.00,339.00,644.00,,,,,,,,,,,,0,1,0,,-1452,15612,3520,-88,106,-122
25.461,24.98,1.85,-2.09,2.65,-15.17,13.69,0.61,2.09,1.37,0.79,347.00,1073.00,64.00,241.00,747.00,1914.00,351.00,609.00,,,,,,,,,,,,0,1,0,,-1548,15756,3576,-61,107,-133
25.503,25.04,1.93,-0.85,3.55,-26.00,41.82,3.34,-1.06,3.93,-1.29,323.00,997.00,17.00,174.00,843.00,1870.00,375.00,582.00,,,,,,,,,,,,0,1,0,,-1356,15520,3508,-34,99,-154
25.564,25.09,1.92,2.30,0.08,12.27,1.78,1.81,-0.37,0.71,0.45,368.00,966.00,74.00,112.00,835.00,1950.00,362.00,631.00,,,,,,,,,,,,0,1,0,,-1404,15612,3504,-92,139,-181
25.668,25.15,1.83,0.11,0.82,-1.38,3.81,0.05,2.31,0.33,2.45,368.00,1033.00,85.00,182.00,746.00,1946.00,327.00,607.00,,,,,,,,,,,,0,1,0,,-1516,15588,3624,-265,136,-216
25.69,25.20,1.89,-1.00,4.72,inf,inf,2.99,-0.04,4.64,-0.57,304.00,972.00,0.00,208.00,803.00,1845.00,356.00,555.00,,,,,,,,,,,,0,1,0,,-1512,15564,3472,-212,54,-168
25.729,25.26,1.95,4.09,-0.16,21.69,-4.38,3.20,-1.53,1.85,0.27,361.00,906.00,87.00,91.00,867.00,1904.00,358.00,606.00,,,,,,,,,,,,0,1,0,,-1528,15392,3760,-127,14,-163
25.792,25.32,1.85,1.93,0.21,10.44,-9.51,-0.05,2.07,-0.03,2.86,368.00,977.00,141.00,163.00,757.00,1966.00,322.00,609.00,,,,,,,,,,,,0,1,0,,-1472,15520,3784,-114,90,-115
25.874,25.37,1.86,0.09,2.13,-11.94,11.49,2.11,0.58,3.56,-0.36,343.00,998.00,68.00,225.00,789.00,1879.00,359.00,576.00,,,,,,,,,,,,0,1,0,,-1500,15652,3472,-58,181,-173
25.894,25.42,1.98,2.76,-0.17,-0.38,9.30,4.12,-2.44,4.13,-2.03,370.00,955.00,62.00,151.00,896.00,1882.00,389.00,589.00,,,,,,,,,,,,0,1,0,,-1544,15572,3556,-88,97,-108
25.934,25.48,1.91,3.79,-2.23,14.50,-11.13,0.61,0.76,0.20,1.61,406.00,969.00,143.00,145.00,803.00,1984.00,343.00,624.00,,,,,,,,,,,,0,1,0,,-1560,15640,3576,-132,73,-146
26.017,25.53,1.86,-0.25,2.08,-15.15,13.98,0.96,2.17,1.71,1.99,346.00,1013.00,63.00,239.00,739.00,1884.00,327.00,582.00,,,,,,,,,,,,0,1,0,,-1552,15532,3728,-117,128,-159
26.077,25.59,1.97,0.51,2.93,-30.91,48.42,4.02,-1.42,4.41,-1.55,326.00,961.00,13.00,177.00,849.00,1838.00,377.00,575.00,,,,,,,,,,,,0,1,0,,-1352,15560,3648,-107,145,-122
26.098,25.64,1.98,2.93,0.54,25.10,-5.52,2.11,-0.29,1.50,1.29,355.00,931.00,87.00,82.00,827.00,1923.00,341.00,598.00,,,,,,,,,,,,0,1,0,,-1468,15536,3752,-107,34,-156
26.16,25.70,1.87,0.82,1.88,1.58,-0.55,-0.09,2.73,0.28,3.40,343.00,976.00,102.00,182.00,731.00,1935.00,311.00,593.00,,,,,,,,,,,,0,1,0,,-1492,15524,3704,-103,63,-124
26.223,25.75,1.93,-1.56,4.79,inf,inf,3.11,-0.27,3.64,-0.02,306.00,992.00,0.00,192.00,811.00,1847.00,352.00,569.00,,,,,,,,,,,,0,1,0,,-1436,15576,3676,-116,172,-124
26.263,25.81,1.99,3.28,-0.49,24.74,-4.53,3.11,-1.46,1.92,-0.26,373.00,944.00,83.00,81.00,865.00,1907.00,368.00,613.00,,,,,,,,,,,,0,1,0,,-1512,15512,3676,-95,196,-143
26.387,25.86,1.89,1.97,-0.64,8.70,-6.25,0.00,1.71,-0.77,3.16,385.00,998.00,122.00,160.00,771.00,1981.00,321.00,622.00,,,,,,,,,,,,0,1,0,,-1472,15572,3628,-65,178,-177
26.407,25.92,1.86,-0.63,2.64,-17.40,17.93,1.30,0.92,3.79,-1.34,338.00,1013.00,53.00,235.00,786.00,1922.00,377.00,586.00,,,,,,,,,,,,0,1,0,,-1496,15564,3636,-46,160,-183
26.449,25.98,1.95,1.13,0.78,1.00,5.57,3.64,-2.18,3.33,-1.67,362.00,993.00,74.00,158.00,891.00,1904.00,387.00,602.00,,,,,,,,,,,,0,1,0,,-1544,15612,3620,-99,122,-130
26.511,26.03,1.89,2.57,-1.87,18.78,-16.41,0.63,0.41,-0.63,1.26,407.00,1007.00,176.00,141.00,818.00,2001.00,355.00,651.00,,,,,,,,,,,,0,1,0,,-1484,15616,3440,-241,57,-377
26.531,26.08,1.84,-1.41,2.85,-11.77,9.62,1.01,1.57,2.45,1.35,339.00,1039.00,75.00,235.00,763.00,1911.00,334.00,575.00,,,,,,,,,,,,0,1,0,,-1508,15568,3628,-253,-173,-294
26.593,26.14,1.96,0.64,2.88,-27.91,43.58,4.18,-1.60,3.87,-1.27,326.00,957.00,16.00,179.00,855.00,1835.00,375.00,583.00,,,,,,,,,,,,0,1,0,,-1548,15564,3924,-183,-152,-300
26.654,26.19,1.98,4.06,-0.80,26.93,-7.76,2.32,-0.23,0.28,1.91,374.00,923.00,95.00,81.00,821.00,1904.00,337.00,617.00,,,,,,,,,,,,0,1,0,,-1620,15556,3852,-80,172,-202
26.738,26.25,1.90,0.96,1.94,1.96,1.43,0.37,2.47,0.54,2.96,341.00,969.00,91.00,170.00,735.00,1913.00,317.00,594.00,,,,,,,,,,,,0,1,0,,-1544,15580,3676,24,339,-122
26.758,26.30,2.01,-0.84,4.91,inf,inf,4.09,-0.93,5.02,-1.25,300.00,961.00,0.00,189.00,826.00,1809.00,367.00,557.00,,,,,,,,,,,,0,1,0,,-1636,15432,3428,-8,221,-167
26.819,26.36,2.08,5.66,-1.39,17.45,-2.74,3.37,-1.50,2.25,-0.37,375.00,880.00,86.00,103.00,863.00,1890.00,368.00,607.00,,,,,,,,,,,,0,1,0,,-1588,15600,3452,-109,107,-57
26.861,26.41,1.99,1.65,0.81,8.15,-6.81,0.38,2.00,-0.50,3.30,358.00,972.00,127.00,166.00,754.00,1937.00,317.00,613.00,,,,,,,,,,,,0,1,0,,-1632,15560,3716,-141,77,-96
26.943,26.47,2.01,0.80,2.49,-24.87,31.57,2.39,0.49,1.69,1.44,332.00,961.00,29.00,219.00,789.00,1863.00,337.00,591.00,,,,,,,,,,,,0,1,0,,-1520,15464,3648,-65,114,-159
26.984,26.52,2.09,2.70,0.88,-8.08,17.81,3.68,-1.63,3.41,-2.02,350.00,931.00,45.00,163.00,864.00,1873.00,394.00,606.00,,,,,,,,,,,,0,1,0,,-1668,15648,3700,-74,96,-144
27.046,26.58,2.02,4.39,-2.25,21.74,-14.45,0.66,0.74,-1.16,2.56,402.00,947.00,150.00,119.00,803.00,1981.00,334.00,642.00,,,,,,,,,,,,0,1,0,,-1592,15568,3712,-114,103,-140
27.151,26.64,1.97,-0.73,2.56,-11.22,8.01,1.06,1.65,1.96,0.91,340.00,1019.00,81.00,240.00,759.00,1903.00,345.00,593.00,,,,,,,,,,,,0,1,0,,-1600,15612,3716,-235,124,-80
27.173,26.69,2.09,0.30,2.77,-26.99,43.27,4.32,-1.86,4.66,-2.12,330.00,973.00,16.00,174.00,865.00,1838.00,387.00,578.00,,,,,,,,,,,,0,1,0,,-1588,15476,3544,-178,169,-46
27.212,26.75,2.11,4.33,-2.32,20.91,-9.27,2.41,-0.64,1.74,0.30,404.00,951.00,115.00,107.00,838.00,1918.00,358.00,608.00,,,,,,,,,,,,0,1,0,,-1512,15556,3868,-90,165,-75
27.253,26.80,2.02,0.20,1.56,-1.50,1.80,0.26,2.19,2.14,0.27,353.00,1009.00,95.00,193.00,748.00,1936.00,356.00,599.00,,,,,,,,,,,,0,1,0,,-1512,15552,3684,-110,170,-82
27.316,26.85,2.10,-1.79,5.17,-57.52,104.73,3.78,-0.96,3.71,-0.51,301.00,991.00,1.00,112.00,832.00,1833.00,361.00,575.00,,,,,,,,,,,,0,1,0,,-1476,15596,3820,-60,186,-162
27.378,26.91,2.12,4.17,-0.64,26.47,-7.99,2.49,-0.95,1.39,-0.43,370.00,915.00,97.00,83.00,851.00,1928.00,375.00,629.00,,,,,,,,,,,,0,1,0,,-1512,15436,3620,-40,212,-109
27.42,26.96,2.01,1.50,-0.43,5.04,-4.40,-0.07,1.86,-1.70,4.48,384.00,1011.00,118.00,176.00,766.00,1979.00,304.00,623.00,,,,,,,,,,,,0,1,0,,-1464,15672,3496,-84,143,-282
27.48,27.02,2.00,-1.52,4.24,-18.57,22.61,1.71,0.81,3.92,0.10,315.00,1005.00,42.00,217.00,785.00,1897.00,348.00,561.00,,,,,,,,,,,,0,1,0,,-1584,15412,3620,-213,-53,-238
27.542,27.07,2.09,3.22,0.18,4.21,3.29,3.82,-2.04,3.28,-1.22,360.00,929.00,79.00,148.00,881.00,1883.00,378.00,596.00,,,,,,,,,,,,0,1,0,,-1628,15552,3804,-156,-35,-220
27.603,27.13,2.04,3.98,-2.16,26.86,-19.75,1.10,0.43,-0.13,2.11,403.00,960.00,182.00,112.00,810.00,1963.00,336.00,624.00,,,,,,,,,,,,0,1,0,,-1736,15404,3848,-167,219,-108
27.664,27.18,2.00,-0.00,2.27,-9.28,6.91,1.27,1.67,0.96,2.02,341.00,998.00,83.00,229.00,755.00,1886.00,331.00,599.00,,,,,,,,,,,,0,1,0,,-1492,15612,3700,-208,180,-190
27.727,27.24,2.12,1.38,2.75,-50.77,82.18,4.34,-1.91,5.61,-3.90,324.00,933.00,3.00,157.00,867.00,1839.00,419.00,584.00,,,,,,,,,,,,0,1,0,,-1616,15484,3628,-26,-40,-322
27.748,27.30,2.13,5.93,-2.68,19.99,-9.28,2.32,-0.11,1.77,0.45,400.00,901.00,117.00,111.00,816.00,1898.00,355.00,605.00,,,,,,,,,,,,0,1,0,,-1620,15476,3800,10,-119,-179
27.852,27.35,2.07,2.22,1.30,4.27,0.05,0.98,1.92,0.86,3.62,345.00,938.00,94.00,161.00,749.00,1895.00,304.00,576.00,,,,,,,,,,,,0,1,0,,-1576,15524,3912,-42,69,-187
27.874,27.41,2.19,-0.04,4.28,-49.24,72.23,4.39,-0.81,6.96,-2.06,306.00,947.00,5.00,193.00,816.00,1782.00,370.00,527.00,,,,,,,,,,,,0,1,0,,-1760,15476,3752,-31,173,-256
27.916,27.46,2.22,5.29,-1.27,24.09,-5.81,2.83,-0.89,1.16,0.87,375.00,890.00,90.00,86.00,843.00,1899.00,351.00,613.00,,,,,,,,,,,,0,1,0,,-1764,15568,3748,23,154,-165
27.978,27.51,2.12,2.45,0.13,7.55,-5.25,0.29,2.10,-0.91,4.15,366.00,959.00,118.00,163.00,751.00,1938.00,305.00,609.00,,,,,,,,,,,,0,1,0,,-1684,15548,3692,100,148,-30
28.019,27.57,2.16,-1.59,5.29,-26.07,31.35,2.86,-0.30,3.92,-0.63,298.00,980.00,30.00,231.00,816.00,1867.00,362.00,572.00,,,,,,,,,,,,0,1,0,,-1692,15484,3680,90,326,133
28.079,27.62,2.24,2.32,0.95,0.54,8.70,3.72,-2.00,3.11,-1.16,351.00,943.00,63.00,148.00,881.00,1889.00,378.00,599.00,,,,,,,,,,,,0,1,0,,-1468,15352,3564,-208,555,242
28.142,27.68,2.18,3.33,-1.48,14.50,-10.87,1.11,0.00,0.02,0.94,393.00,967.00,141.00,144.00,829.00,1985.00,357.00,640.00,,,,,,,,,,,,0,1,0,,-1428,15808,3616,-375,529,-48
28.242,27.73,2.11,-0.08,1.50,-12.96,9.06,0.80,1.69,2.07,0.83,356.00,1022.00,79.00,250.00,761.00,1921.00,346.00,592.00,,,,,,,,,,,,0,1,0,,-1524,15712,3352,54,6,-213
28.263,27.79,2.19,0.73,2.51,-9.17,16.99,3.67,-1.41,4.66,-3.32,332.00,963.00,48.00,174.00,854.00,1863.00,413.00,597.00,,,,,,,,,,,,0,1,0,,-1544,15552,3432,312,-418,17
28.305,27.84,2.16,3.89,-1.94,19.34,-10.28,1.48,-0.19,0.48,1.15,399.00,958.00,125.00,117.00,832.00,1966.00,350.00,625.00,,,,,,,,,,,,0,1,0,,-1524,15560,3776,55,-46,-2
28.367,27.90,2.08,1.20,0.45,2.68,-0.92,0.65,1.52,0.17,3.43,368.00,999.00,102.00,176.00,770.00,1941.00,311.00,595.00,,,,,,,,,,,,0,1,0,,-1444,15440,3764,-402,676,-100
28.428,27.95,2.15,-0.40,3.69,-39.88,58.23,3.53,-0.86,4.04,0.32,318.00,976.00,9.00,194.00,831.00,1846.00,343.00,555.00,,,,,,,,,,,,0,1,0,,-1460,15644,3620,-585,777,-112
28.49,28.01,2.19,4.69,-0.72,23.54,-3.22,2.87,-0.94,2.69,-0.72,368.00,898.00,79.00,82.00,845.00,1899.00,372.00,602.00,,,,,,,,,,,,0,1,0,,-1400,15528,3600,-184,73,-251
28.573,28.07,2.10,3.48,-0.31,3.33,-1.67,0.50,1.84,-1.66,4.77,368.00,932.00,105.00,175.00,759.00,1936.00,299.00,617.00,,,,,,,,,,,,0,1,0,,-1456,15484,3784,136,-471,-193
28.593,28.12,2.12,-1.49,5.76,-20.62,27.75,2.39,0.32,4.13,-1.01,290.00,964.00,33.00,205.00,796.00,1871.00,368.00,573.00,,,,,,,,,,,,0,1,0,,-1484,15464,3924,19,-236,-237
28.634,28.17,2.20,2.78,1.11,3.97,3.13,3.71,-1.76,2.23,-0.47,345.00,922.00,80.00,150.00,870.00,1878.00,370.00,609.00,,,,,,,,,,,,0,1,0,,-1572,15580,3948,-27,196,-414
28.697,28.23,2.14,4.27,-1.89,19.72,-13.90,1.09,0.39,0.72,0.91,395.00,942.00,151.00,127.00,812.00,1966.00,353.00,623.00,,,,,,,,,,,,0,1,0,,-1632,15564,3636,36,238,-298
28.759,28.28,2.12,-0.52,2.88,-8.96,7.25,1.67,0.84,2.27,0.65,333.00,1002.00,81.00,224.00,784.00,1898.00,348.00,590.00,,,,,,,,,,,,0,1,0,,-1660,15520,3500,50,43,-319
28.799,28.34,2.22,1.39,2.68,-15.45,27.78,4.09,-1.83,4.41,-1.94,325.00,934.00,30.00,167.00,867.00,1853.00,385.00,581.00,,,,,,,,,,,,0,1,0,,-1612,15444,3468,47,-58,-238
28.861,28.39,2.19,5.25,-2.45,24.27,-12.80,1.65,0.04,1.78,-0.71,400.00,920.00,131.00,103.00,819.00,1941.00,378.00,624.00,,,,,,,,,,,,0,1,0,,-1700,15484,3668,38,-18,-158
28.966,28.45,2.11,1.77,0.72,-3.48,6.11,0.60,1.97,1.58,1.42,359.00,970.00,78.00,186.00,752.00,1921.00,338.00,594.00,,,,,,,,,,,,0,1,0,,-1728,15628,3508,30,118,-155
28.987,28.50,2.17,0.87,2.97,-71.38,109.40,3.41,-0.43,2.36,1.21,323.00,946.00,1.00,171.00,814.00,1834.00,337.00,579.00,,,,,,,,,,,,0,1,0,,-1560,15460,3580,-66,167,-119
29.008,28.56,2.18,3.49,-0.42,23.35,-4.72,2.27,-0.57,2.74,-1.23,370.00,934.00,86.00,86.00,837.00,1925.00,382.00,609.00,,,,,,,,,,,,0,1,0,,-1600,15580,3492,-235,99,-77
29.071,28.61,2.06,1.96,0.20,8.08,-4.63,-0.17,2.23,-0.02,2.97,368.00,976.00,113.00,157.00,752.00,1967.00,320.00,607.00,,,,,,,,,,,,0,1,0,,-1584,15512,3504,-309,71,-30
29.132,28.67,2.09,-0.86,4.14,-31.38,44.74,2.54,-0.12,4.94,-2.06,313.00,982.00,16.00,199.00,813.00,1882.00,384.00,571.00,,,,,,,,,,,,0,1,0,,-1552,15648,3868,-216,103,-60
29.173,28.73,2.13,2.48,0.48,1.86,12.15,3.05,-1.48,3.21,-1.24,359.00,949.00,51.00,128.00,867.00,1913.00,379.00,598.00,,,,,,,,,,,,0,1,0,,-1680,15424,3708,-47,68,-75
29.235,28.78,2.04,2.78,-1.01,14.50,-11.13,0.30,0.86,-0.45,2.21,387.00,976.00,143.00,145.00,803.00,2003.00,336.00,630.00,,,,,,,,,,,,0,1,0,,-1452,15692,3564,-81,117,-98
29.317,28.83,2.01,0.56,0.92,-11.28,8.26,1.43,0.57,1.88,1.10,363.00,1012.00,80.00,239.00,799.00,1930.00,342.00,592.00,,,,,,,,,,,,0,1,0,,-1580,15380,3684,-156,128,-198
29.338,28.89,2.12,2.80,0.84,-12.91,22.08,4.26,-2.03,5.09,-2.69,350.00,928.00,39.00,176.00,874.00,1851.00,396.00,577.00,,,,,,,,,,,,0,1,0,,-1632,15736,3800,-102,8,-222
29.398,28.94,2.11,5.54,-2.54,24.56,-14.65,1.88,-0.26,1.30,-0.00,400.00,912.00,144.00,107.00,829.00,1939.00,367.00,624.00,,,,,,,,,,,,0,1,0,,-1640,15380,3620,27,-50,-233
29.459,29.00,2.03,1.50,1.23,-0.69,0.03,0.54,1.97,1.48,1.56,351.00,967.00,103.00,196.00,753.00,1926.00,336.00,594.00,,,,,,,,,,,,0,1,0,,-1596,15580,3640,24,66,-214
29.54,29.05,2.09,0.54,4.14,-35.42,53.02,3.22,-0.46,3.56,-0.36,305.00,929.00,11.00,187.00,818.00,1849.00,359.00,576.00,,,,,,,,,,,,0,1,0,,-1664,15472,3472,-34,201,-123
29.561,29.11,2.12,4.45,-0.03,24.55,-3.79,2.58,-0.52,1.33,0.91,356.00,890.00,80.00,80.00,830.00,1899.00,349.00,608.00,,,,,,,,,,,,0,1,0,,-1616,15528,3416,-102,115,-215
29.623,29.16,2.02,2.47,0.69,10.06,-8.02,0.26,2.21,-0.48,3.65,355.00,944.00,131.00,159.00,747.00,1935.00,311.00,607.00,,,,,,,,,,,,0,1,0,,-1556,15572,3472,-190,-52,-204
29.707,29.22,2.05,-0.50,5.23,-28.73,38.83,2.61,0.15,4.09,-0.23,293.00,940.00,21.00,210.00,800.00,1863.00,353.00,562.00,,,,,,,,,,,,0,1,0,,-1636,15572,3792,-133,-106,-177
29.727,29.27,2.14,3.69,0.18,0.97,10.40,3.71,-1.74,7.62,-1.88,357.00,912.00,57.00,139.00,869.00,1877.00,362.00,511.00,,,,,,,,,,,,0,1,0,,-1636,15568,3740,-101,-52,-224
29.789,29.33,2.07,3.95,-1.21,11.16,-7.96,0.84,0.73,0.10,1.65,383.00,937.00,128.00,152.00,801.00,1968.00,343.00,626.00,,,,,,,,,,,,0,1,0,,-1668,15612,3648,107,24,-92
29.85,29.39,2.01,-0.25,2.29,-10.73,10.54,0.90,1.46,2.29,0.43,342.00,1007.00,70.00,220.00,769.00,1925.00,352.00,593.00,,,,,,,,,,,,0,1,0,,-1576,15456,3628,77,207,63
29.891,29.44,2.09,0.99,1.82,-11.81,24.24,3.57,-1.74,3.69,-2.45,343.00,971.00,34.00,159.00,871.00,1887.00,401.00,606.00,,,,,,,,,,,,0,1,0,,-1520,15520,3552,-170,146,-29
29.954,29.50,2.05,3.95,-2.74,16.91,-9.16,1.28,-0.05,0.59,-0.01,416.00,976.00,123.00,125.00,829.00,1975.00,372.00,642.00,,,,,,,,,,,,0,1,0,,-1408,15620,3732,25,-242,-296
30.055,29.55,1.97,-1.51,1.82,-8.13,7.91,0.45,1.63,1.59,1.15,359.00,1072.00,77.00,213.00,768.00,1950.00,343.00,598.00,,,,,,,,,,,,1,0,0,,-1580,15640,3700,342,-360,-195
30.076,29.60,2.00,0.16,1.63,-38.11,53.93,2.67,-0.52,2.71,0.45,352.00,1009.00,11.00,203.00,829.00,1893.00,349.00,583.00,,,,,,,,,,,,1,0,0,,-1520,15588,3672,388,-181,-184
30.139,29.66,2.02,2.23,-0.73,11.85,-1.69,2.27,-1.22,1.12,0.26,385.00,990.00,90.00,125.00,867.00,1959.00,363.00,624.00,,,,,,,,,,,,1,0,0,,-1520,15544,3508,362,212,-143
30.18,29.71,1.89,0.08,0.14,4.45,-5.99,-0.46,1.97,-1.49,3.99,382.00,1053.00,130.00,188.00,767.00,2004.00,311.00,626.00,,,,,,,,,,,,1,0,0,,-1500,15668,3252,238,453,-214
30.241,29.77,1.91,-2.44,4.43,-24.82,28.08,2.24,-0.11,4.15,-0.25,317.00,1037.00,35.00,240.00,817.00,1904.00,353.00,561.00,,,,,,,,,,,,1,0,0,,-1600,15688,3184,-7,337,-248
30.281,29.82,1.97,3.78,-1.86,9.50,-4.78,3.03,-1.89,3.21,-1.48,398.00,960.00,111.00,149.00,887.00,1936.00,384.00,602.00,,,,,,,,,,,,1,0,0,,-1692,15488,3324,80,-28,-237
30.343,29.88,1.87,2.11,-1.62,10.82,-11.85,0.10,0.05,-1.36,2.69,405.00,1019.00,159.00,171.00,842.00,2063.00,333.00,645.00,,,,,,,,,,,,1,0,0,,-1664,15724,3472,182,-105,-91
30.425,29.93,1.85,-0.83,1.14,-12.58,4.95,1.35,0.15,1.90,0.56,368.00,1063.00,98.00,275.00,819.00,1959.00,352.00,600.00,,,,,,,,,,,,1,0,0,,-1544,15772,3344,109,181,-109
30.446,29.99,1.93,1.90,-0.42,-12.78,12.89,3.46,-2.55,2.49,-1.76,381.00,995.00,64.00,224.00,912.00,1937.00,395.00,624.00,,,,,,,,,,,,1,0,0,,-1556,15724,2996,9,249,-261
30.508,30.05,1.88,3.54,-2.99,14.53,-16.00,1.04,-0.65,-0.51,0.40,425.00,999.00,186.00,165.00,860.00,2026.00,371.00,663.00,,,,,,,,,,,,1,0,0,,-1648,15476,3024,-235,90,-216
30.549,30.10,1.82,-0.84,0.84,-7.82,0.88,0.59,0.79,0.82,1.73,374.00,1072.00,112.00,254.00,802.00,1984.00,337.00,607.00,,,,,,,,,,,,1,0,0,,-1688,15588,3256,-159,-125,-271
30.611,30.16,1.87,-0.49,2.22,-10.63,11.60,2.89,-1.12,4.52,-1.78,345.00,1019.00,66.00,213.00,853.00,1907.00,381.00,576.00,,,,,,,,,,,,1,0,0,,-1744,15564,3524,-238,-181,-208
30.673,30.21,1.88,2.57,-0.89,9.53,-7.70,2.01,-1.04,0.19,0.62,386.00,981.00,130.00,161.00,863.00,1970.00,362.00,641.00,,,,,,,,,,,,1,0,0,,-1640,15544,3680,-261,36,-205
30.735,30.26,1.74,0.86,-0.36,2.75,-7.44,-0.84,2.43,-0.62,2.83,387.00,1035.00,145.00,209.00,753.00,2009.00,326.00,624.00,,,,,,,,,,,,1,0,0,,-1680,15476,3532,-117,160,-86
30.797,30.32,1.76,-1.75,2.64,-20.51,20.04,2.09,-0.24,4.18,-1.27,345.00,1059.00,50.00,251.00,825.00,1922.00,373.00,576.00,,,,,,,,,,,,1,0,0,,-1588,15684,3400,-64,186,-101
30.838,30.37,1.80,3.32,-1.85,5.66,0.39,2.62,-1.90,1.20,-0.81,401.00,977.00,90.00,151.00,894.00,1968.00,384.00,640.00,,,,,,,,,,,,1,0,0,,-1508,15656,3428,0,145,-121
30.9,30.43,1.70,0.96,-1.82,6.92,-11.00,-0.29,0.72,-0.12,1.14,418.00,1072.00,163.00,195.00,818.00,2058.00,354.00,640.00,,,,,,,,,,,,1,0,0,,-1596,15700,3176,55,99,-132
30.942,30.48,1.66,-1.16,0.18,-9.19,-3.42,0.87,0.01,1.08,0.02,390.00,1105.00,145.00,301.00,832.00,2003.00,368.00,629.00,,,,,,,,,,,,1,0,0,,-1612,15624,3424,85,44,-192
31.005,30.54,1.72,1.05,-0.90,-7.13,2.93,2.91,-2.47,2.73,-2.12,397.00,1042.00,99.00,234.00,917.00,1975.00,401.00,624.00,,,,,,,,,,,,1,0,0,,-1708,15612,3284,185,60,-114
31.046,30.59,1.66,2.82,-3.97,14.73,-17.41,0.56,-0.64,-1.94,2.02,454.00,1055.00,200.00,170.00,867.00,2064.00,349.00,672.00,,,,,,,,,,,,1,0,0,,-1616,15764,3248,-33,138,-140
31.108,30.65,1.57,-1.38,0.54,-9.27,-0.21,-0.09,1.51,1.71,-0.19,384.00,1104.00,122.00,277.00,781.00,1999.00,368.00,617.00,,,,,,,,,,,,1,0,0,,-1536,15688,3248,-163,149,-168
31.168,30.70,1.63,0.73,0.26,-12.62,8.71,2.78,-1.00,4.38,-2.21,375.00,1023.00,80.00,249.00,849.00,1909.00,391.00,586.00,,,,,,,,,,,,1,0,0,,-1652,15740,3516,-64,72,-171
31.21,30.76,1.64,2.07,-1.05,8.36,-5.05,1.65,-1.07,0.99,0.15,393.00,1005.00,115.00,157.00,870.00,2000.00,366.00,629.00,,,,,,,,,,,,1,0,0,,-1672,15660,3384,-45,56,-170
31.27,30.82,1.56,1.78,-1.28,-0.75,-5.35,0.04,1.23,-1.24,3.21,400.00,1023.00,138.00,227.00,791.00,2004.00,323.00,633.00,,,,,,,,,,,,1,0,0,,-1552,15856,3140,66,141,-158
31.331,30.87,1.61,-1.51,2.77,-24.48,23.33,2.64,-0.82,3.47,-0.94,341.00,1045.00,45.00,269.00,843.00,1910.00,371.00,587.00,,,,,,,,,,,,1,0,0,,-1580,15612,3200,89,115,-198
31.371,30.92,1.67,3.22,-1.76,7.23,-3.84,2.78,-2.14,1.46,-0.89,400.00,979.00,110.00,159.00,903.00,1968.00,384.00,635.00,,,,,,,,,,,,1,0,0,,-1580,15584,2980,-75,109,-101
31.454,30.98,1.60,1.38,-1.92,8.75,-12.93,0.24,0.36,-1.06,2.47,417.00,1057.00,175.00,191.00,826.00,2035.00,335.00,641.00,,,,,,,,,,,,1,0,0,,-1580,15748,3272,-305,198,-148
31.537,31.03,1.57,-0.98,0.94,-11.10,3.18,1.12,0.29,0.91,0.69,373.00,1075.00,105.00,272.00,816.00,1969.00,356.00,622.00,,,,,,,,,,,,1,0,0,,-1592,15792,3244,-110,213,-293
31.558,31.09,1.67,0.97,-1.24,-8.13,5.87,3.41,-3.07,4.00,-3.45,405.00,1055.00,86.00,225.00,939.00,1968.00,421.00,615.00,,,,,,,,,,,,1,0,0,,-1804,15328,3236,-274,-43,-307
31.619,31.14,1.59,1.89,-2.74,11.24,-13.56,0.21,0.26,-1.57,0.91,432.00,1059.00,173.00,176.00,831.00,2043.00,368.00,682.00,,,,,,,,,,,,1,0,0,,-1720,15744,3452,-23,117,262
31.659,31.20,1.52,-1.09,-0.36,-8.54,-0.60,0.10,1.23,0.59,0.79,401.00,1118.00,123.00,272.00,790.00,1999.00,356.00,628.00,,,,,,,,,,,,1,0,0,,-1428,15632,3556,954,-29,-2
31.719,31.25,1.57,-0.89,1.16,-13.48,14.94,2.59,-1.39,2.35,-1.19,368.00,1065.00,58.00,218.00,870.00,1943.00,384.00,618.00,,,,,,,,,,,,1,0,0,,-1444,15848,3016,862,222,17
31.761,31.31,1.55,2.70,-2.27,13.83,-7.20,1.23,-0.70,1.22,-1.00,415.00,1013.00,117.00,134.00,859.00,2013.00,388.00,643.00,,,,,,,,,,,,1,0,0,,-1520,15652,3032,522,380,-266
31.821,31.36,1.45,0.01,-0.87,1.08,-4.43,-0.48,1.57,-1.06,2.42,404.00,1085.00,127.00,206.00,784.00,2027.00,336.00,642.00,,,,,,,,,,,,1,0,0,,-1544,15812,2748,52,415,-128
31.902,31.42,1.46,-2.22,2.32,-25.73,26.87,1.53,-0.21,3.44,-2.31,354.00,1088.00,38.00,257.00,832.00,1963.00,400.00,610.00,,,,,,,,,,,,1,0,0,,-1740,15904,2492,149,473,-182
31.943,31.48,1.50,1.37,-1.19,8.63,-2.74,2.36,-2.10,1.34,-1.19,401.00,1037.00,101.00,146.00,908.00,1999.00,391.00,643.00,,,,,,,,,,,,1,0,0,,-1504,15644,2740,-116,120,-106
32.004,31.53,1.44,1.24,-1.78,7.43,-11.17,0.17,0.50,-2.27,4.13,415.00,1059.00,163.00,192.00,821.00,2033.00,313.00,643.00,,,,,,,,,,,,1,0,0,,-1488,16056,2992,123,-94,-249
32.066,31.58,1.44,-0.35,0.93,-15.34,11.83,1.62,-0.24,2.54,-1.11,369.00,1049.00,71.00,255.00,832.00,1958.00,381.00,612.00,,,,,,,,,,,,1,0,0,,-1548,15972,2936,414,-243,-573
32.108,31.64,1.54,1.87,-0.60,-4.48,8.18,3.32,-2.32,2.99,-2.44,385.00,1001.00,71.00,183.00,903.00,1936.00,406.00,623.00,,,,,,,,,,,,1,0,0,,-1904,15636,2932,614,-84,-518
32.151,31.69,1.49,4.12,-3.70,14.33,-15.93,0.66,-0.27,-0.07,0.21,437.00,995.00,186.00,166.00,848.00,2035.00,372.00,655.00,,,,,,,,,,,,1,0,0,,-1684,15804,2868,135,-21,-213
32.255,31.75,1.43,-0.87,0.37,-9.82,1.56,0.23,1.31,1.43,-0.50,384.00,1087.00,112.00,270.00,785.00,1985.00,376.00,629.00,,,,,,,,,,,,1,0,0,,-1496,15520,2680,155,-126,-302
32.297,31.80,1.54,0.63,0.45,-14.34,16.89,3.52,-2.12,3.05,-2.23,372.00,1022.00,53.00,214.00,890.00,1910.00,401.00,618.00,,,,,,,,,,,,1,0,0,,-1652,15736,2928,-30,-87,-320
32.318,31.86,1.54,3.75,-2.89,21.36,-13.57,1.69,-0.83,0.77,0.12,421.00,988.00,144.00,118.00,858.00,1984.00,368.00,635.00,,,,,,,,,,,,1,0,0,,-1672,15928,2732,431,123,-345
32.379,31.91,1.46,1.49,-1.18,3.25,-5.01,-0.18,1.68,-1.52,2.57,400.00,1032.00,126.00,192.00,775.00,1997.00,336.00,651.00,,,,,,,,,,,,1,0,1,,-1828,16064,2668,995,36,-307
32.421,31.97,1.51,-1.30,2.65,-29.08,37.27,2.56,-0.60,3.07,-1.77,342.00,1040.00,23.00,222.00,834.00,1905.00,391.00,610.00,,,,,,,,,,,,1,0,1,,-2056,16296,2592,2895,396,-348
32.482,32.03,1.57,3.40,-2.42,14.89,-3.71,2.60,-2.30,2.22,-1.91,413.00,989.00,95.00,117.00,914.00,1991.00,400.00,633.00,,,,,,,,,,,,1,0,1,,-1736,16372,2260,5333,363,-460
32.545,32.08,1.46,0.90,-1.35,8.54,-10.62,-0.58,0.75,-2.18,2.41,408.00,1061.00,155.00,181.00,821.00,2080.00,343.00,671.00,,,,,,,,,,,,1,0,1,,-1656,15688,1360,5954,321,-1117
32.628,32.14,1.40,-2.13,2.19,-15.99,9.85,0.30,0.12,0.22,-0.29,356.00,1088.00,80.00,276.00,836.00,2043.00,380.00,656.00,,,,,,,,,,,,1,0,1,,-1888,15696,272,4391,-289,-594
32.649,32.19,1.42,0.06,-0.70,-5.59,2.79,1.81,-2.51,1.46,-2.72,400.00,1078.00,97.00,221.00,938.00,2066.00,424.00,667.00,,,,,,,,,,,,1,0,1,,-2020,15476,-140,3249,-675,-474
32.711,32.25,1.30,1.42,-2.88,8.48,-14.06,-0.97,-0.25,-2.02,0.13,439.00,1083.00,187.00,199.00,873.00,2170.00,387.00,709.00,,,,,,,,,,,,1,0,1,,-2196,15900,-284,2045,-526,1
32.752,32.30,1.20,-2.73,0.66,-8.22,-5.22,-0.73,0.14,-1.16,0.47,391.00,1161.00,157.00,304.00,851.00,2127.00,374.00,679.00,,,,,,,,,,,,1,0,1,,-2060,15912,-560,1108,-115,83
32.813,32.35,1.23,-1.49,0.52,-13.78,9.11,1.80,-2.41,1.68,-3.06,385.00,1109.00,80.00,258.00,933.00,2061.00,430.00,667.00,,,,,,,,,,,,1,0,1,,-1876,16240,-812,712,143,-343
32.874,32.41,1.21,2.39,-3.37,8.84,-13.07,0.91,-1.73,-0.26,-0.07,443.00,1056.00,176.00,191.00,914.00,2096.00,379.00,665.00,,,,,,,,,,,,1,0,1,,-2076,16024,-576,178,207,-466
32.916,32.47,1.11,-0.64,0.10,-5.33,-3.94,-0.94,0.87,-1.66,1.04,388.00,1085.00,139.00,262.00,821.00,2103.00,366.00,682.00,,,,,,,,,,,,1,0,1,,-2228,16140,-620,292,502,-191
32.998,32.52,1.12,-1.42,1.49,-17.30,10.06,1.46,-1.36,1.96,-2.05,365.00,1078.00,81.00,289.00,887.00,2031.00,405.00,642.00,,,,,,,,,,,,1,0,1,,-2072,16164,-872,117,749,-251
33.059,32.58,1.11,2.83,-2.31,10.58,-9.94,0.90,-1.71,0.76,-1.64,415.00,1009.00,144.00,164.00,913.00,2096.00,405.00,666.00,,,,,,,,,,,,1,0,1,,-2048,16236,-1400,581,555,-233
33.101,32.63,0.97,0.56,-2.29,2.95,-12.88,-1.71,1.29,-1.90,1.02,432.00,1103.00,194.00,240.00,814.00,2144.00,368.00,689.00,,,,,,,,,,,,1,0,1,,-2028,15772,-952,140,234,-200
33.161,32.69,0.96,-2.80,2.26,-17.51,6.80,0.77,-0.94,1.78,-2.53,359.00,1115.00,97.00,318.00,878.00,2064.00,417.00,655.00,,,,,,,,,,,,1,0,1,,-2252,16324,-900,-478,553,-206
33.223,32.74,1.00,0.55,-1.46,-3.32,-2.21,1.80,-2.86,0.03,-1.67,413.00,1079.00,122.00,231.00,956.00,2086.00,411.00,686.00,,,,,,,,,,,,1,0,1,,-2036,16724,-592,-58,770,-272
33.264,32.80,0.92,1.96,-4.08,7.10,-16.77,-0.67,-0.52,-2.20,-0.69,464.00,1095.00,222.00,226.00,881.00,2160.00,406.00,730.00,,,,,,,,,,,,1,0,1,,-2136,16064,-404,185,235,-575
33.368,32.85,0.84,-1.41,-0.98,-11.25,-3.36,-0.65,0.37,-0.88,-0.82,417.00,1151.00,150.00,326.00,839.00,2107.00,399.00,695.00,,,,,,,,,,,,1,0,1,,-2328,15668,-688,-106,445,-435
33.388,32.91,0.88,-1.19,0.19,-13.80,5.55,1.65,-2.28,1.56,-3.82,390.00,1106.00,97.00,284.00,929.00,2066.00,449.00,684.00,,,,,,,,,,,,1,0,1,,-2452,16376,-848,755,549,-28
33.45,32.96,0.82,1.66,-4.45,9.45,-13.16,-0.32,-0.95,-1.95,-1.31,476.00,1119.00,175.00,187.00,896.00,2155.00,418.00,735.00,,,,,,,,,,,,1,0,1,,-2072,15760,-1292,950,437,-89
33.47,33.02,0.71,-0.81,-1.83,-4.18,-7.72,-1.47,0.91,-1.51,-0.04,432.00,1150.00,167.00,277.00,827.00,2145.00,387.00,698.00,,,,,,,,,,,,1,0,1,,-2128,16124,-1336,288,240,-180
33.553,33.07,0.72,-2.37,0.35,-18.75,12.98,1.01,-1.36,1.29,-2.54,395.00,1154.00,71.00,283.00,894.00,2067.00,421.00,668.00,,,,,,,,,,,,1,0,1,,-2256,15968,-1196,40,158,-83
33.573,33.13,0.73,0.52,-2.06,7.85,-11.20,0.95,-2.40,-2.08,-0.46,427.00,1098.00,162.00,189.00,947.00,2131.00,400.00,722.00,,,,,,,,,,,,1,0,1,,-2208,16168,-1436,-20,165,-108
33.635,33.18,0.64,-0.21,-2.41,1.46,-13.67,-1.16,0.30,-3.13,1.14,441.00,1141.00,208.00,260.00,850.00,2154.00,374.00,721.00,,,,,,,,,,,,1,0,1,,-2360,16296,-1148,203,130,-283
33.738,33.24,0.64,-2.64,1.90,-16.94,6.80,0.64,-0.94,0.88,-2.27,365.00,1119.00,96.00,311.00,880.00,2074.00,418.00,674.00,,,,,,,,,,,,1,0,1,,-2152,16092,-1324,301,-57,-241
33.759,33.29,0.68,1.07,-1.63,-4.35,-3.03,1.43,-2.39,-0.48,-1.98,413.00,1062.00,130.00,246.00,938.00,2090.00,422.00,706.00,,,,,,,,,,,,1,0,1,,-2324,15976,-1288,240,-192,-318
33.8,33.35,0.59,0.56,-2.29,2.74,-14.53,-1.19,-0.31,-3.34,0.43,432.00,1103.00,213.00,253.00,879.00,2192.00,390.00,741.00,,,,,,,,,,,,1,0,1,,-2300,15972,-1260,15,50,-71
33.861,33.40,0.53,-1.77,-0.32,-13.01,-1.88,-0.53,0.03,0.53,-1.75,405.00,1147.00,143.00,336.00,853.00,2117.00,409.00,674.00,,,,,,,,,,,,1,0,1,,-2272,16196,-1216,-47,398,-115
33.903,33.46,0.59,-0.39,-0.55,-12.71,3.03,1.83,-2.60,2.53,-4.75,400.00,1093.00,109.00,291.00,942.00,2069.00,464.00,675.00,,,,,,,,,,,,1,0,0,,-2176,15996,-1384,-112,290,-73
33.965,33.51,0.55,2.63,-4.07,2.56,-12.46,-0.30,-0.90,-2.72,-0.38,458.00,1066.00,191.00,241.00,893.00,2150.00,403.00,739.00,,,,,,,,,,,,1,0,0,,-2156,16360,-1376,-76,189,-83
34.048,33.57,0.49,-0.78,-1.19,-7.32,-6.55,-0.71,0.04,-2.98,1.24,417.00,1129.00,166.00,304.00,855.00,2131.00,371.00,715.00,,,,,,,,,,,,1,0,0,,-2248,16032,-1076,-5,-18,-200
34.108,33.62,0.53,-1.27,-0.16,-14.55,3.99,1.43,-2.01,0.24,-1.92,398.00,1120.00,107.00,305.00,919.00,2069.00,415.00,685.00,,,,,,,,,,,,1,0,0,,-2204,16208,-1356,-129,-52,-83
34.149,33.67,0.55,1.48,-2.51,5.70,-10.71,0.91,-2.33,-1.39,-1.01,430.00,1070.00,164.00,203.00,944.00,2130.00,407.00,713.00,,,,,,,,,,,,1,0,0,,-2216,16040,-1392,-298,50,-133
34.19,33.73,0.43,-0.19,-1.95,-1.83,-11.18,-1.90,0.90,-3.89,1.34,430.00,1126.00,193.00,277.00,834.00,2183.00,375.00,739.00,,,,,,,,,,,,1,0,0,,-2164,16312,-1300,-2,132,-121
34.252,33.78,0.43,-2.83,1.81,-16.83,3.75,0.44,-1.15,-0.69,-1.78,368.00,1130.00,113.00,336.00,893.00,2102.00,419.00,708.00,,,,,,,,,,,,1,0,0,,-1996,15948,-1440,-42,24,-85
34.293,33.84,0.45,0.85,-2.17,-0.32,-5.49,0.87,-2.53,-0.11,-2.80,427.00,1087.00,138.00,224.00,955.00,2145.00,438.00,711.00,,,,,,,,,,,,1,0,0,,-2300,16420,-1184,-72,114,-134
34.353,33.90,0.36,-0.58,-2.33,1.71,-13.75,-1.48,-0.58,-2.45,-1.28,442.00,1155.00,208.00,258.00,897.00,2234.00,421.00,749.00,,,,,,,,,,,,1,0,0,,-2224,16040,-1416,160,55,-191
34.414,33.95,0.30,-2.43,-1.24,-13.97,-3.86,-0.74,-0.41,-1.10,-1.64,431.00,1207.00,162.00,368.00,877.00,2160.00,419.00,717.00,,,,,,,,,,,,1,0,0,,-2248,16144,-1324,36,81,-190
34.476,34.01,0.35,-0.96,-0.81,-8.28,-0.99,1.38,-2.55,1.09,-4.31,410.00,1126.00,125.00,272.00,947.00,2103.00,465.00,706.00,,,,,,,,,,,,1,0,0,,-2176,15904,-1228,-201,-3,-190
34.517,34.06,0.31,3.13,-5.03,5.79,-15.65,-0.60,-0.80,-2.74,-0.10,478.00,1072.00,214.00,231.00,893.00,2170.00,397.00,734.00,,,,,,,,,,,,1,0,0,,-2340,16096,-1152,-170,16,-224
34.58,34.12,0.24,-1.63,-0.45,-6.93,-7.12,-1.03,0.33,-1.37,-0.09,407.00,1145.00,170.00,304.00,847.00,2142.00,387.00,695.00,,,,,,,,,,,,1,0,0,,-2252,16224,-1092,-202,114,-131
34.642,34.17,0.31,-0.78,0.19,-17.80,8.91,1.54,-1.76,-0.65,-0.94,387.00,1088.00,87.00,304.00,905.00,2046.00,400.00,691.00,,,,,,,,,,,,1,0,0,,-2256,16152,-1172,-11,125,-21
34.684,34.23,0.34,1.08,-1.18,6.05,-12.13,0.91,-2.04,-0.39,-2.53,403.00,1049.00,176.00,208.00,929.00,2113.00,434.00,714.00,,,,,,,,,,,,1,0,0,,-2196,16164,-1424,16,92,-211
34.747,34.28,0.23,-0.32,-0.90,-3.56,-8.89,-1.83,1.28,-3.97,1.77,407.00,1100.00,176.00,279.00,816.00,2155.00,367.00,733.00,,,,,,,,,,,,1,0,0,,-2220,16116,-1384,59,57,-189
34.851,34.34,0.28,-2.07,1.55,-17.35,5.64,1.23,-1.54,1.27,-1.99,368.00,1104.00,103.00,326.00,899.00,2059.00,409.00,659.00,,,,,,,,,,,,1,0,0,,-2320,16024,-1344,-213,55,-255
34.871,34.39,0.36,2.14,-2.39,-0.66,-5.64,1.87,-2.77,-1.36,-1.43,422.00,1039.00,140.00,228.00,950.00,2075.00,416.00,720.00,,,,,,,,,,,,1,0,0,,-2372,16180,-1300,-111,113,-197
34.933,34.45,0.31,1.21,-3.18,4.54,-15.23,-0.67,-0.79,-3.46,0.90,448.00,1101.00,214.00,240.00,894.00,2176.00,381.00,735.00,,,,,,,,,,,,1,0,0,,-2272,16092,-1220,-52,54,-174
34.973,34.50,0.28,-1.04,-1.10,-12.09,-3.68,-0.10,-0.29,-0.97,-1.11,417.00,1138.00,155.00,340.00,861.00,2099.00,406.00,703.00,,,,,,,,,,,,1,0,0,,-2296,16100,-1176,-72,96,-115
35.015,34.56,0.36,-1.08,-0.41,-10.06,1.64,1.88,-2.77,1.13,-4.20,402.00,1119.00,112.00,272.00,950.00,2074.00,462.00,703.00,,,,,,,,,,,,1,0,0,,-2248,16180,-1144,38,221,-80
35.076,34.61,0.29,1.81,-4.54,7.54,-17.24,-1.07,-0.30,-2.49,-0.32,477.00,1115.00,226.00,225.00,877.00,2182.00,400.00,731.00,,,,,,,,,,,,1,0,0,,-2148,16124,-1364,180,246,-152
35.118,34.67,0.21,-2.10,-1.01,-8.05,-7.38,-1.32,0.73,-1.92,0.24,423.00,1184.00,176.00,320.00,833.00,2143.00,384.00,704.00,,,,,,,,,,,,1,0,0,,-2172,16004,-1492,25,166,-151
35.201,34.72,0.27,-1.21,-0.77,-14.43,5.96,1.29,-1.72,0.46,-2.73,411.00,1136.00,96.00,288.00,907.00,2064.00,432.00,694.00,,,,,,,,,,,,1,0,0,,-2264,16232,-1324,-47,182,-95
35.241,34.78,0.26,0.06,-2.12,2.42,-7.83,0.12,-1.41,-0.18,-1.73,432.00,1120.00,149.00,214.00,911.00,2144.00,414.00,693.00,,,,,,,,,,,,1,0,0,,-2228,16232,-1516,81,258,-102
35.282,34.83,0.16,-1.60,-1.31,-4.59,-7.91,-1.79,1.13,-3.26,1.38,426.00,1170.00,170.00,283.00,822.00,2160.00,370.00,720.00,,,,,,,,,,,,1,0,0,,-2272,16084,-1300,-200,208,-128
35.344,34.89,0.21,-1.89,0.95,-19.36,11.21,1.18,-1.08,1.51,-1.66,379.00,1114.00,79.00,304.00,878.00,2038.00,400.00,647.00,,,,,,,,,,,,1,0,0,,-2304,16228,-1432,-191,146,-196
35.406,34.94,0.28,2.59,-3.27,5.25,-8.15,1.59,-2.28,0.37,-2.27,439.00,1045.00,144.00,193.00,930.00,2071.00,422.00,688.00,,,,,,,,,,,,1,0,0,,-2312,16236,-1140,-93,72,-156
35.467,35.00,0.20,0.61,-2.77,2.34,-12.29,-1.26,0.71,-1.46,1.02,443.00,1115.00,190.00,242.00,833.00,2139.00,365.00,677.00,,,,,,,,,,,,1,0,0,,-2452,16192,-1280,68,155,-223
35.571,35.05,0.20,-1.36,-0.22,-14.81,0.77,0.22,-0.16,1.31,-2.28,400.00,1126.00,128.00,336.00,850.00,2065.00,415.00,663.00,,,,,,,,,,,,1,0,0,,-2276,16088,-1384,68,254,-43
35.591,35.10,0.33,0.82,-2.16,-9.09,0.35,2.80,-3.04,1.57,-3.78,427.00,1088.00,118.00,271.00,948.00,2015.00,448.00,683.00,,,,,,,,,,,,1,0,0,,-2348,16064,-1584,-19,202,-160
35.632,35.16,0.31,2.38,-4.22,9.30,-16.92,-0.01,-0.83,-2.30,0.86,464.00,1081.00,215.00,208.00,885.00,2122.00,374.00,703.00,,,,,,,,,,,,1,0,0,,-2268,16200,-1564,-43,118,-127
35.674,35.22,0.26,-2.36,0.39,-11.25,-3.36,-0.70,1.01,0.65,-0.91,394.00,1152.00,150.00,326.00,811.00,2075.00,390.00,656.00,,,,,,,,,,,,1,0,0,,-2328,16196,-1360,-236,108,-150
35.734,35.27,0.39,-1.42,0.60,-14.39,7.76,2.73,-2.39,2.36,-3.84,383.00,1104.00,87.00,274.00,916.00,1985.00,443.00,663.00,,,,,,,,,,,,1,0,0,,-2348,16372,-1380,-25,67,-189
35.797,35.33,0.41,1.84,-2.81,5.58,-11.97,0.88,-1.11,-0.93,-0.84,434.00,1063.00,176.00,211.00,884.00,2064.00,400.00,697.00,,,,,,,,,,,,1,0,0,,-2372,16100,-1360,113,132,-204
35.839,35.38,0.31,0.50,-2.27,-3.56,-6.55,-1.56,1.93,-1.04,1.19,432.00,1105.00,155.00,262.00,784.00,2095.00,359.00,663.00,,,,,,,,,,,,1,0,0,,-2172,15876,-1204,132,384,-86
35.941,35.44,0.39,-2.69,2.07,-18.32,11.82,1.95,-1.09,3.51,-2.97,362.00,1116.00,75.00,287.00,866.00,1977.00,414.00,619.00,,,,,,,,,,,,1,0,0,,-2128,15924,-1520,148,531,-155
35.961,35.49,0.49,1.48,-1.82,4.91,-8.79,2.26,-2.37,1.17,-1.96,414.00,1050.00,150.00,199.00,923.00,2021.00,409.00,661.00,,,,,,,,,,,,1,0,0,,-2216,15928,-1892,-83,264,-289
36.003,35.55,0.43,-0.32,-2.00,0.67,-11.63,-0.76,0.43,-1.10,0.60,432.00,1133.00,189.00,254.00,838.00,2113.00,371.00,675.00,,,,,,,,,,,,1,0,0,,-2292,16404,-1320,-139,63,-156
36.064,35.60,0.41,-2.99,0.74,-17.32,6.17,0.03,0.14,1.07,-1.43,391.00,1170.00,100.00,321.00,839.00,2064.00,398.00,654.00,,,,,,,,,,,,1,0,0,,-2240,16176,-1532,76,509,-130
36.106,35.66,0.49,-0.81,-1.53,-7.77,-1.74,2.04,-2.71,-2.37,-1.31,425.00,1141.00,129.00,272.00,944.00,2058.00,421.00,747.00,,,,,,,,,,,,1,0,0,,-2168,16236,-1444,4,541,-268
36.167,35.71,0.47,1.84,-4.04,6.25,-16.81,0.16,-0.72,-1.04,-0.58,464.00,1099.00,226.00,234.00,877.00,2101.00,395.00,695.00,,,,,,,,,,,,1,0,0,,-2440,15940,-1644,435,-37,-469
36.23,35.77,0.47,-1.99,-0.15,-10.65,-3.43,0.42,0.46,-0.81,1.01,403.00,1152.00,149.00,319.00,819.00,2015.00,361.00,660.00,,,,,,,,,,,,1,0,0,,-2456,16000,-1920,255,-182,-302
36.313,35.82,0.61,0.12,-0.58,-12.13,6.37,3.28,-2.59,4.37,-4.60,397.00,1072.00,90.00,260.00,917.00,1953.00,445.00,625.00,,,,,,,,,,,,1,0,0,,-2424,15960,-1652,-34,-26,-141
36.334,35.88,0.66,2.58,-3.68,11.50,-14.98,1.55,-1.02,0.40,-0.82,449.00,1057.00,186.00,181.00,869.00,2005.00,390.00,661.00,,,,,,,,,,,,1,0,0,,-2408,16152,-1792,-309,384,13
36.396,35.93,0.64,0.21,-1.16,-1.79,-8.30,0.36,0.54,0.77,-0.22,409.00,1085.00,165.00,256.00,816.00,2015.00,375.00,641.00,,,,,,,,,,,,1,0,0,,-2276,16260,-1912,-8,225,-192
36.438,35.99,0.79,-1.21,1.32,-15.28,8.93,3.51,-2.28,3.18,-1.99,367.00,1074.00,83.00,275.00,898.00,1919.00,395.00,611.00,,,,,,,,,,,,1,0,0,,-2232,15984,-1600,-269,4,1
36.5,36.04,0.88,2.44,-1.82,4.29,-5.36,2.61,-2.08,2.14,-1.79,407.00,1011.00,126.00,186.00,903.00,1978.00,398.00,633.00,,,,,,,,,,,,1,0,0,,-2260,16184,-1364,-273,29,-187
36.561,36.10,0.81,0.42,-1.68,3.03,-13.47,-0.38,1.41,-0.34,0.55,419.00,1091.00,200.00,243.00,789.00,2027.00,367.00,656.00,,,,,,,,,,,,1,0,0,,-2292,16188,-1572,134,120,-197
36.643,36.15,0.87,-3.02,2.59,-20.63,11.41,1.86,-0.36,4.23,-1.73,354.00,1115.00,80.00,318.00,834.00,1946.00,382.00,582.00,,,,,,,,,,,,1,0,0,,-2300,16184,-1744,83,25,-218
36.684,36.21,0.97,0.97,-1.42,-4.03,-2.12,3.01,-2.46,1.31,-1.60,409.00,1060.00,123.00,237.00,915.00,1967.00,400.00,651.00,,,,,,,,,,,,1,0,1,,-2368,16236,-1760,-66,-120,-281
36.768,36.26,0.94,1.14,-3.28,6.28,-15.55,0.21,-0.52,-0.74,-0.58,451.00,1107.00,211.00,226.00,867.00,2086.00,393.00,687.00,,,,,,,,,,,,1,0,1,,-2528,16108,-1804,-230,-141,-333
36.788,36.32,0.89,-2.20,-0.03,-12.10,-2.44,0.01,0.87,0.46,-0.12,402.00,1158.00,145.00,329.00,807.00,2026.00,375.00,647.00,,,,,,,,,,,,1,0,1,,-2560,16052,-1776,-227,33,-193
36.83,36.37,1.00,-1.42,-0.57,-13.91,7.60,3.13,-2.48,3.50,-3.19,408.00,1139.00,87.00,270.00,914.00,1959.00,419.00,623.00,,,,,,,,,,,,1,0,1,,-2532,16208,-1692,-205,154,-107
36.891,36.42,1.01,2.10,-4.79,10.78,-15.13,1.09,-1.24,-0.39,-0.89,481.00,1110.00,190.00,187.00,887.00,2054.00,397.00,683.00,,,,,,,,,,,,1,0,1,,-2348,16016,-1508,-142,123,-119
36.932,36.48,0.96,-1.27,-1.63,-5.19,-7.15,0.07,0.69,-0.05,-0.05,431.00,1165.00,165.00,284.00,814.00,2031.00,377.00,659.00,,,,,,,,,,,,1,0,1,,-2400,16172,-1440,-177,114,23
37.033,36.53,1.03,-2.23,0.21,-25.23,19.87,2.30,-1.23,2.53,-1.82,397.00,1152.00,55.00,304.00,867.00,1957.00,396.00,624.00,,,,,,,,,,,,1,0,1,,-2272,16140,-1628,-247,179,-79
37.054,36.59,1.08,1.93,-2.63,7.78,-7.81,2.15,-1.49,2.02,-2.25,429.00,1054.00,135.00,173.00,882.00,1983.00,409.00,644.00,,,,,,,,,,,,1,0,1,,-2348,16152,-1484,-204,171,-103
37.116,36.65,1.02,0.74,-1.57,-0.62,-9.88,-0.17,1.30,0.50,0.88,414.00,1074.00,176.00,255.00,791.00,2017.00,355.00,629.00,,,,,,,,,,,,1,0,1,,-2424,16432,-1576,-136,21,59
37.159,36.70,1.11,-1.55,1.89,-16.99,10.65,2.76,-0.77,4.53,-2.68,358.00,1072.00,78.00,281.00,839.00,1899.00,400.00,590.00,,,,,,,,,,,,1,0,1,,-2436,16140,-1472,263,-159,-267
37.22,36.76,1.24,3.45,-2.79,-1.72,-0.67,3.76,-2.39,2.81,-1.87,421.00,997.00,109.00,208.00,899.00,1906.00,395.00,618.00,,,,,,,,,,,,1,0,1,,-2252,16196,-1564,349,-1,-181
37.282,36.81,1.23,1.92,-2.75,5.64,-14.44,0.98,-0.42,0.26,1.12,432.00,1058.00,201.00,225.00,850.00,2018.00,352.00,631.00,,,,,,,,,,,,1,0,1,,-2448,15864,-1624,335,187,-234
37.342,36.87,1.24,-1.05,-0.28,-10.52,-2.19,1.53,0.31,2.97,-1.69,399.00,1114.00,139.00,307.00,809.00,1936.00,390.00,611.00,,,,,,,,,,,,1,0,1,,-2372,16184,-1720,-7,376,-207
37.445,36.92,1.38,-0.12,0.02,-8.98,4.71,4.09,-2.80,4.95,-4.24,386.00,1065.00,93.00,240.00,914.00,1902.00,432.00,605.00,,,,,,,,,,,,1,0,1,,-2504,16216,-1960,127,561,-235
37.466,36.98,1.38,3.23,-4.43,10.84,-15.82,1.40,-0.71,-0.07,1.07,462.00,1051.00,197.00,190.00,857.00,2000.00,355.00,640.00,,,,,,,,,,,,1,0,1,,-2436,16112,-2076,88,350,-438
37.487,37.03,1.36,-1.11,-0.49,-4.77,-6.02,0.94,0.56,1.65,0.08,404.00,1123.00,154.00,271.00,807.00,1969.00,363.00,614.00,,,,,,,,,,,,1,0,1,,-2504,15924,-2036,235,-87,-210
37.548,37.09,1.43,-0.93,0.72,-18.10,16.49,2.72,-1.07,3.38,-2.30,377.00,1079.00,58.00,251.00,853.00,1917.00,400.00,611.00,,,,,,,,,,,,1,0,1,,-2556,16060,-1812,211,-214,-129
37.61,37.14,1.46,1.43,-2.37,11.55,-11.15,2.12,-1.34,0.82,-0.24,427.00,1068.00,151.00,163.00,875.00,1977.00,375.00,640.00,,,,,,,,,,,,1,0,1,,-2540,16064,-1752,223,46,-231
37.652,37.20,1.38,0.53,-2.28,2.44,-12.13,-0.23,1.65,0.04,1.67,432.00,1104.00,188.00,240.00,777.00,2003.00,343.00,627.00,,,,,,,,,,,,1,0,1,,-2440,16072,-1904,42,237,-85
37.713,37.25,1.41,-3.30,2.74,-25.44,22.46,2.07,-0.39,4.42,-2.64,353.00,1123.00,48.00,286.00,832.00,1931.00,400.00,592.00,,,,,,,,,,,,1,0,1,,-2408,16132,-1824,-18,236,-85
37.774,37.31,1.48,1.65,-2.66,0.27,-4.30,2.64,-2.30,2.60,-2.58,432.00,1067.00,128.00,212.00,913.00,1987.00,412.00,635.00,,,,,,,,,,,,1,0,1,,-2332,15996,-1820,-61,144,43
37.835,37.36,1.40,-0.53,-1.75,4.00,-12.85,0.04,0.07,-1.81,1.76,428.00,1135.00,190.00,230.00,842.00,2067.00,353.00,673.00,,,,,,,,,,,,1,0,1,,-2328,16312,-1872,137,138,-51
37.876,37.42,1.38,-1.72,-1.09,-12.00,0.12,1.01,-0.53,2.46,-1.89,422.00,1169.00,126.00,306.00,855.00,2022.00,398.00,627.00,,,,,,,,,,,,1,0,1,,-2264,16128,-2084,15,139,-152
37.937,37.47,1.50,0.51,-2.49,-12.05,5.54,3.63,-2.99,6.15,-5.19,437.00,1111.00,94.00,265.00,931.00,1947.00,445.00,592.00,,,,,,,,,,,,1,0,1,,-2300,16152,-2060,-271,154,-254
38.02,37.53,1.46,2.53,-4.27,9.37,-17.19,0.69,-0.23,-0.31,0.84,464.00,1076.00,218.00,209.00,846.00,2031.00,361.00,650.00,,,,,,,,,,,,1,0,1,,-2224,15900,-1912,-253,162,-41
38.04,37.58,1.40,-1.32,0.42,-9.73,-3.11,0.40,1.04,0.01,1.89,386.00,1105.00,144.00,305.00,794.00,1986.00,339.00,624.00,,,,,,,,,,,,1,0,1,,-2440,16176,-2032,-140,131,-165
38.143,37.64,1.52,-0.77,0.28,-13.46,8.77,3.74,-1.98,4.27,-1.98,385.00,1085.00,81.00,257.00,880.00,1887.00,387.00,585.00,,,,,,,,,,,,1,0,1,,-2412,16064,-1800,-128,171,-51
38.164,37.69,1.58,1.91,-2.09,9.44,-11.74,2.72,-1.75,0.81,0.36,417.00,1040.00,162.00,180.00,885.00,1952.00,363.00,630.00,,,,,,,,,,,,1,0,1,,-2384,16140,-2016,-49,132,-243
38.204,37.75,1.54,0.57,-1.73,-0.48,-7.82,0.69,0.73,1.74,0.30,419.00,1086.00,157.00,240.00,803.00,1979.00,358.00,608.00,,,,,,,,,,,,1,0,1,,-2360,16068,-1868,-144,42,-101
38.266,37.80,1.61,-1.05,1.21,-16.51,13.86,2.96,-0.80,5.07,-1.47,368.00,1070.00,65.00,253.00,837.00,1885.00,371.00,559.00,,,,,,,,,,,,1,0,1,,-2412,16128,-1960,-95,113,-88
38.307,37.85,1.65,2.68,-2.57,8.98,-9.15,2.45,-1.38,3.54,-2.53,422.00,1022.00,142.00,171.00,872.00,1954.00,404.00,611.00,,,,,,,,,,,,1,0,1,,-2436,16296,-1852,-122,213,-188
38.369,37.91,1.57,1.44,-2.46,6.12,-12.04,0.17,0.72,0.96,1.04,429.00,1070.00,175.00,207.00,811.00,2021.00,349.00,615.00,,,,,,,,,,,,1,0,1,,-2436,15932,-1808,-108,-14,-158
38.431,37.97,1.58,-0.88,0.18,-16.59,8.50,1.70,-0.29,3.80,-1.73,388.00,1093.00,87.00,293.00,833.00,1954.00,385.00,592.00,,,,,,,,,,,,1,0,1,,-2428,16052,-1756,-36,-70,-11
38.512,38.02,1.67,0.28,-1.37,-7.60,3.47,3.27,-2.39,5.13,-3.70,413.00,1088.00,97.00,235.00,907.00,1943.00,418.00,592.00,,,,,,,,,,,,1,0,1,,-2384,16156,-1812,21,88,-114
38.532,38.08,1.58,2.55,-4.75,12.12,-19.43,-0.08,0.33,1.25,-0.83,476.00,1089.00,234.00,199.00,832.00,2062.00,384.00,639.00,,,,,,,,,,,,1,0,1,,-2424,16128,-1924,7,165,-63
38.595,38.13,1.55,-1.54,-1.33,-10.35,-1.71,0.92,0.36,2.82,-1.40,426.00,1168.00,135.00,301.00,816.00,1981.00,385.00,610.00,,,,,,,,,,,,1,0,1,,-2344,16236,-2008,103,183,-121
38.677,38.19,1.66,-0.66,-0.46,-10.30,6.81,3.74,-2.91,4.66,-3.00,400.00,1102.00,85.00,239.00,925.00,1934.00,406.00,592.00,,,,,,,,,,,,1,0,1,,-2392,15980,-1928,-68,116,-90
38.698,38.24,1.66,1.84,-3.84,12.04,-15.36,1.73,-1.54,1.14,-1.63,459.00,1093.00,188.00,179.00,891.00,2019.00,402.00,656.00,,,,,,,,,,,,1,0,1,,-2216,16068,-1868,-275,304,-196
38.759,38.30,1.57,-0.97,-1.04,-0.21,-9.60,-0.03,1.44,0.74,0.64,415.00,1133.00,172.00,249.00,783.00,1998.00,358.00,627.00,,,,,,,,,,,,1,0,1,,-2300,16160,-2016,-607,367,-209
38.799,38.35,1.66,-1.00,1.14,-21.06,18.14,3.20,-1.03,4.91,-1.37,369.00,1070.00,56.00,270.00,844.00,1879.00,370.00,561.00,,,,,,,,,,,,1,0,1,,-2384,16128,-1944,-373,-26,-191
38.882,38.41,1.73,3.59,-3.44,10.73,-7.82,3.23,-2.19,3.76,-1.86,435.00,1009.00,128.00,154.00,898.00,1936.00,388.00,595.00,,,,,,,,,,,,1,0,1,,-2444,15916,-1664,-142,-116,-76
38.925,38.46,1.66,1.18,-1.94,3.47,-11.57,0.33,1.04,0.56,1.93,419.00,1066.00,179.00,227.00,795.00,1991.00,335.00,610.00,,,,,,,,,,,,1,0,1,,-2372,16312,-1680,-93,83,-164
38.988,38.52,1.68,-2.12,2.34,-10.18,5.72,2.00,-0.05,5.44,-1.94,353.00,1083.00,90.00,245.00,818.00,1919.00,378.00,558.00,,,,,,,,,,,,1,0,1,,-2316,16284,-1928,-45,315,-144
39.05,38.57,1.80,2.42,-1.68,1.48,-5.55,4.04,-2.89,4.36,-2.62,404.00,1008.00,134.00,209.00,919.00,1910.00,400.00,593.00,,,,,,,,,,,,1,0,1,,-2260,16060,-2028,-89,85,-215
39.111,38.63,1.76,2.02,-3.20,11.70,-16.30,1.07,-0.56,0.70,0.05,442.00,1067.00,199.00,186.00,855.00,2018.00,370.00,638.00,,,,,,,,,,,,1,0,1,,-2436,16144,-1724,-230,-127,-129
39.153,38.68,1.76,-1.00,-0.16,-12.82,0.84,1.66,0.22,3.88,-1.85,396.00,1108.00,123.00,310.00,811.00,1931.00,387.00,592.00,,,,,,,,,,,,1,0,1,,-2376,16116,-1616,-171,-53,-224
39.194,38.74,1.86,1.01,-0.51,-7.35,7.65,3.83,-2.45,5.43,-4.02,389.00,1033.00,77.00,208.00,901.00,1904.00,423.00,590.00,,,,,,,,,,,,1,0,1,,-2436,16024,-1744,-111,55,-200
39.236,38.79,1.86,3.27,-3.37,18.40,-17.40,1.75,-1.10,1.50,-0.42,436.00,1020.00,187.00,147.00,870.00,1994.00,374.00,626.00,,,,,,,,,,,,1,0,1,,-2548,15988,-1768,-115,47,-116
39.317,38.85,1.77,-0.84,-0.26,-6.04,-2.04,0.22,1.45,1.35,1.07,397.00,1104.00,127.00,256.00,779.00,1978.00,346.00,605.00,,,,,,,,,,,,1,0,1,,-2324,16224,-1856,-180,107,-142
39.379,38.90,1.86,-0.79,0.39,-11.07,9.38,3.55,-1.60,6.24,-2.93,383.00,1083.00,75.00,230.00,865.00,1882.00,393.00,555.00,,,,,,,,,,,,1,0,1,,-2412,15952,-1848,-110,-7,-122
39.419,38.96,1.90,3.84,-4.02,14.49,-10.61,2.64,-1.93,3.57,-1.46,447.00,1015.00,139.00,143.00,895.00,1968.00,381.00,593.00,,,,,,,,,,,,1,0,1,,-2260,16168,-1864,-68,-43,-158
39.46,39.01,1.81,0.03,-1.99,3.24,-11.08,0.08,1.05,0.93,0.12,429.00,1117.00,175.00,226.00,798.00,2010.00,367.00,631.00,,,,,,,,,,,,1,0,1,,-2448,16008,-1600,-158,-15,-136
39.52,39.07,1.85,-2.60,1.43,-15.72,9.99,2.56,-1.21,5.35,-2.35,374.00,1131.00,79.00,272.00,862.00,1936.00,387.00,566.00,,,,,,,,,,,,1,0,1,,-2424,16172,-1896,39,74,-120
39.623,39.12,1.91,1.17,-2.54,7.34,-7.80,3.00,-2.68,3.45,-3.00,433.00,1084.00,136.00,176.00,926.00,1979.00,415.00,621.00,,,,,,,,,,,,1,0,1,,-2420,16092,-1944,-110,-28,-200
39.645,39.17,1.84,0.84,-2.43,8.28,-15.05,0.65,0.07,1.83,-0.73,433.00,1095.00,198.00,206.00,833.00,2018.00,378.00,623.00,,,,,,,,,,,,1,0,1,,-2328,15976,-1764,-218,-46,-140
39.686,39.23,1.83,-1.03,0.08,-9.43,-2.56,1.55,0.28,3.36,0.99,391.00,1102.00,139.00,297.00,810.00,1936.00,335.00,560.00,,,,,,,,,,,,1,0,1,,-2412,16232,-1640,-162,22,-112
39.748,39.28,1.96,2.16,-2.53,-4.09,2.48,4.42,-3.14,7.62,-5.10,425.00,1042.00,96.00,210.00,925.00,1894.00,431.00,557.00,,,,,,,,,,,,1,0,1,,-2344,16044,-1612,-44,154,-110
39.81,39.34,1.91,4.01,-4.57,18.60,-19.43,1.07,-0.01,1.72,-0.44,459.00,1023.00,208.00,154.00,830.00,1989.00,373.00,621.00,,,,,,,,,,,,1,0,1,,-2380,16276,-1756,40,256,-108
39.85,39.40,1.87,-1.13,0.17,-2.58,-6.39,1.09,1.06,6.09,-3.43,390.00,1104.00,151.00,251.00,783.00,1931.00,405.00,566.00,,,,,,,,,,,,1,0,1,,-2324,15924,-1924,-33,180,-236
39.911,39.45,1.97,0.21,0.24,-13.21,14.53,3.90,-1.81,6.43,-2.66,379.00,1045.00,59.00,218.00,869.00,1866.00,386.00,547.00,,,,,,,,,,,,1,0,1,,-2280,16188,-1816,-160,108,-146
40.013,39.51,2.00,3.74,-2.53,15.87,-13.67,2.60,-1.05,3.87,-1.27,413.00,979.00,160.00,147.00,854.00,1925.00,375.00,583.00,,,,,,,,,,,,1,0,1,,-2412,16092,-1916,-171,8,-227
40.034,39.56,1.92,1.45,-1.31,1.18,-7.54,0.27,1.86,1.82,1.51,403.00,1037.00,150.00,223.00,761.00,1952.00,335.00,587.00,,,,,,,,,,,,1,0,1,,-2412,16192,-1736,-254,17,-179
40.074,39.62,2.00,-1.95,2.65,-17.53,14.20,3.56,-1.11,6.86,-1.78,346.00,1067.00,65.00,261.00,842.00,1856.00,365.00,525.00,,,,,,,,,,,,1,0,1,,-2480,16024,-1704,-123,69,-222
40.136,39.67,2.07,2.86,-2.32,6.11,-3.80,3.36,-1.88,3.64,-2.05,415.00,1008.00,112.00,166.00,881.00,1910.00,393.00,601.00,,,,,,,,,,,,1,0,1,,-2528,16124,-1852,-121,127,-150
40.197,39.73,1.99,1.47,-2.12,5.58,-11.97,0.45,1.00,1.22,0.17,421.00,1059.00,176.00,211.00,795.00,1984.00,364.00,623.00,,,,,,,,,,,,1,0,1,,-2400,16072,-1872,-103,185,-169
40.238,39.78,1.99,-0.63,-0.19,-12.98,3.81,2.05,-0.45,4.91,-2.15,394.00,1093.00,105.00,288.00,835.00,1936.00,386.00,573.00,,,,,,,,,,,,1,0,1,,-2416,16080,-1860,-198,28,-87
40.34,39.84,2.10,0.61,-1.30,-1.43,-1.26,4.27,-3.18,2.19,1.22,409.00,1072.00,112.00,209.00,930.00,1908.00,338.00,583.00,,,,,,,,,,,,1,0,1,,-2316,16016,-1932,-153,-11,-101
40.361,39.89,2.06,3.13,-4.99,10.82,-16.37,1.18,-0.91,1.16,-0.16,477.00,1071.00,203.00,193.00,870.00,2029.00,371.00,630.00,,,,,,,,,,,,1,0,1,,-2372,16000,-1728,-172,-24,-150
40.402,39.95,2.00,-1.22,-0.86,-9.08,-1.16,0.97,0.34,3.01,-0.38,413.00,1139.00,128.00,282.00,816.00,1978.00,363.00,589.00,,,,,,,,,,,,1,0,1,,-2316,16256,-1836,-115,35,-199
40.464,40.00,2.10,-0.05,-0.71,-16.22,15.86,3.99,-2.69,7.79,-3.78,401.00,1083.00,58.00,237.00,910.00,1904.00,400.00,534.00,,,,,,,,,,,,1,0,1,,-2416,15980,-1772,-292,-46,-217
40.526,40.06,2.12,3.70,-3.89,13.00,-12.35,2.38,-0.82,2.75,-0.19,445.00,1017.00,157.00,159.00,847.00,1930.00,361.00,592.00,,,,,,,,,,,,1,0,1,,-2448,16096,-1824,-158,-165,-208
