Time_Host,Time_Arduino,easingdata,CH1_Oxy,CH1_Deoxy,CH2_Oxy,CH2_Deoxy,CH3_Oxy,CH3_Deoxy,CH4_Oxy,CH4_Deoxy,CH1_PD730,CH1_PD850,CH2_PD730,CH2_PD850,CH3_PD730,CH3_PD850,CH4_PD730,CH4_PD850,Answers,airplane_playstate,trail_times,frameRate,Airplane X,Airplane Y,Correct,Wrong,Slow,AnswerRate,CorrectRate,VFTstates,VFTchoose,VFTCount,Culfstates,ax,ay,az,gx,gy,gz
1.418,0.04,0.00,0.00,0.00,0.00,0.00,0.00,0.00,0.00,0.00,94.00,414.00,336.00,569.00,994.00,2038.00,2132.00,3071.00,,,,,,,,,,,,0,0,0,,-1044,16116,2276,-79,233,-102
1.438,0.10,0.00,0.00,0.00,0.00,0.00,0.00,0.00,0.00,0.00,107.00,426.00,356.00,563.00,984.00,2062.00,2118.00,3099.00,,,,,,,,,,,,0,0,0,,-1088,16076,2292,-5,194,-110
1.458,0.15,0.00,0.00,0.00,0.00,0.00,0.00,0.00,0.00,0.00,95.00,427.00,350.00,575.00,963.00,2046.00,2110.00,3082.00,,,,,,,,,,,,0,0,0,,-940,16012,2304,-89,136,-164
1.479,0.21,0.00,0.00,0.00,0.00,0.00,0.00,0.00,0.00,0.00,94.00,427.00,336.00,576.00,978.00,2032.00,2126.00,3071.00,,,,,,,,,,,,0,0,0,,-904,16060,2280,-107,78,-185
1.499,0.26,0.00,0.00,0.00,0.00,0.00,0.00,0.00,0.00,0.00,103.00,417.00,347.00,561.00,986.00,2047.00,2123.00,3103.00,,,,,,,,,,,,0,0,0,,-956,16048,2184,-64,61,-150
1.519,1.06,0.00,0.00,0.00,0.00,0.00,0.00,0.00,0.00,0.00,80.00,384.00,368.00,618.00,958.00,2019.00,2078.00,3014.00,,,,,,,,,,,,0,0,0,,-996,15988,2416,-65,-4,-254
1.539,1.11,0.00,0.00,0.00,0.00,0.00,0.00,0.00,0.00,0.00,77.00,383.00,355.00,603.00,983.00,2014.00,2107.00,3026.00,,,,,,,,,,,,0,0,0,,-1088,16016,2456,-97,71,-151
1.642,1.17,0.00,0.00,0.00,0.00,0.00,0.00,0.00,0.00,0.00,82.00,383.00,381.00,590.00,975.00,2044.00,2085.00,3061.00,,,,,,,,,,,,0,0,0,,-980,16060,2412,-167,239,-167
1.663,1.22,0.00,0.00,0.00,0.00,0.00,0.00,0.00,0.00,0.00,79.00,385.00,369.00,622.00,961.00,2034.00,2086.00,3054.00,,,,,,,,,,,,0,0,0,,-1084,15896,2508,-186,213,-153
1.703,1.28,0.00,0.00,0.00,0.00,0.00,0.00,0.00,0.00,0.00,74.00,384.00,352.00,607.00,981.00,2032.00,2112.00,3046.00,,,,,,,,,,,,0,0,0,,-1076,16068,2560,-207,162,-128
1.764,1.33,-0.04,0.97,0.86,-0.62,0.68,-0.86,0.20,-0.33,0.21,83.00,379.00,346.00,592.00,981.00,2096.00,2096.00,3085.00,,,,,,,,,,,,0,0,0,,-1032,16024,2480,-153,144,-99
1.806,1.39,-0.08,-0.14,1.91,-0.38,-0.54,-0.74,0.54,-0.46,0.35,80.00,385.00,368.00,606.00,961.00,2067.00,2085.00,3089.00,,,,,,,,,,,,0,0,0,,-916,16124,2204,-148,56,-194
1.888,1.44,-0.07,-1.71,4.90,-1.21,0.56,0.06,0.01,0.16,0.01,70.00,378.00,352.00,608.00,975.00,2032.00,2101.00,3043.00,,,,,,,,,,,,0,0,0,,-1040,15920,2412,-146,102,-192
1.93,1.50,-0.06,-0.60,4.27,0.22,-0.48,0.09,-0.14,0.19,0.12,71.00,368.00,363.00,591.00,982.00,2037.00,2087.00,3030.00,,,,,,,,,,,,0,0,0,,-1136,15996,2588,-145,134,-254
2.012,1.55,-0.07,-0.28,3.40,0.33,-0.77,-0.30,0.28,0.14,0.25,74.00,372.00,368.00,593.00,967.00,2046.00,2074.00,3025.00,,,,,,,,,,,,0,0,0,,-988,15996,2468,-143,128,-181
2.033,1.61,-0.08,-1.50,5.10,-0.58,-0.11,-0.16,0.27,0.35,0.13,69.00,373.00,361.00,604.00,965.00,2035.00,2080.00,3010.00,,,,,,,,,,,,0,0,0,,-1036,15800,2444,-61,142,-246
2.094,1.66,-0.06,-0.10,3.84,-0.89,0.45,0.29,-0.32,0.33,-0.01,72.00,365.00,352.00,602.00,988.00,2031.00,2096.00,3024.00,,,,,,,,,,,,0,0,0,,-1008,15972,2420,-63,96,-175
2.136,1.72,-0.06,1.52,1.35,0.80,-1.28,-0.14,0.05,0.04,0.18,80.00,366.00,375.00,590.00,976.00,2045.00,2086.00,3043.00,,,,,,,,,,,,0,0,0,,-1032,15928,2276,-99,94,-104
2.198,1.77,-0.07,-2.20,5.34,-1.14,-0.03,-0.16,0.23,0.19,0.24,69.00,381.00,363.00,616.00,967.00,2037.00,2073.00,3020.00,,,,,,,,,,,,0,0,0,,-924,16040,2440,-138,23,-202
2.259,1.83,-0.05,6.50,-6.20,-0.41,0.19,0.37,-0.34,0.82,-0.17,110.00,368.00,354.00,595.00,988.00,2026.00,2096.00,2979.00,,,,,,,,,,,,0,0,0,,-968,15976,2340,-126,25,-239
2.363,1.88,-0.05,1.56,0.88,1.10,-1.28,-0.17,0.06,-0.10,0.23,82.00,370.00,373.00,583.00,976.00,2047.00,2085.00,3056.00,,,,,,,,,,,,0,0,0,,-1024,15912,2524,-86,41,-196
2.384,1.94,-0.07,-1.56,4.59,0.25,-0.85,-0.43,0.32,0.04,0.18,71.00,379.00,370.00,596.00,967.00,2054.00,2086.00,3043.00,,,,,,,,,,,,0,0,0,,-1092,15960,2436,-131,102,-155
2.426,1.99,-0.07,-1.62,4.88,-0.80,0.27,0.01,0.04,0.13,0.07,70.00,377.00,355.00,603.00,974.00,2034.00,2095.00,3041.00,,,,,,,,,,,,0,0,0,,-1028,15940,2344,-185,148,-163
2.488,2.05,-0.07,1.13,1.72,0.10,-0.19,-0.09,-0.04,-0.12,0.19,79.00,368.00,358.00,589.00,980.00,2046.00,2091.00,3062.00,,,,,,,,,,,,0,0,0,,-1000,15928,2472,-167,130,-136
2.549,2.10,-0.10,0.20,1.80,0.04,-1.22,-0.73,0.40,-0.38,0.33,80.00,381.00,379.00,607.00,968.00,2074.00,2085.00,3082.00,,,,,,,,,,,,0,0,0,,-1104,15844,2608,-89,137,-160
2.631,2.16,-0.12,-1.83,5.48,-1.79,0.45,-0.41,0.09,-0.31,0.19,68.00,374.00,358.00,624.00,979.00,2065.00,2098.00,3085.00,,,,,,,,,,,,0,0,0,,-968,16176,2564,-198,110,-114
2.651,2.21,-0.12,0.10,2.54,-0.44,-0.26,-0.13,-0.14,0.01,-0.01,77.00,375.00,363.00,603.00,986.00,2055.00,2109.00,3063.00,,,,,,,,,,,,0,0,0,,-1104,15980,2552,-136,114,-185
2.734,2.27,-0.13,0.98,1.53,2.33,-3.67,-0.43,0.24,-0.03,0.17,80.00,372.00,415.00,592.00,971.00,2058.00,2090.00,3053.00,,,,,,,,,,,,0,0,0,,-984,15884,2608,-77,131,-178
2.755,2.32,-0.14,-5.96,10.79,-0.97,-0.03,-0.21,0.36,0.22,0.22,55.00,382.00,362.00,612.00,961.00,2034.00,2075.00,3019.00,,,,,,,,,,,,0,0,0,,-1172,15972,2472,-48,151,-111
2.797,2.38,-0.12,-0.54,3.49,-0.33,0.32,0.28,-0.15,0.56,-0.04,74.00,375.00,351.00,591.00,979.00,2022.00,2091.00,2999.00,,,,,,,,,,,,0,0,0,,-1132,16028,2392,-109,151,-107
2.859,2.43,-0.12,2.51,-0.32,1.37,-1.22,-0.16,0.19,0.21,0.16,86.00,368.00,370.00,576.00,969.00,2039.00,2081.00,3024.00,,,,,,,,,,,,0,0,0,,-1080,16108,2536,-82,138,-46
2.919,2.49,-0.12,-1.54,4.07,-0.27,-0.01,-0.15,0.42,0.35,0.27,73.00,384.00,357.00,595.00,957.00,2026.00,2064.00,2999.00,,,,,,,,,,,,0,0,0,,-976,15920,2376,-81,125,-212
2.96,2.54,-0.10,-1.30,5.30,-0.62,0.68,0.21,0.10,0.41,0.08,68.00,368.00,346.00,592.00,967.00,2014.00,2083.00,3007.00,,,,,,,,,,,,0,0,0,,-1064,15996,2544,-110,169,-178
3.022,2.60,-0.09,0.29,2.96,1.15,-0.90,0.12,0.02,0.32,0.13,75.00,368.00,365.00,576.00,973.00,2026.00,2081.00,3014.00,,,,,,,,,,,,0,0,0,,-984,15964,2452,-87,155,-226
3.083,2.65,-0.10,-0.37,3.43,0.33,-0.77,-0.23,0.37,0.08,0.36,74.00,373.00,368.00,593.00,961.00,2035.00,2064.00,3024.00,,,,,,,,,,,,0,0,0,,-1008,15968,2472,-122,20,-122
3.145,2.71,-0.09,-0.15,3.11,-0.57,0.29,0.00,0.20,0.36,0.06,75.00,373.00,353.00,597.00,966.00,2026.00,2087.00,3014.00,,,,,,,,,,,,0,0,0,,-1036,15960,2548,-155,124,-171
3.226,2.76,-0.08,0.45,2.42,-0.11,-0.07,0.19,-0.15,-0.60,0.33,77.00,371.00,357.00,592.00,981.00,2030.00,2093.00,3109.00,,,,,,,,,,,,0,0,0,,-1052,15864,2608,-221,162,-184
3.287,2.82,-0.10,0.81,1.59,0.97,-1.34,-0.41,0.10,-0.11,0.16,80.00,374.00,375.00,587.00,978.00,2064.00,2094.00,3063.00,,,,,,,,,,,,0,0,0,,-972,15888,2460,-146,104,-128
3.307,2.87,-0.11,-2.25,4.82,-1.08,-0.30,-0.41,0.32,-0.00,0.09,71.00,387.00,368.00,619.00,967.00,2053.00,2098.00,3056.00,,,,,,,,,,,,0,0,0,,-1016,15996,2652,-92,119,-132
3.348,2.93,-0.10,-0.94,3.87,-0.69,0.23,0.22,-0.41,-0.02,-0.01,73.00,377.00,355.00,601.00,994.00,2041.00,2110.00,3066.00,,,,,,,,,,,,0,0,0,,-1008,15872,2428,-14,154,-99
3.45,2.98,-0.12,1.98,-0.14,0.95,-1.62,-0.58,0.14,-0.59,0.29,86.00,374.00,381.00,592.00,979.00,2076.00,2097.00,3111.00,,,,,,,,,,,,0,0,0,,-1028,16180,2508,-79,149,-197
3.471,3.04,-0.14,-1.48,3.31,-1.23,-0.20,-0.48,0.38,-0.11,0.26,76.00,391.00,367.00,621.00,965.00,2055.00,2082.00,3054.00,,,,,,,,,,,,0,0,0,,-1108,15904,2616,-110,140,-171
3.512,3.09,-0.12,-1.50,5.10,-1.06,0.78,0.18,0.02,0.45,-0.00,69.00,373.00,347.00,601.00,972.00,2021.00,2091.00,3009.00,,,,,,,,,,,,0,0,0,,-996,15932,2616,-72,140,-213
3.573,3.15,-0.11,0.90,2.27,0.73,-0.35,0.07,0.10,0.27,0.29,77.00,366.00,357.00,577.00,970.00,2026.00,2065.00,3007.00,,,,,,,,,,,,0,0,0,,-1068,16060,2508,-108,125,-143
3.635,3.20,-0.11,-1.85,5.22,0.50,-0.58,-0.17,0.50,0.41,0.29,69.00,377.00,363.00,586.00,953.00,2023.00,2059.00,2990.00,,,,,,,,,,,,0,0,0,,-932,15988,2676,-159,121,-194
3.698,3.26,-0.09,-1.42,5.07,-0.48,0.47,0.41,0.04,0.72,0.10,69.00,372.00,349.00,592.00,967.00,2002.00,2069.00,2969.00,,,,,,,,,,,,0,0,0,,-1064,15852,2568,-142,143,-115
3.739,3.31,-0.07,-0.97,4.92,0.86,-0.08,0.38,-0.14,0.52,0.15,69.00,367.00,351.00,570.00,977.00,2014.00,2071.00,2988.00,,,,,,,,,,,,0,0,0,,-1036,15856,2520,-192,103,-189
3.824,3.37,-0.06,1.54,1.12,1.50,-1.42,-0.03,0.30,0.38,0.27,81.00,368.00,373.00,576.00,961.00,2023.00,2063.00,2995.00,,,,,,,,,,,,0,0,0,,-952,16008,2676,-312,48,-277
3.844,3.42,-0.06,-1.74,5.45,-0.49,0.06,-0.00,0.39,0.42,0.22,68.00,373.00,357.00,599.00,956.00,2016.00,2067.00,2995.00,,,,,,,,,,,,0,0,0,,-1032,15972,2620,-228,17,-302
3.928,3.48,-0.03,-0.51,4.24,-0.15,0.31,0.51,-0.26,0.66,-0.10,71.00,367.00,350.00,587.00,981.00,2010.00,2094.00,2992.00,,,,,,,,,,,,0,0,0,,-1192,15956,2644,-225,36,-280
3.988,3.53,-0.03,1.34,1.41,1.63,-1.61,0.07,-0.02,0.12,0.26,80.00,368.00,376.00,576.00,976.00,2032.00,2074.00,3027.00,,,,,,,,,,,,0,0,0,,-1064,15860,2552,-259,12,-239
4.009,3.59,-0.04,-0.72,3.05,-0.77,0.15,-0.23,0.49,0.26,0.22,76.00,382.00,357.00,604.00,955.00,2029.00,2073.00,3014.00,,,,,,,,,,,,0,0,0,,-1040,15996,2616,-128,34,-84
4.069,3.64,-0.02,-0.10,3.34,-0.15,-0.00,0.25,-0.08,0.42,-0.13,74.00,370.00,356.00,592.00,976.00,2021.00,2106.00,3022.00,,,,,,,,,,,,0,0,0,,-1088,15852,2696,-107,188,-163
4.132,3.70,-0.02,1.54,1.12,0.69,-0.54,0.06,-0.01,0.00,0.19,81.00,368.00,361.00,581.00,976.00,2033.00,2086.00,3047.00,,,,,,,,,,,,0,0,0,,-1064,15936,2724,-191,102,-123
4.193,3.75,-0.04,-0.07,2.60,1.12,-0.79,-0.36,0.45,-0.11,0.31,77.00,377.00,363.00,575.00,959.00,2041.00,2077.00,3051.00,,,,,,,,,,,,0,0,0,,-1028,15804,2708,-95,140,-171
4.234,3.81,-0.03,-0.20,2.88,-0.75,0.25,0.02,0.09,-0.18,0.16,76.00,376.00,355.00,602.00,971.00,2030.00,2096.00,3071.00,,,,,,,,,,,,0,0,0,,-1064,16152,2696,-123,168,-86
4.296,3.86,-0.02,0.93,2.02,0.08,-0.29,0.22,-0.24,0.14,0.05,78.00,368.00,360.00,591.00,985.00,2032.00,2096.00,3041.00,,,,,,,,,,,,0,0,0,,-1080,15840,2716,-122,106,-146
4.338,3.92,-0.03,0.69,1.86,0.66,-0.89,-0.29,0.41,0.23,0.29,79.00,373.00,368.00,587.00,960.00,2038.00,2066.00,3011.00,,,,,,,,,,,,0,0,0,,-1192,15916,2724,-119,148,-220
4.399,3.97,-0.03,-1.09,4.70,-0.38,0.34,0.13,0.23,0.78,0.11,70.00,371.00,351.00,592.00,962.00,2014.00,2065.00,2960.00,,,,,,,,,,,,0,0,0,,-1112,15984,2648,-97,221,-130
4.461,4.03,0.01,1.34,1.41,0.28,0.06,0.61,-0.22,0.66,0.06,80.00,368.00,352.00,581.00,977.00,2000.00,2076.00,2979.00,,,,,,,,,,,,0,0,0,,-1164,15888,2664,-156,188,-140
4.604,4.08,0.01,1.34,1.41,1.90,-1.35,0.13,0.17,0.52,0.22,80.00,368.00,369.00,566.00,965.00,2017.00,2063.00,2983.00,,,,,,,,,,,,0,0,0,,-1096,15796,2656,-135,145,-47
4.625,4.14,0.02,0.15,2.76,-0.29,0.20,0.17,0.39,0.63,0.19,76.00,372.00,353.00,592.00,953.00,2002.00,2063.00,2973.00,,,,,,,,,,,,0,0,0,,-1144,15852,2700,-54,173,-79
4.644,4.19,0.06,-0.24,3.64,0.06,0.51,0.87,-0.33,0.84,-0.05,73.00,369.00,345.00,579.00,978.00,1985.00,2081.00,2966.00,,,,,,,,,,,,0,0,0,,-1024,15972,2760,-39,107,-144
4.665,4.25,0.08,2.01,0.73,1.39,-0.93,0.32,0.16,0.51,0.23,82.00,365.00,364.00,571.00,962.00,2002.00,2062.00,2983.00,,,,,,,,,,,,0,0,0,,-980,15916,2752,-85,73,-229
4.727,4.30,0.07,-2.40,6.22,0.48,-0.37,-0.01,0.59,0.45,0.26,66.00,375.00,359.00,583.00,946.00,2006.00,2061.00,2988.00,,,,,,,,,,,,0,0,0,,-1148,15872,2584,-49,22,-231
4.791,4.36,0.09,-2.03,6.38,-0.61,1.06,0.44,0.16,0.64,0.13,65.00,368.00,339.00,586.00,960.00,1993.00,2069.00,2976.00,,,,,,,,,,,,0,0,0,,-1092,15908,2668,-71,110,-209
4.852,4.41,0.10,1.02,1.99,0.89,-0.20,0.29,0.12,0.39,0.13,78.00,367.00,353.00,571.00,965.00,2007.00,2078.00,3005.00,,,,,,,,,,,,0,0,0,,-1176,15960,2584,-61,177,-167
4.934,4.47,0.09,-0.60,4.27,1.11,-1.04,-0.16,0.56,0.20,0.30,71.00,368.00,368.00,579.00,950.00,2019.00,2066.00,3014.00,,,,,,,,,,,,0,0,0,,-1092,15880,2608,-117,177,-138
4.954,4.52,0.09,-2.91,6.68,-0.75,0.57,0.04,0.35,0.31,0.10,65.00,378.00,349.00,597.00,957.00,2014.00,2084.00,3017.00,,,,,,,,,,,,0,0,0,,-1064,15976,2680,-68,112,-73
4.996,4.58,0.10,0.48,2.17,-0.35,0.22,0.36,-0.15,0.26,0.01,78.00,373.00,353.00,593.00,978.00,2016.00,2096.00,3030.00,,,,,,,,,,,,0,0,0,,-1064,15920,2600,-24,184,-202
5.06,4.63,0.09,0.19,2.51,1.42,-1.69,-0.12,0.14,-0.14,0.26,77.00,374.00,379.00,582.00,971.00,2039.00,2084.00,3059.00,,,,,,,,,,,,0,0,0,,-1044,15940,2592,-137,47,-273
5.12,4.69,0.08,-1.91,3.95,-0.75,-0.06,-0.07,0.31,0.29,0.12,74.00,391.00,361.00,607.00,961.00,2025.00,2083.00,3018.00,,,,,,,,,,,,0,0,0,,-1032,15920,2608,-134,109,-170
5.204,4.74,0.11,-0.06,3.08,-0.57,0.61,0.63,-0.24,0.72,-0.13,75.00,372.00,347.00,592.00,978.00,2000.00,2095.00,2987.00,,,,,,,,,,,,0,0,0,,-1152,15744,2652,-127,103,-212
5.246,4.80,0.10,2.02,0.50,1.55,-1.24,0.05,0.20,0.39,0.23,83.00,367.00,369.00,572.00,965.00,2022.00,2067.00,2997.00,,,,,,,,,,,,0,0,0,,-1012,15940,2632,-160,99,-126
5.288,4.85,0.11,-0.86,4.36,0.35,-0.68,0.16,0.37,0.63,0.17,71.00,371.00,366.00,591.00,954.00,2004.00,2064.00,2973.00,,,,,,,,,,,,0,0,0,,-1076,15792,2832,-117,136,-205
5.35,4.91,0.13,-1.03,5.21,-0.30,0.79,0.59,0.02,0.78,-0.02,68.00,365.00,342.00,583.00,965.00,1989.00,2080.00,2971.00,,,,,,,,,,,,0,0,0,,-1040,15808,2692,-64,137,-151
5.411,4.96,0.14,1.94,1.44,0.31,-0.05,0.36,-0.06,1.20,-0.07,79.00,359.00,354.00,582.00,973.00,2011.00,2070.00,2926.00,,,,,,,,,,,,0,0,0,,-1016,15824,2612,-158,97,-142
5.431,5.02,0.14,-0.28,3.40,0.77,-0.46,0.18,0.31,0.35,0.36,74.00,372.00,359.00,578.00,957.00,2006.00,2054.00,2992.00,,,,,,,,,,,,0,0,0,,-1028,15928,2768,-173,49,-181
5.513,5.07,0.16,-2.14,6.14,-0.62,0.68,0.42,0.17,0.52,0.17,66.00,372.00,346.00,592.00,960.00,1994.00,2069.00,2987.00,,,,,,,,,,,,0,0,0,,-1076,15884,2724,-103,90,-248
5.553,5.13,0.18,0.93,2.02,0.50,-0.01,0.58,-0.19,0.50,0.04,78.00,368.00,352.00,577.00,976.00,2001.00,2084.00,2999.00,,,,,,,,,,,,0,0,0,,-1024,15832,2588,-60,54,-134
5.614,5.18,0.17,0.54,2.39,1.41,-1.29,-0.10,0.32,0.22,0.20,77.00,370.00,371.00,576.00,961.00,2027.00,2077.00,3020.00,,,,,,,,,,,,0,0,0,,-1104,15800,2832,-152,149,-140
5.657,5.24,0.16,3.81,-3.72,-0.57,-0.02,0.05,0.33,0.26,0.16,101.00,383.00,359.00,602.00,958.00,2015.00,2080.00,3019.00,,,,,,,,,,,,0,0,0,,-1052,15920,2744,-151,200,-141
5.717,5.29,0.18,-0.64,4.02,-0.21,0.02,0.58,-0.24,0.26,-0.05,72.00,371.00,356.00,593.00,979.00,2004.00,2103.00,3035.00,,,,,,,,,,,,0,0,0,,-1088,15936,2728,-166,119,-115
5.778,5.35,0.17,1.95,0.31,1.29,-1.30,0.06,-0.01,-0.11,0.23,84.00,370.00,372.00,579.00,976.00,2033.00,2086.00,3057.00,,,,,,,,,,,,0,0,0,,-1148,15796,2672,-76,89,-70
5.839,5.40,0.15,-0.14,1.91,0.59,-2.03,-0.23,0.39,-0.12,0.21,80.00,385.00,392.00,607.00,960.00,2034.00,2088.00,3060.00,,,,,,,,,,,,0,0,0,,-1008,16088,2796,-76,91,-146
5.901,5.46,0.16,1.16,1.47,-0.71,0.50,0.33,-0.01,0.16,0.06,80.00,370.00,350.00,597.00,971.00,2011.00,2095.00,3039.00,,,,,,,,,,,,0,0,0,,-1140,15940,2728,-52,76,-178
5.962,5.51,0.17,0.72,2.33,1.31,-0.75,0.33,-0.07,0.21,0.23,77.00,368.00,361.00,570.00,974.00,2014.00,2074.00,3019.00,,,,,,,,,,,,0,0,0,,-1028,15944,2616,-76,132,-240
6.024,5.57,0.16,-0.24,3.64,0.63,-0.52,0.01,0.48,0.37,0.31,73.00,369.00,361.00,582.00,951.00,2010.00,2059.00,2993.00,,,,,,,,,,,,0,0,0,,-964,15964,2504,-64,116,-155
6.045,5.62,0.18,-1.15,4.98,-0.73,1.10,0.49,0.24,0.75,0.04,69.00,369.00,339.00,588.00,955.00,1985.00,2075.00,2970.00,,,,,,,,,,,,0,0,0,,-1084,15928,2700,-104,61,-199
6.107,5.68,0.20,0.74,2.81,0.87,-0.03,0.67,-0.11,0.68,0.06,75.00,363.00,350.00,569.00,970.00,1989.00,2075.00,2977.00,,,,,,,,,,,,0,0,0,,-1096,16008,2704,-84,145,-104
6.168,5.73,0.20,0.93,2.02,1.09,-0.88,0.19,0.27,0.41,0.25,78.00,368.00,365.00,577.00,959.00,2007.00,2064.00,2993.00,,,,,,,,,,,,0,0,0,,-1116,15912,2612,-60,136,-213
6.21,5.79,0.20,-0.46,3.46,-0.53,0.49,0.22,0.41,0.58,0.17,74.00,374.00,349.00,593.00,951.00,1997.00,2066.00,2979.00,,,,,,,,,,,,0,0,0,,-1048,15928,2684,-74,86,-165
6.271,5.84,0.22,0.11,3.02,0.14,0.59,0.49,-0.18,0.62,-0.02,75.00,370.00,343.00,576.00,977.00,2007.00,2087.00,2991.00,,,,,,,,,,,,0,0,0,,-1136,15848,2716,-63,58,-224
6.333,5.90,0.21,2.88,-0.87,4.06,-2.38,0.01,0.35,0.15,0.28,88.00,368.00,375.00,534.00,958.00,2017.00,2070.00,3022.00,,,,,,,,,,,,0,0,0,,-1192,15828,2744,-96,48,-168
6.394,5.95,0.20,-0.63,3.02,-0.31,-0.20,0.07,0.46,0.26,0.24,76.00,381.00,361.00,599.00,951.00,2006.00,2071.00,3012.00,,,,,,,,,,,,0,0,0,,-1128,15912,2572,-111,129,-144
6.476,6.01,0.22,-1.54,5.66,-1.21,0.94,0.58,-0.17,0.43,-0.04,67.00,368.00,345.00,602.00,975.00,2000.00,2096.00,3014.00,,,,,,,,,,,,0,0,0,,-1112,15796,2580,-117,139,-156
6.496,6.06,0.22,0.87,1.81,0.88,-0.50,0.21,0.07,0.12,0.16,79.00,371.00,359.00,576.00,969.00,2016.00,2085.00,3035.00,,,,,,,,,,,,0,0,0,,-1160,15920,2832,-121,109,-123
6.559,6.12,0.19,-1.68,5.16,0.34,-0.73,-0.37,0.63,-0.09,0.32,69.00,375.00,367.00,592.00,950.00,2032.00,2075.00,3047.00,,,,,,,,,,,,0,0,0,,-1000,15940,2788,-78,104,-167
6.6,6.17,0.19,-1.56,5.39,-0.93,0.52,0.22,0.01,0.08,0.08,68.00,371.00,351.00,602.00,972.00,2019.00,2095.00,3046.00,,,,,,,,,,,,0,0,0,,-1128,15888,2804,-48,182,-121
6.662,6.23,0.19,1.19,1.93,-0.07,0.13,0.14,-0.08,-0.18,0.18,78.00,365.00,353.00,588.00,978.00,2030.00,2094.00,3070.00,,,,,,,,,,,,0,0,0,,-1092,16216,2568,-161,120,-208
6.702,6.28,0.17,-0.29,2.91,0.33,-0.77,-0.21,0.27,-0.09,0.22,76.00,377.00,368.00,593.00,966.00,2039.00,2086.00,3055.00,,,,,,,,,,,,0,0,0,,-1188,15876,2620,-169,139,-124
6.763,6.34,0.16,-0.76,3.81,-0.58,0.20,0.06,0.31,0.33,0.19,73.00,375.00,355.00,599.00,959.00,2015.00,2074.00,3008.00,,,,,,,,,,,,0,0,0,,-1200,15928,2744,-74,164,-196
6.844,6.39,0.19,-1.54,5.66,-0.04,0.28,0.64,-0.17,0.52,-0.01,67.00,368.00,350.00,585.00,974.00,1995.00,2089.00,3001.00,,,,,,,,,,,,0,0,0,,-1040,15824,2744,-52,186,-129
6.865,6.45,0.18,1.60,1.32,1.62,-1.21,0.13,0.17,0.27,0.30,80.00,365.00,368.00,570.00,965.00,2017.00,2064.00,3006.00,,,,,,,,,,,,0,0,0,,-1080,15920,2744,-117,145,-141
6.927,6.50,0.18,-1.65,4.62,-0.24,-0.13,0.15,0.55,0.55,0.25,71.00,380.00,359.00,596.00,945.00,1995.00,2059.00,2977.00,,,,,,,,,,,,0,0,0,,-1040,15812,2792,-85,186,-80
6.989,6.56,0.21,-1.89,5.78,-0.18,0.80,0.74,-0.07,0.90,-0.13,67.00,372.00,341.00,580.00,967.00,1982.00,2088.00,2966.00,,,,,,,,,,,,0,0,0,,-1092,15856,2752,-69,167,-180
7.052,6.61,0.22,1.52,1.35,1.04,-0.35,0.41,0.14,0.41,0.24,80.00,366.00,355.00,570.00,962.00,1997.00,2065.00,2994.00,,,,,,,,,,,,0,0,0,,-1184,15984,2724,-119,95,-155
7.156,6.67,0.22,0.93,2.02,0.84,-0.64,0.27,0.34,0.52,0.21,78.00,368.00,362.00,579.00,954.00,1997.00,2064.00,2983.00,,,,,,,,,,,,0,0,0,,-1188,15852,2728,-95,84,-260
7.177,6.72,0.23,-1.06,4.95,-0.49,1.07,0.44,0.24,0.59,0.09,69.00,368.00,338.00,583.00,956.00,1989.00,2075.00,2985.00,,,,,,,,,,,,0,0,0,,-1260,15876,2848,-3,23,-178
7.219,6.78,0.24,1.34,1.41,0.85,-0.13,0.43,0.03,0.36,0.13,80.00,368.00,352.00,571.00,967.00,2001.00,2079.00,3009.00,,,,,,,,,,,,0,0,0,,-1292,15876,2700,-34,144,-161
7.302,6.83,0.22,1.16,1.47,1.00,-1.00,-0.15,0.54,0.07,0.36,80.00,370.00,368.00,581.00,951.00,2020.00,2064.00,3025.00,,,,,,,,,,,,0,0,0,,-1076,15840,2740,-95,184,-163
7.323,6.89,0.21,-1.42,5.07,-0.40,0.24,-0.15,0.36,0.21,0.16,69.00,372.00,353.00,594.00,960.00,2029.00,2081.00,3024.00,,,,,,,,,,,,0,0,0,,-1152,15944,2828,-123,154,-124
7.363,6.94,0.21,-1.22,4.48,-0.02,-0.20,0.35,-0.11,0.09,0.10,71.00,375.00,359.00,592.00,976.00,2015.00,2093.00,3044.00,,,,,,,,,,,,0,0,0,,-1164,15916,2800,-203,103,-179
7.425,7.00,0.18,1.74,0.82,0.76,-1.22,-0.35,0.33,-0.41,0.33,82.00,368.00,374.00,590.00,965.00,2047.00,2086.00,3085.00,,,,,,,,,,,,0,0,0,,-1112,16000,2808,-301,115,-303
7.508,7.05,0.16,-1.19,3.46,-0.74,-0.31,-0.23,0.33,-0.23,0.24,75.00,385.00,366.00,611.00,963.00,2037.00,2089.00,3071.00,,,,,,,,,,,,0,0,0,,-1096,16048,2712,-568,55,-271
7.527,7.11,0.18,-2.14,6.14,-0.71,0.45,0.48,-0.40,0.02,-0.01,66.00,372.00,351.00,598.00,989.00,2020.00,2108.00,3061.00,,,,,,,,,,,,0,0,0,,-1140,16048,2844,-618,-68,-511
7.588,7.16,0.18,1.38,0.94,1.24,-1.03,0.12,0.10,0.07,0.24,82.00,372.00,367.00,576.00,969.00,2022.00,2078.00,3035.00,,,,,,,,,,,,0,0,0,,-1156,15800,2492,-725,-350,-698
7.65,7.22,0.17,-1.04,4.42,0.43,-0.61,-0.04,0.46,0.27,0.34,71.00,373.00,364.00,588.00,953.00,2015.00,2059.00,3003.00,,,,,,,,,,,,0,0,0,,-1184,15516,3168,-933,-779,-716
7.691,7.27,0.19,-1.30,5.30,-1.00,1.24,0.64,-0.02,0.55,0.18,68.00,368.00,338.00,592.00,966.00,1987.00,2067.00,2983.00,,,,,,,,,,,,0,0,0,,-1460,15912,3380,-295,-297,-379
7.752,7.33,0.20,1.22,1.69,1.01,0.03,0.37,0.15,0.42,0.29,79.00,367.00,348.00,565.00,962.00,1999.00,2059.00,2989.00,,,,,,,,,,,,0,0,0,,-1268,15768,3196,-169,238,-182
7.815,7.38,0.24,0.42,2.67,0.78,-0.42,1.05,-0.83,0.37,0.43,76.00,369.00,358.00,577.00,1002.00,1998.00,2045.00,2983.00,,,,,,,,,,,,0,0,0,,-1212,15696,3140,-385,178,-251
7.877,7.44,0.25,-2.28,6.75,-0.80,1.01,0.44,0.16,0.64,0.18,64.00,368.00,341.00,591.00,960.00,1993.00,2063.00,2972.00,,,,,,,,,,,,0,0,0,,-1104,15788,3144,-611,123,-355
7.918,7.49,0.27,0.52,3.13,0.38,0.29,0.69,-0.04,0.48,0.22,74.00,363.00,347.00,575.00,966.00,1984.00,2065.00,2988.00,,,,,,,,,,,,0,0,0,,-1196,15684,3188,-474,195,-441
7.979,7.55,0.26,1.47,2.56,1.22,-1.08,0.08,0.32,0.17,0.33,75.00,355.00,368.00,577.00,958.00,2013.00,2064.00,3015.00,,,,,,,,,,,,0,0,0,,-1348,15604,3148,-153,181,-180
8.021,7.60,0.27,-2.10,6.69,-0.45,0.31,0.43,-0.08,0.34,0.28,64.00,366.00,352.00,594.00,973.00,2007.00,2063.00,2999.00,,,,,,,,,,,,0,0,0,,-1320,15796,3184,-34,126,-54
8.084,7.66,0.28,-1.10,6.36,-0.28,0.57,0.49,-0.12,1.83,-0.47,64.00,355.00,346.00,586.00,974.00,2004.00,2091.00,2885.00,,,,,,,,,,,,0,0,0,,-1332,15772,3188,50,198,-78
8.167,7.71,0.26,0.40,3.94,1.17,-1.06,-0.08,0.32,-0.13,0.30,71.00,357.00,368.00,578.00,961.00,2026.00,2078.00,3053.00,,,,,,,,,,,,0,0,0,,-1276,15752,3200,14,110,-12
8.23,7.77,0.25,-1.22,4.48,-0.65,0.17,-0.10,0.46,-0.05,0.36,71.00,375.00,356.00,601.00,954.00,2020.00,2069.00,3039.00,,,,,,,,,,,,0,0,0,,-1308,15724,3068,-21,49,-35
8.251,7.82,0.25,-1.18,4.73,-1.32,1.40,0.24,0.13,0.11,0.11,70.00,372.00,337.00,597.00,965.00,2010.00,2091.00,3040.00,,,,,,,,,,,,0,0,0,,-1252,15648,3268,-6,95,34
8.292,7.88,0.23,0.45,2.42,0.37,-0.33,-0.08,0.24,-0.35,0.27,77.00,371.00,359.00,585.00,965.00,2030.00,2090.00,3083.00,,,,,,,,,,,,0,0,0,,-1200,16064,3100,-59,159,-154
8.395,7.93,0.21,-0.42,2.71,0.25,-0.60,-0.18,0.47,-0.15,0.40,77.00,381.00,365.00,592.00,955.00,2026.00,2068.00,3048.00,,,,,,,,,,,,0,0,0,,-1228,15756,3148,-164,127,-231
8.415,7.99,0.26,-1.04,4.42,-0.94,0.84,1.29,-1.13,0.39,0.17,71.00,373.00,345.00,597.00,1014.00,1995.00,2074.00,3002.00,,,,,,,,,,,,0,0,0,,-1276,15748,3016,-91,121,-260
8.476,8.04,0.27,1.25,1.44,0.36,0.19,0.42,0.09,0.38,0.23,80.00,369.00,349.00,577.00,964.00,1998.00,2067.00,2998.00,,,,,,,,,,,,0,0,0,,-1264,15740,3296,-165,24,-217
8.517,8.10,0.27,-0.15,3.11,1.10,-0.83,0.22,0.29,0.24,0.36,75.00,373.00,364.00,576.00,957.00,2003.00,2058.00,3005.00,,,,,,,,,,,,0,0,0,,-1416,15776,3224,-103,100,-254
8.622,8.15,0.26,-0.59,2.77,-0.54,0.44,0.12,0.48,0.27,0.36,77.00,383.00,350.00,594.00,949.00,2001.00,2057.00,3001.00,,,,,,,,,,,,0,0,0,,-1256,15768,3188,-61,171,-296
8.642,8.21,0.28,-1.15,4.98,-0.14,0.68,0.61,-0.08,0.52,0.02,69.00,369.00,343.00,581.00,970.00,1993.00,2085.00,2998.00,,,,,,,,,,,,0,0,0,,-1216,15832,3124,-100,121,-140
8.706,8.26,0.27,3.16,-1.37,1.37,-1.22,0.16,0.20,0.15,0.32,90.00,369.00,370.00,576.00,963.00,2013.00,2066.00,3019.00,,,,,,,,,,,,0,0,0,,-1288,15904,3300,-154,26,-220
8.766,8.32,0.26,-0.80,3.08,1.39,-0.68,0.07,0.48,0.24,0.31,76.00,383.00,359.00,567.00,950.00,2005.00,2064.00,3009.00,,,,,,,,,,,,0,0,0,,-1304,15836,3164,-166,-2,-265
8.807,8.37,0.27,0.63,2.36,-0.37,0.44,0.47,0.06,0.35,0.12,77.00,369.00,349.00,590.00,965.00,1996.00,2081.00,3011.00,,,,,,,,,,,,0,0,0,,-1312,15768,3208,-179,-37,-197
8.867,8.43,0.27,0.33,2.70,0.88,-0.24,0.20,0.07,-0.03,0.34,76.00,370.00,354.00,572.00,969.00,2017.00,2070.00,3038.00,,,,,,,,,,,,0,0,0,,-1376,15808,3368,-184,-70,-169
8.968,8.48,0.24,-1.54,4.07,0.17,-0.42,-0.32,0.59,-0.14,0.43,73.00,384.00,362.00,591.00,951.00,2030.00,2065.00,3045.00,,,,,,,,,,,,0,0,0,,-1232,15776,3276,-52,-152,-107
8.988,8.54,0.23,-1.83,5.48,-1.27,1.33,-0.00,0.33,-0.02,0.21,68.00,374.00,338.00,597.00,959.00,2019.00,2084.00,3047.00,,,,,,,,,,,,0,0,0,,-1196,15740,3396,17,-163,-33
9.03,8.59,0.22,1.34,1.41,0.51,-0.53,0.15,-0.10,-0.23,0.24,80.00,368.00,362.00,585.00,979.00,2030.00,2089.00,3071.00,,,,,,,,,,,,0,0,0,,-1296,15760,3272,145,-98,-146
9.091,8.65,0.19,1.51,0.46,0.65,-1.18,-0.45,0.35,-0.56,0.42,84.00,375.00,374.00,592.00,966.00,2054.00,2082.00,3097.00,,,,,,,,,,,,0,0,0,,-1088,16000,3204,54,-33,-36
9.152,8.70,0.17,0.69,1.86,-1.06,-0.21,-0.27,0.27,-0.41,0.34,79.00,373.00,366.00,617.00,967.00,2044.00,2085.00,3085.00,,,,,,,,,,,,0,0,0,,-1220,15840,3180,54,-56,-159
9.194,8.76,0.17,-0.25,4.68,-0.54,0.44,0.30,-0.15,0.16,0.13,69.00,359.00,350.00,594.00,979.00,2021.00,2087.00,3033.00,,,,,,,,,,,,0,0,0,,-1216,15832,3264,30,-19,-326
9.256,8.81,0.15,2.10,1.62,1.16,-1.30,-0.22,0.27,-0.03,0.40,78.00,355.00,373.00,582.00,966.00,2040.00,2064.00,3034.00,,,,,,,,,,,,0,0,0,,-1232,15864,3208,-35,2,-297
9.337,8.87,0.14,-1.83,6.60,-0.71,0.14,-0.17,0.42,0.19,0.35,64.00,363.00,357.00,603.00,957.00,2027.00,2061.00,3011.00,,,,,,,,,,,,0,0,0,,-1240,15864,3120,-157,74,-335
9.358,8.92,0.15,-1.22,7.59,-0.72,1.15,0.31,-0.10,0.46,0.12,60.00,345.00,338.00,587.00,976.00,2017.00,2076.00,2997.00,,,,,,,,,,,,0,0,0,,-1352,15808,3216,-213,168,-261
9.398,8.98,0.14,1.05,4.79,1.13,-0.74,-0.03,0.11,0.04,0.37,67.00,340.00,362.00,574.00,971.00,2033.00,2064.00,3027.00,,,,,,,,,,,,0,0,0,,-1432,15692,3232,-133,155,-274
9.46,9.03,0.11,-0.55,6.17,0.62,-0.57,-0.47,0.53,0.14,0.40,64.00,349.00,362.00,583.00,957.00,2046.00,2057.00,3013.00,,,,,,,,,,,,0,0,0,,-1440,15872,3200,-160,59,-91
9.522,9.09,0.11,-4.32,11.63,-1.16,1.30,0.05,0.26,0.34,0.10,51.00,350.00,338.00,595.00,962.00,2019.00,2083.00,3013.00,,,,,,,,,,,,0,0,0,,-1288,15776,3144,-84,-5,-104
9.585,9.14,0.11,-0.51,5.59,0.47,-0.16,0.14,-0.10,0.05,0.26,66.00,354.00,355.00,580.00,979.00,2031.00,2076.00,3035.00,,,,,,,,,,,,0,0,0,,-1320,15752,3272,-37,16,-71
9.626,9.20,0.08,0.34,3.19,0.71,-0.95,-0.50,0.42,-0.24,0.45,74.00,365.00,369.00,587.00,963.00,2054.00,2066.00,3055.00,,,,,,,,,,,,0,0,0,,-1292,15720,3280,-136,209,-104
9.708,9.25,0.06,-0.60,4.27,-0.79,0.32,-0.16,0.29,-0.17,0.35,71.00,368.00,354.00,602.00,964.00,2034.00,2075.00,3055.00,,,,,,,,,,,,0,0,0,,-1292,15680,3024,-134,215,-97
9.728,9.31,0.06,-0.15,3.61,-0.05,-0.34,0.03,-0.08,-0.13,0.15,73.00,368.00,362.00,595.00,980.00,2039.00,2096.00,3066.00,,,,,,,,,,,,0,0,0,,-1256,15844,3116,-152,139,-73
9.789,9.36,0.03,0.29,2.96,0.15,-0.77,-0.64,0.22,-0.62,0.43,75.00,368.00,369.00,597.00,976.00,2077.00,2083.00,3103.00,,,,,,,,,,,,0,0,0,,-1280,15776,3340,-135,176,-74
9.851,9.42,-0.00,-1.59,4.35,-1.30,0.03,-0.61,0.40,-0.53,0.40,72.00,382.00,363.00,619.00,966.00,2064.00,2083.00,3095.00,,,,,,,,,,,,0,0,0,,-1172,15696,3220,-117,265,-69
9.911,9.47,-0.02,-1.68,5.16,-1.59,0.69,-0.36,0.01,-0.41,0.11,69.00,375.00,352.00,615.00,982.00,2065.00,2111.00,3104.00,,,,,,,,,,,,0,0,0,,-1216,16004,3020,-105,203,-88
9.993,9.53,-0.04,1.12,1.03,0.52,-0.99,-0.47,0.16,-0.64,0.41,82.00,375.00,371.00,592.00,976.00,2066.00,2086.00,3107.00,,,,,,,,,,,,0,0,0,,-1220,15848,3312,-200,156,-123
10.014,9.58,-0.07,-2.00,5.54,-0.63,-0.05,-0.54,0.61,-0.40,0.69,68.00,376.00,360.00,604.00,954.00,2047.00,2045.00,3054.00,,,,,,,,,,,,0,0,0,,-1188,15796,3088,-158,166,-188
10.077,9.64,-0.05,-1.54,5.66,-0.95,1.17,0.21,0.05,0.32,0.16,67.00,368.00,339.00,592.00,970.00,2017.00,2078.00,3012.00,,,,,,,,,,,,0,0,0,,-1220,15852,3244,-164,208,-181
10.138,9.69,-0.05,1.54,1.12,0.66,-0.12,0.09,-0.02,0.10,0.33,81.00,368.00,353.00,575.00,976.00,2031.00,2066.00,3023.00,,,,,,,,,,,,0,0,0,,-1236,15804,3332,-133,69,-210
10.178,9.75,-0.06,0.07,3.28,0.09,-0.24,-0.38,0.65,0.02,0.57,74.00,368.00,359.00,590.00,949.00,2032.00,2043.00,3014.00,,,,,,,,,,,,0,0,0,,-1196,15744,3292,-118,104,-121
10.241,9.80,-0.05,-1.63,5.69,-0.78,0.74,0.16,0.16,0.28,0.26,67.00,369.00,346.00,595.00,965.00,2015.00,2067.00,3007.00,,,,,,,,,,,,0,0,0,,-1264,15668,3328,-31,146,-176
10.304,9.86,-0.04,-4.74,10.38,0.44,-0.04,0.25,-0.08,0.16,0.28,55.00,368.00,353.00,579.00,976.00,2021.00,2070.00,3021.00,,,,,,,,,,,,0,0,0,,-1220,15800,3176,-102,144,-167
10.344,9.91,-0.05,-0.15,3.11,1.00,-1.00,-0.32,0.36,-0.08,0.39,75.00,373.00,368.00,581.00,963.00,2043.00,2067.00,3041.00,,,,,,,,,,,,0,0,0,,-1304,15800,3036,-110,81,-321
10.446,9.97,-0.06,-1.63,4.10,-1.13,0.38,-0.23,0.45,-0.06,0.41,73.00,385.00,355.00,609.00,957.00,2031.00,2064.00,3037.00,,,,,,,,,,,,0,0,0,,-1396,15692,3272,-94,-19,-231
10.467,10.02,-0.05,-1.68,5.16,0.33,-1.02,0.10,-0.05,0.07,0.11,69.00,375.00,373.00,597.00,977.00,2031.00,2093.00,3046.00,,,,,,,,,,,,0,0,0,,-1392,15824,3316,-40,84,-252
10.509,10.08,-0.09,1.30,0.97,0.77,-0.92,-0.71,0.36,-0.54,0.42,82.00,373.00,368.00,585.00,970.00,2075.00,2080.00,3093.00,,,,,,,,,,,,0,0,0,,-1348,15692,3172,0,165,-208
10.571,10.13,-0.13,-1.59,4.35,-0.87,-0.12,-0.88,0.61,-0.56,0.46,72.00,382.00,363.00,611.00,960.00,2075.00,2077.00,3093.00,,,,,,,,,,,,0,0,0,,-1420,15704,3204,-121,197,-152
10.612,10.19,-0.15,-1.68,5.16,-1.59,1.06,-0.58,0.18,-0.40,0.18,69.00,375.00,345.00,609.00,977.00,2074.00,2103.00,3097.00,,,,,,,,,,,,0,0,0,,-1420,15780,3236,-121,247,-117
10.676,10.24,-0.16,0.14,2.29,0.07,-0.33,-0.32,-0.13,-0.84,0.37,78.00,377.00,361.00,592.00,989.00,2070.00,2098.00,3135.00,,,,,,,,,,,,0,0,0,,-1428,15712,3248,-75,253,-115
10.779,10.30,-0.22,0.11,1.83,-0.61,-0.51,-1.42,0.48,-1.02,0.46,80.00,382.00,369.00,611.00,976.00,2127.00,2094.00,3149.00,,,,,,,,,,,,0,0,0,,-1304,15740,3128,-112,329,-11
10.801,10.35,-0.25,-3.35,6.54,-2.20,1.05,-0.89,0.13,-0.59,0.19,66.00,386.00,349.00,624.00,985.00,2102.00,2109.00,3119.00,,,,,,,,,,,,0,0,0,,-1232,15784,3340,-128,281,-100
10.822,10.41,-0.27,-0.50,3.22,-0.24,-0.13,-0.66,-0.09,-0.37,0.23,75.00,377.00,359.00,596.00,993.00,2096.00,2096.00,3089.00,,,,,,,,,,,,0,0,0,,-1348,15800,3320,-103,347,-142
10.883,10.46,-0.31,0.11,1.83,0.33,-0.77,-0.99,0.38,-0.45,0.44,80.00,382.00,368.00,593.00,974.00,2097.00,2075.00,3081.00,,,,,,,,,,,,0,0,0,,-1408,15768,3212,-89,394,-82
10.945,10.52,-0.33,-2.16,4.80,-1.13,0.38,-0.77,0.32,-0.13,0.32,71.00,386.00,355.00,609.00,973.00,2082.00,2077.00,3053.00,,,,,,,,,,,,0,0,0,,-1352,15820,3296,-116,391,-45
11.007,10.57,-0.32,0.75,1.38,-0.40,0.24,-0.16,-0.22,0.18,0.07,81.00,377.00,353.00,594.00,991.00,2062.00,2093.00,3035.00,,,,,,,,,,,,0,0,0,,-1316,15656,3264,-84,418,14
11.07,10.63,-0.34,2.56,-1.78,0.74,-1.06,-0.72,0.27,-0.24,0.35,93.00,382.00,371.00,588.00,975.00,2081.00,2077.00,3063.00,,,,,,,,,,,,0,0,0,,-1276,15716,3268,-31,350,-55
11.172,10.68,-0.37,-0.11,1.67,-0.54,-0.48,-0.80,0.48,-0.34,0.67,81.00,387.00,368.00,609.00,965.00,2075.00,2045.00,3049.00,,,,,,,,,,,,0,0,0,,-1340,15844,3232,-57,236,-93
11.192,10.74,-0.36,-0.43,4.74,-1.08,1.05,-0.21,0.02,0.16,0.05,69.00,361.00,342.00,597.00,979.00,2053.00,2096.00,3039.00,,,,,,,,,,,,0,0,0,,-1276,15808,3260,-39,221,-157
11.232,10.79,-0.37,1.44,0.26,0.72,-0.91,-0.52,0.18,-0.22,0.34,85.00,378.00,368.00,586.00,976.00,2069.00,2078.00,3062.00,,,,,,,,,,,,0,0,0,,-1332,15708,3156,-23,158,-215
11.314,10.85,-0.40,0.15,1.59,0.22,-0.74,-1.04,0.62,-0.19,0.39,81.00,384.00,368.00,595.00,962.00,2087.00,2071.00,3054.00,,,,,,,,,,,,0,0,0,,-1336,15832,3140,-58,248,-160
11.334,10.90,-0.40,-2.85,6.10,-1.41,1.11,-0.44,0.13,-0.15,0.21,67.00,383.00,343.00,604.00,977.00,2065.00,2089.00,3063.00,,,,,,,,,,,,0,0,0,,-1216,15736,3180,-86,285,-163
11.374,10.96,-0.41,-0.92,4.64,-0.16,-0.05,-0.59,0.07,-0.37,0.23,70.00,369.00,357.00,593.00,983.00,2081.00,2096.00,3089.00,,,,,,,,,,,,0,0,0,,-1324,15788,3172,-87,225,-172
11.435,11.01,-0.45,-0.83,4.61,-0.11,-0.63,-1.18,0.42,-0.27,-0.14,70.00,368.00,368.00,601.00,975.00,2110.00,2134.00,3107.00,,,,,,,,,,,,0,0,0,,-1308,15768,3276,-80,167,-161
11.538,11.07,-0.48,-2.80,7.22,-2.09,1.02,-1.07,0.35,-0.56,0.29,63.00,371.00,349.00,622.00,977.00,2105.00,2096.00,3107.00,,,,,,,,,,,,0,0,0,,-1308,15764,3188,-81,143,-128
11.558,11.12,-0.49,-2.40,6.22,-1.00,0.44,-0.69,-0.15,-0.55,0.16,66.00,375.00,353.00,605.00,997.00,2102.00,2110.00,3116.00,,,,,,,,,,,,0,0,0,,-1308,15940,2980,-129,-3,-302
11.6,11.18,-0.52,0.99,0.63,0.09,-0.79,-1.13,0.37,-0.75,0.38,84.00,381.00,370.00,599.00,977.00,2109.00,2093.00,3123.00,,,,,,,,,,,,0,0,0,,-1324,15776,3228,-86,-13,-218
11.662,11.23,-0.54,-2.19,3.79,-1.71,0.63,-0.89,0.51,-0.20,0.37,75.00,397.00,354.00,619.00,965.00,2081.00,2073.00,3056.00,,,,,,,,,,,,0,0,0,,-1484,15644,3376,-115,22,-224
11.724,11.29,-0.53,-0.26,2.18,-1.74,1.22,-0.36,0.03,0.08,0.10,79.00,384.00,343.00,610.00,981.00,2064.00,2093.00,3045.00,,,,,,,,,,,,0,0,0,,-1432,15816,3292,-184,59,-188
11.807,11.34,-0.53,0.91,0.66,0.66,-0.63,-0.44,0.15,-0.07,0.30,84.00,382.00,363.00,583.00,976.00,2064.00,2076.00,3046.00,,,,,,,,,,,,0,0,0,,-1328,15728,3476,-167,203,-227
11.847,11.40,-0.54,-1.56,2.86,-0.67,0.02,-0.79,0.67,0.28,0.28,78.00,397.00,359.00,604.00,955.00,2064.00,2066.00,3007.00,,,,,,,,,,,,0,0,0,,-1368,15656,3256,-111,306,-171
11.91,11.45,-0.52,-0.93,2.88,-1.62,1.24,-0.11,0.14,0.07,0.34,77.00,387.00,342.00,607.00,971.00,2038.00,2067.00,3027.00,,,,,,,,,,,,0,0,0,,-1340,15828,3132,-109,213,-100
11.931,11.51,-0.51,-0.09,2.13,0.26,-0.03,-0.36,0.13,-0.08,0.31,79.00,382.00,354.00,583.00,976.00,2059.00,2076.00,3047.00,,,,,,,,,,,,0,0,0,,-1324,15832,3080,-157,76,-193
11.993,11.56,-0.54,-1.83,3.92,0.01,-0.36,-1.14,1.18,-0.24,0.45,74.00,390.00,362.00,594.00,935.00,2064.00,2066.00,3055.00,,,,,,,,,,,,0,0,0,,-1404,15780,3160,-58,-46,-254
12.055,11.62,-0.54,-1.74,3.89,-1.62,0.81,-0.50,0.42,-0.11,0.26,74.00,389.00,350.00,614.00,963.00,2054.00,2082.00,3054.00,,,,,,,,,,,,0,0,0,,-1508,15772,3184,-66,-60,-187
12.117,11.67,-0.52,-1.10,2.47,-0.79,0.69,-0.20,-0.10,-0.22,0.22,79.00,394.00,347.00,596.00,985.00,2058.00,2091.00,3071.00,,,,,,,,,,,,0,0,0,,-1436,15748,3104,-82,48,-162
12.157,11.73,-0.54,0.21,0.24,0.71,-1.40,-0.88,0.34,-0.60,0.40,87.00,397.00,378.00,594.00,974.00,2090.00,2085.00,3103.00,,,,,,,,,,,,0,0,0,,-1388,15784,3072,-118,133,-131
12.28,11.78,-0.55,-0.11,0.35,-1.34,-0.21,-0.71,0.36,-0.46,0.34,87.00,401.00,368.00,624.00,970.00,2075.00,2087.00,3091.00,,,,,,,,,,,,0,0,0,,-1348,15740,3228,-139,147,-62
12.301,11.84,-0.53,-1.94,3.71,-1.70,1.05,-0.24,-0.23,-0.33,0.11,75.00,394.00,346.00,612.00,993.00,2069.00,2108.00,3094.00,,,,,,,,,,,,0,0,0,,-1296,15644,3344,-87,201,-129
12.341,11.89,-0.55,0.80,0.05,0.14,-1.06,-0.89,0.21,-0.86,0.39,87.00,390.00,375.00,602.00,981.00,2098.00,2096.00,3136.00,,,,,,,,,,,,0,0,0,,-1256,15888,3048,-209,164,-26
12.361,11.95,-0.57,-1.47,2.36,-1.33,-0.17,-1.01,0.65,-0.56,0.39,80.00,401.00,367.00,623.00,960.00,2083.00,2085.00,3099.00,,,,,,,,,,,,0,0,0,,-1336,15804,3312,-218,132,-117
12.423,12.00,-0.56,-1.06,3.17,-1.47,1.13,-0.35,0.20,0.04,0.19,76.00,386.00,343.00,605.00,972.00,2054.00,2085.00,3043.00,,,,,,,,,,,,0,0,0,,-1288,15776,3232,-150,111,-114
12.486,12.06,-0.54,-0.23,1.94,0.19,0.25,-0.17,0.06,-0.08,0.33,80.00,386.00,349.00,580.00,976.00,2047.00,2073.00,3045.00,,,,,,,,,,,,0,0,0,,-1216,15676,3120,-131,70,-52
12.547,12.11,-0.55,-0.85,2.38,0.12,-0.40,-0.72,0.73,-0.01,0.45,79.00,391.00,362.00,592.00,951.00,2055.00,2058.00,3028.00,,,,,,,,,,,,0,0,0,,-1232,15720,3336,-101,188,-117
12.669,12.17,-0.53,-0.35,2.21,-0.22,-0.59,-0.15,0.32,0.31,0.19,79.00,385.00,368.00,603.00,962.00,2031.00,2074.00,3010.00,,,,,,,,,,,,0,0,0,,-1208,15808,3192,-155,246,-27
12.69,12.22,-0.50,-0.35,2.21,-0.29,0.52,0.02,0.06,0.20,0.18,79.00,385.00,347.00,587.00,973.00,2032.00,2080.00,3024.00,,,,,,,,,,,,0,0,0,,-1264,15744,3284,-94,105,-192
12.711,12.28,-0.49,-0.14,1.91,0.66,-0.89,-0.25,0.19,0.00,0.33,80.00,385.00,368.00,587.00,971.00,2047.00,2070.00,3035.00,,,,,,,,,,,,0,0,0,,-1180,15728,3176,-109,64,-182
12.772,12.33,-0.49,-1.27,2.52,-1.32,0.60,-0.43,0.63,0.08,0.36,79.00,396.00,352.00,610.00,951.00,2037.00,2064.00,3024.00,,,,,,,,,,,,0,0,0,,-1248,15732,3100,-77,-3,-269
12.814,12.39,-0.46,-14.92,23.24,-1.19,1.09,-0.01,0.05,0.25,0.03,33.00,390.00,342.00,599.00,974.00,2035.00,2095.00,3030.00,,,,,,,,,,,,0,0,0,,-1352,15804,3440,-41,-51,-207
12.875,12.44,-0.48,1.26,-0.73,0.43,-0.86,-0.72,0.57,-0.29,0.44,90.00,391.00,369.00,592.00,959.00,2064.00,2069.00,3062.00,,,,,,,,,,,,0,0,0,,-1340,15692,3208,-78,68,-155
12.937,12.50,-0.48,-0.41,0.88,-0.74,-0.31,-0.59,0.68,-0.14,0.35,85.00,400.00,366.00,611.00,951.00,2047.00,2073.00,3051.00,,,,,,,,,,,,0,0,0,,-1288,15768,3300,-90,127,-184
13.017,12.55,-0.47,-2.71,4.47,-1.59,1.06,-0.12,0.07,-0.01,0.13,73.00,398.00,345.00,609.00,975.00,2043.00,2093.00,3053.00,,,,,,,,,,,,0,0,0,,-1324,15804,3188,-100,109,-184
13.038,12.61,-0.46,-0.31,1.97,-1.94,0.50,-0.44,0.15,-0.46,0.37,80.00,387.00,358.00,627.00,976.00,2064.00,2083.00,3088.00,,,,,,,,,,,,0,0,0,,-1324,15736,3180,-77,126,-196
13.08,12.66,-0.48,-1.39,2.33,-0.82,-0.14,-0.86,0.71,-0.57,0.53,80.00,400.00,363.00,610.00,954.00,2067.00,2070.00,3089.00,,,,,,,,,,,,0,0,0,,-1288,15736,3352,-34,83,-253
13.141,12.72,-0.49,-2.11,3.77,-2.32,1.47,-0.57,0.39,-0.36,0.22,75.00,396.00,342.00,620.00,966.00,2062.00,2097.00,3089.00,,,,,,,,,,,,0,0,0,,-1308,15948,3328,-57,80,-102
13.203,12.77,-0.49,0.17,1.35,-0.28,-0.06,-0.46,0.16,-0.43,0.33,82.00,386.00,358.00,596.00,976.00,2065.00,2087.00,3088.00,,,,,,,,,,,,0,0,0,,-1356,15660,3132,-129,154,-250
13.265,12.83,-0.50,-0.40,2.00,0.30,-0.66,-0.81,0.70,-0.11,0.41,80.00,388.00,366.00,592.00,954.00,2064.00,2065.00,3042.00,,,,,,,,,,,,0,0,0,,-1384,15692,3396,-227,-4,-296
13.306,12.88,-0.49,-1.78,3.65,-1.28,0.85,-0.26,0.44,0.23,0.31,75.00,392.00,347.00,605.00,958.00,2034.00,2064.00,3010.00,,,,,,,,,,,,0,0,0,,-1332,15776,3484,-122,126,-138
13.409,12.94,-0.46,-0.14,1.91,-0.29,0.20,0.13,0.06,0.46,0.12,80.00,385.00,353.00,592.00,971.00,2023.00,2076.00,2997.00,,,,,,,,,,,,0,0,0,,-1376,15732,3096,-40,205,-156
13.429,12.99,-0.45,1.76,-0.70,0.93,-0.78,-0.30,0.51,0.24,0.31,89.00,383.00,364.00,579.00,955.00,2033.00,2064.00,3009.00,,,,,,,,,,,,0,0,0,,-1344,15708,3448,-48,90,-4
13.47,13.05,-0.44,-0.97,2.66,-0.52,0.23,-0.16,0.64,0.38,0.36,78.00,390.00,354.00,597.00,946.00,2015.00,2053.00,2988.00,,,,,,,,,,,,0,0,0,,-1260,15736,3412,-24,162,-155
13.531,13.10,-0.39,-1.15,3.69,-0.77,1.17,0.41,0.06,0.63,0.06,74.00,382.00,338.00,588.00,966.00,2001.00,2077.00,2983.00,,,,,,,,,,,,0,0,0,,-1300,15780,3172,-67,202,-134
13.573,13.16,-0.38,0.91,0.66,1.06,-0.77,-0.05,0.33,0.27,0.31,84.00,382.00,363.00,576.00,960.00,2023.00,2062.00,3005.00,,,,,,,,,,,,0,0,0,,-1408,15852,3176,-18,125,-232
13.634,13.21,-0.37,-1.53,3.57,0.00,-0.10,-0.26,0.73,0.34,0.35,75.00,389.00,357.00,590.00,943.00,2018.00,2055.00,2993.00,,,,,,,,,,,,0,0,0,,-1292,15784,3248,0,39,-186
13.716,13.27,-0.34,-2.69,5.77,1.07,-1.81,0.24,0.31,0.45,0.21,68.00,384.00,384.00,592.00,956.00,2001.00,2067.00,2992.00,,,,,,,,,,,,0,0,0,,-1316,15724,3188,-55,34,-160
13.758,13.32,-0.32,-0.06,1.88,0.51,0.04,0.05,0.18,0.18,0.24,80.00,384.00,351.00,576.00,966.00,2023.00,2074.00,3022.00,,,,,,,,,,,,0,0,0,,-1412,15788,3300,-107,179,-93
13.819,13.38,-0.33,-0.56,2.05,0.45,-0.77,-0.53,0.78,-0.06,0.41,80.00,390.00,367.00,590.00,945.00,2037.00,2064.00,3037.00,,,,,,,,,,,,0,0,0,,-1344,15764,3308,-141,181,-111
13.861,13.43,-0.32,-1.91,3.95,-1.71,1.43,-0.20,0.38,0.18,0.12,74.00,391.00,339.00,606.00,960.00,2032.00,2087.00,3031.00,,,,,,,,,,,,0,0,0,,-1352,15744,3188,-108,118,-119
13.923,13.49,-0.30,0.17,0.69,0.04,-0.48,0.16,-0.14,0.06,0.07,85.00,393.00,364.00,595.00,981.00,2032.00,2097.00,3049.00,,,,,,,,,,,,0,0,0,,-1348,15752,3096,-101,132,-208
13.984,13.54,-0.32,0.12,1.15,0.37,-1.09,-0.64,0.41,-0.44,0.30,83.00,389.00,374.00,597.00,966.00,2066.00,2090.00,3091.00,,,,,,,,,,,,0,0,0,,-1400,15704,3232,-138,154,-99
14.025,13.60,-0.32,-2.19,3.79,-1.77,0.59,-0.37,0.44,-0.13,0.27,75.00,397.00,355.00,621.00,960.00,2043.00,2082.00,3056.00,,,,,,,,,,,,0,0,0,,-1368,15772,3364,-180,41,-227
14.107,13.65,-0.29,-1.61,3.60,-0.62,0.68,0.31,-0.10,0.46,-0.04,75.00,390.00,346.00,592.00,976.00,2017.00,2095.00,3011.00,,,,,,,,,,,,0,0,0,,-1480,15740,3368,-143,57,-184
14.15,13.71,-0.27,0.69,0.30,0.97,-0.89,-0.01,0.20,0.21,0.32,86.00,389.00,366.00,580.00,966.00,2027.00,2064.00,3012.00,,,,,,,,,,,,0,0,0,,-1364,15716,3428,-39,207,-114
14.191,13.76,-0.27,-0.40,2.00,-0.07,-0.18,-0.11,0.56,0.44,0.39,80.00,388.00,359.00,593.00,949.00,2015.00,2047.00,2978.00,,,,,,,,,,,,0,0,0,,-1352,15676,3296,-86,230,-152
14.252,13.82,-0.23,-1.68,5.16,-0.87,1.31,0.45,0.24,0.75,0.16,69.00,375.00,336.00,588.00,956.00,1988.00,2061.00,2960.00,,,,,,,,,,,,0,0,0,,-1364,15732,3276,-51,181,-78
14.293,13.87,-0.20,0.31,2.23,1.17,-0.08,0.39,0.16,0.48,0.28,78.00,375.00,349.00,563.00,961.00,1997.00,2058.00,2983.00,,,,,,,,,,,,0,0,0,,-1384,15672,3288,-2,161,-129
14.354,13.93,-0.20,0.29,1.77,0.79,-0.37,-0.21,0.75,0.39,0.48,80.00,380.00,357.00,576.00,941.00,2013.00,2039.00,2977.00,,,,,,,,,,,,0,0,0,,-1252,15780,3140,-91,97,-105
14.498,13.98,-0.18,-2.86,5.83,-0.94,1.22,0.30,0.52,0.74,0.18,68.00,386.00,338.00,591.00,944.00,1985.00,2059.00,2960.00,,,,,,,,,,,,0,0,0,,-1284,15764,3244,-92,50,-195
14.518,14.04,-0.14,-0.46,3.46,-2.09,1.55,0.52,0.04,0.58,0.18,74.00,374.00,339.00,613.00,965.00,1993.00,2065.00,2979.00,,,,,,,,,,,,0,0,0,,-1316,15688,3168,-7,67,-156
14.539,14.09,-0.13,0.60,1.21,0.72,-0.65,0.06,0.35,0.35,0.29,82.00,381.00,363.00,582.00,957.00,2013.00,2062.00,2997.00,,,,,,,,,,,,0,0,0,,-1340,15764,3340,-71,115,-122
14.58,14.15,-0.12,-0.48,2.03,-0.61,0.05,0.02,0.60,0.39,0.27,80.00,389.00,358.00,602.00,945.00,2003.00,2062.00,2994.00,,,,,,,,,,,,0,0,0,,-1284,15716,3252,-74,286,-126
14.662,14.20,-0.09,-1.36,3.51,-0.95,1.17,0.49,-0.05,0.51,-0.01,75.00,387.00,339.00,592.00,970.00,2000.00,2089.00,3002.00,,,,,,,,,,,,0,0,0,,-1268,15676,3244,-121,221,-130
14.682,14.26,-0.10,0.15,1.59,1.00,-1.00,-0.20,0.38,-0.08,0.36,81.00,384.00,368.00,581.00,960.00,2032.00,2070.00,3043.00,,,,,,,,,,,,0,0,0,,-1312,15792,3176,-147,91,-151
14.743,14.31,-0.11,-1.80,2.94,-0.83,0.12,-0.31,0.70,0.07,0.34,78.00,400.00,358.00,606.00,945.00,2023.00,2067.00,3027.00,,,,,,,,,,,,0,0,0,,-1332,15608,3264,-106,129,-38
14.783,14.37,-0.09,-1.49,3.81,-0.94,0.84,0.25,0.04,0.22,0.07,74.00,386.00,345.00,597.00,970.00,2015.00,2091.00,3030.00,,,,,,,,,,,,0,0,0,,-1296,15896,2988,-166,107,-216
14.844,14.42,-0.08,0.20,1.80,0.79,-0.63,0.10,0.16,0.12,0.28,80.00,381.00,362.00,580.00,966.00,2020.00,2071.00,3025.00,,,,,,,,,,,,0,0,0,,-1360,15728,3328,-99,151,-182
14.906,14.48,-0.08,-0.76,2.83,0.42,-0.40,-0.08,0.63,0.27,0.47,77.00,385.00,360.00,585.00,945.00,2009.00,2045.00,2992.00,,,,,,,,,,,,0,0,0,,-1364,15636,3224,-62,148,-220
14.968,14.53,-0.05,-1.24,3.72,-1.29,1.67,0.45,0.22,0.66,0.17,74.00,383.00,332.00,592.00,957.00,1989.00,2064.00,2971.00,,,,,,,,,,,,0,0,0,,-1320,15752,3176,-85,130,-113
15.029,14.59,-0.03,1.72,-0.05,1.21,-0.41,0.49,0.01,0.66,0.13,86.00,377.00,355.00,567.00,967.00,1997.00,2068.00,2973.00,,,,,,,,,,,,0,0,0,,-1288,15776,3272,-46,168,-136
15.07,14.64,-0.03,1.01,0.40,1.11,-1.04,-0.01,0.57,0.46,0.32,85.00,383.00,368.00,579.00,947.00,2007.00,2054.00,2982.00,,,,,,,,,,,,0,0,0,,-1216,15796,3256,-36,138,-313
15.132,14.70,-0.01,-0.38,2.46,-0.81,0.91,0.20,0.44,0.80,0.12,78.00,383.00,343.00,593.00,950.00,1997.00,2064.00,2958.00,,,,,,,,,,,,0,0,0,,-1220,15688,3288,-113,69,-106
15.215,14.75,0.02,0.03,1.85,0.39,0.03,0.66,-0.18,0.73,-0.02,80.00,383.00,352.00,579.00,974.00,1994.00,2082.00,2977.00,,,,,,,,,,,,0,0,0,,-1272,15820,3256,-116,38,-191
15.236,14.81,0.02,1.08,0.60,1.28,-1.09,-0.02,0.45,0.27,0.32,84.00,380.00,368.00,576.00,953.00,2014.00,2061.00,3004.00,,,,,,,,,,,,0,0,0,,-1308,15736,3188,-130,31,-208
15.297,14.86,0.02,-1.56,2.86,0.01,-0.62,0.12,0.56,0.39,0.28,78.00,397.00,367.00,598.00,945.00,1997.00,2061.00,2993.00,,,,,,,,,,,,0,0,0,,-1424,15692,3308,-88,47,-150
15.358,14.92,0.05,-1.02,2.91,-0.51,0.97,0.57,-0.11,0.59,0.00,77.00,388.00,340.00,585.00,972.00,1997.00,2085.00,2992.00,,,,,,,,,,,,0,0,0,,-1340,15628,3380,-127,147,-135
15.399,14.97,0.05,0.56,-0.09,1.28,-1.09,0.15,0.20,0.10,0.31,88.00,395.00,368.00,576.00,963.00,2014.00,2069.00,3025.00,,,,,,,,,,,,0,0,0,,-1316,15900,3260,-141,148,-147
15.46,15.03,0.03,-0.60,2.30,-0.11,-0.07,-0.37,0.63,0.07,0.37,79.00,388.00,357.00,592.00,950.00,2032.00,2063.00,3024.00,,,,,,,,,,,,0,0,0,,-1348,15796,3268,-119,5,-105
15.5,15.08,0.04,-1.58,3.83,-0.94,0.84,0.19,0.27,0.22,0.16,74.00,387.00,345.00,597.00,959.00,2007.00,2081.00,3023.00,,,,,,,,,,,,0,0,0,,-1332,15792,3292,-73,81,-154
15.582,15.14,0.05,0.29,1.77,-0.25,0.13,0.20,-0.00,0.01,0.18,80.00,380.00,354.00,592.00,973.00,2021.00,2087.00,3047.00,,,,,,,,,,,,0,0,0,,-1208,15880,3236,-163,65,-261
15.623,15.19,0.04,-0.56,2.05,0.38,-0.79,-0.14,0.49,0.08,0.35,80.00,390.00,368.00,592.00,953.00,2021.00,2065.00,3024.00,,,,,,,,,,,,0,0,0,,-1364,15880,3136,-113,101,-156
15.663,15.25,0.04,-3.16,5.13,-1.00,1.19,0.10,0.53,0.53,0.20,71.00,398.00,339.00,593.00,947.00,2000.00,2065.00,2983.00,,,,,,,,,,,,0,0,0,,-1312,15708,3352,-130,154,-196
15.724,15.30,0.06,-0.93,3.37,-0.19,0.75,0.37,0.19,0.60,0.15,75.00,382.00,342.00,581.00,960.00,1997.00,2068.00,2979.00,,,,,,,,,,,,0,0,0,,-1328,15760,3220,-94,135,-122
15.786,15.36,0.06,0.46,1.71,1.28,-1.09,0.06,0.33,0.39,0.30,80.00,378.00,368.00,576.00,958.00,2014.00,2059.00,2992.00,,,,,,,,,,,,0,0,0,,-1268,15732,3416,-51,163,-159
15.849,15.41,0.07,-0.65,2.08,-0.31,0.10,0.34,0.31,0.62,0.18,80.00,391.00,355.00,594.00,954.00,1993.00,2064.00,2974.00,,,,,,,,,,,,0,0,0,,-1240,15800,3264,-19,180,-187
15.973,15.47,0.11,-0.30,2.43,-0.67,1.08,0.79,-0.16,0.74,0.03,78.00,382.00,339.00,587.00,971.00,1983.00,2076.00,2972.00,,,,,,,,,,,,0,0,0,,-1232,15756,3196,-80,134,-27
15.993,15.52,0.12,1.36,0.29,1.66,-1.07,0.24,0.33,0.37,0.31,85.00,379.00,365.00,567.00,955.00,2000.00,2059.00,2993.00,,,,,,,,,,,,0,0,0,,-1184,15808,3340,-130,107,-177
16.013,15.58,0.11,-2.08,4.00,-0.06,-0.13,0.05,0.64,0.42,0.29,74.00,393.00,358.00,592.00,942.00,1998.00,2059.00,2989.00,,,,,,,,,,,,0,0,0,,-1216,15808,3292,-153,127,-191
16.075,15.63,0.14,-0.47,2.49,-0.24,0.82,0.57,0.12,0.55,0.14,78.00,384.00,341.00,581.00,960.00,1985.00,2071.00,2986.00,,,,,,,,,,,,0,0,0,,-1372,15772,3200,-158,119,-202
16.137,15.69,0.15,1.34,0.51,1.13,-0.48,0.41,0.04,0.35,0.17,84.00,377.00,357.00,570.00,967.00,2002.00,2075.00,3007.00,,,,,,,,,,,,0,0,0,,-1320,15712,3076,-197,159,-218
16.179,15.74,0.13,-0.52,2.27,0.67,-0.84,-0.19,0.69,0.22,0.29,79.00,387.00,367.00,586.00,944.00,2015.00,2067.00,3013.00,,,,,,,,,,,,0,0,0,,-1288,15804,3212,-178,121,-186
16.242,15.80,0.14,0.09,1.38,-0.48,0.43,0.32,0.20,-0.09,0.71,82.00,387.00,350.00,593.00,960.00,2000.00,2031.00,3015.00,,,,,,,,,,,,0,0,0,,-1268,15760,3508,-189,117,-171
16.323,15.85,0.15,4.85,-4.96,0.92,-0.57,0.31,-0.02,0.09,0.15,106.00,380.00,360.00,576.00,972.00,2013.00,2087.00,3039.00,,,,,,,,,,,,0,0,0,,-1272,15608,3464,-144,89,-122
16.343,15.91,0.13,-0.65,2.08,0.73,-0.86,-0.23,0.37,-0.11,0.25,80.00,391.00,367.00,585.00,961.00,2035.00,2084.00,3056.00,,,,,,,,,,,,0,0,0,,-1360,15996,3144,-161,110,-223
16.384,15.96,0.12,-1.06,2.22,-1.07,0.36,-0.14,0.57,0.15,0.27,80.00,396.00,355.00,608.00,949.00,2017.00,2071.00,3022.00,,,,,,,,,,,,0,0,0,,-1280,15776,3456,-171,105,-254
16.446,16.02,0.15,0.10,2.54,-0.50,0.69,0.74,-0.21,0.62,0.03,77.00,375.00,345.00,589.00,974.00,1989.00,2081.00,2986.00,,,,,,,,,,,,0,0,0,,-1416,15732,3228,-121,87,-277
16.508,16.07,0.15,1.65,-0.24,1.62,-1.21,0.08,0.36,0.37,0.33,87.00,380.00,368.00,570.00,956.00,2011.00,2057.00,2992.00,,,,,,,,,,,,0,0,0,,-1360,15728,3336,-75,154,-251
16.549,16.13,0.14,-1.64,2.88,-0.20,0.07,0.10,0.63,0.59,0.34,78.00,398.00,355.00,592.00,942.00,1995.00,2047.00,2965.00,,,,,,,,,,,,0,0,0,,-1416,15664,3368,-65,127,-150
16.631,16.18,0.18,-0.67,3.28,-0.31,1.12,0.80,0.04,0.90,0.08,75.00,379.00,336.00,578.00,960.00,1971.00,2064.00,2949.00,,,,,,,,,,,,0,0,0,,-1388,15720,3220,-55,186,-99
16.714,16.24,0.19,0.17,2.04,1.21,-0.41,0.40,0.37,0.64,0.25,79.00,379.00,355.00,567.00,950.00,1985.00,2055.00,2966.00,,,,,,,,,,,,0,0,0,,-1240,15760,3440,-60,164,-139
16.734,16.29,0.19,-0.47,2.49,-0.48,0.43,0.18,0.68,0.56,0.37,78.00,384.00,350.00,593.00,938.00,1986.00,2045.00,2966.00,,,,,,,,,,,,0,0,0,,-1208,15788,3324,-115,109,-137
16.775,16.35,0.21,-2.37,5.39,-1.11,1.72,0.61,0.34,-0.62,0.62,69.00,383.00,330.00,587.00,948.00,1970.00,2061.00,3087.00,,,,,,,,,,,,0,0,0,,-1280,15772,3176,-38,90,-204
16.836,16.40,0.23,-0.07,2.60,1.21,-0.15,0.57,0.16,0.56,0.24,77.00,377.00,350.00,563.00,958.00,1983.00,2059.00,2976.00,,,,,,,,,,,,0,0,0,,-1344,15696,3388,-54,76,-155
16.898,16.46,0.22,-2.71,2.55,0.82,-0.48,0.09,0.55,0.42,0.27,81.00,419.00,359.00,577.00,946.00,2000.00,2061.00,2990.00,,,,,,,,,,,,0,0,0,,-1368,15736,3552,-106,166,-180
16.94,16.51,0.22,-0.73,2.11,-0.24,0.18,0.32,0.46,0.46,0.19,80.00,392.00,353.00,591.00,947.00,1987.00,2069.00,2992.00,,,,,,,,,,,,0,0,0,,-1392,15624,3256,-141,177,-158
17.002,16.57,0.25,-1.49,3.81,-0.56,1.04,0.69,-0.19,0.44,0.03,74.00,386.00,339.00,585.00,974.00,1992.00,2087.00,3007.00,,,,,,,,,,,,0,0,0,,-1276,15736,3264,-170,119,-120
17.044,16.62,0.24,1.96,-1.58,1.67,-1.67,0.04,0.35,-0.00,0.35,93.00,389.00,377.00,576.00,957.00,2014.00,2068.00,3034.00,,,,,,,,,,,,0,0,0,,-1260,15820,3420,-161,110,-72
17.106,16.68,0.22,-1.85,3.19,-0.95,0.42,-0.11,0.62,0.15,0.22,77.00,398.00,353.00,604.00,946.00,2012.00,2077.00,3027.00,,,,,,,,,,,,0,0,0,,-1332,15644,3464,-140,123,-157
17.17,16.73,0.23,-1.83,3.92,0.22,-0.48,0.46,0.00,0.26,0.02,74.00,390.00,363.00,591.00,968.00,2000.00,2095.00,3029.00,,,,,,,,,,,,0,0,0,,-1320,15792,3468,-104,91,-273
17.212,16.79,0.23,2.82,-2.26,1.39,-1.13,0.11,0.31,0.24,0.26,95.00,383.00,368.00,574.00,958.00,2011.00,2069.00,3013.00,,,,,,,,,,,,0,0,0,,-1344,15748,3464,-110,60,-157
17.293,16.84,0.23,-0.45,1.79,0.32,-0.00,0.28,0.53,0.44,0.41,81.00,391.00,353.00,581.00,944.00,1986.00,2045.00,2977.00,,,,,,,,,,,,0,0,0,,-1328,15672,3608,-73,202,-136
17.353,16.90,0.22,-2.68,6.04,-0.68,1.41,0.09,0.53,0.88,0.12,67.00,381.00,333.00,582.00,947.00,2001.00,2061.00,2949.00,,,,,,,,,,,,0,0,0,,-1320,15800,3172,-112,145,-127
17.416,16.95,0.24,-0.33,3.17,1.19,0.02,0.63,0.23,0.72,0.23,75.00,375.00,347.00,561.00,953.00,1974.00,2055.00,2959.00,,,,,,,,,,,,0,0,0,,-1340,15704,3404,-123,159,-136
17.436,17.01,0.22,-0.21,2.40,0.89,-0.20,-0.14,0.88,0.59,0.47,78.00,381.00,353.00,571.00,933.00,2000.00,2033.00,2955.00,,,,,,,,,,,,0,0,0,,-1356,15880,3272,-76,170,-128
17.498,17.06,0.24,-1.71,4.13,-0.64,1.29,0.58,0.43,0.92,0.13,73.00,386.00,335.00,583.00,944.00,1968.00,2058.00,2943.00,,,,,,,,,,,,0,0,0,,-1292,15740,3224,-77,96,-168
17.538,17.12,0.27,0.80,0.92,0.02,0.95,0.82,0.07,0.87,0.11,83.00,381.00,337.00,573.00,958.00,1968.00,2062.00,2950.00,,,,,,,,,,,,0,0,0,,-1252,15688,3476,-62,-41,-215
17.601,17.17,0.27,-0.14,1.91,1.36,-0.82,0.30,0.42,0.47,0.40,80.00,385.00,362.00,570.00,949.00,1990.00,2045.00,2974.00,,,,,,,,,,,,0,0,0,,-1376,15756,3388,-32,42,-231
17.664,17.23,0.28,-1.23,2.28,-1.20,1.42,0.49,0.51,0.63,0.26,80.00,398.00,336.00,594.00,941.00,1970.00,2054.00,2966.00,,,,,,,,,,,,0,0,0,,-1432,15680,3436,-15,103,-166
17.706,17.28,0.31,-1.10,3.43,-0.01,0.75,0.85,-0.01,0.74,0.00,75.00,384.00,341.00,577.00,962.00,1970.00,2079.00,2974.00,,,,,,,,,,,,0,0,0,,-1328,15720,3344,-52,160,-164
17.79,17.34,0.30,0.67,0.52,1.64,-1.16,0.15,0.43,0.24,0.31,85.00,387.00,367.00,569.00,951.00,2001.00,2063.00,3008.00,,,,,,,,,,,,0,0,0,,-1352,15776,3292,-129,193,-127
17.81,17.39,0.29,-1.43,2.58,-0.39,0.29,0.02,0.65,0.33,0.29,79.00,398.00,352.00,593.00,942.00,2000.00,2062.00,2999.00,,,,,,,,,,,,0,0,0,,-1356,15840,3444,-187,217,-160
17.871,17.45,0.30,-1.44,3.54,-0.77,1.17,0.53,0.31,0.48,0.07,75.00,388.00,338.00,588.00,951.00,1978.00,2081.00,2999.00,,,,,,,,,,,,0,0,0,,-1388,15960,3288,-123,128,-136
17.952,17.50,0.30,-0.48,2.03,0.65,-0.17,0.32,0.20,0.12,0.28,80.00,389.00,354.00,576.00,960.00,2000.00,2071.00,3025.00,,,,,,,,,,,,0,0,0,,-1256,15520,3440,-109,118,-135
18.014,17.56,0.28,-0.40,2.00,-0.01,-0.15,-0.08,0.63,0.08,0.36,80.00,388.00,358.00,591.00,945.00,2009.00,2064.00,3024.00,,,,,,,,,,,,0,0,0,,-1372,15680,3308,-98,12,-216
18.035,17.61,0.30,-2.98,5.33,-1.00,1.24,0.55,0.20,0.56,0.21,70.00,393.00,338.00,592.00,956.00,1982.00,2063.00,2979.00,,,,,,,,,,,,0,0,0,,-1316,15780,3524,-106,74,-166
18.097,17.67,0.31,0.40,2.20,0.84,0.14,0.64,0.15,0.59,0.20,78.00,374.00,347.00,567.00,957.00,1978.00,2063.00,2976.00,,,,,,,,,,,,0,0,0,,-1324,15740,3316,-130,198,-168
18.16,17.72,0.31,-0.23,1.94,1.14,-0.69,0.22,0.55,0.47,0.45,80.00,386.00,361.00,573.00,944.00,1990.00,2039.00,2970.00,,,,,,,,,,,,0,0,0,,-1300,15740,3460,-104,204,-136
18.222,17.78,0.31,-0.36,1.76,-0.34,0.27,0.43,0.52,0.62,0.33,81.00,390.00,352.00,592.00,942.00,1975.00,2047.00,2962.00,,,,,,,,,,,,0,0,0,,-1340,15544,3408,-62,171,-142
18.284,17.83,0.35,-0.31,1.97,0.40,0.39,1.00,-0.22,0.90,-0.00,80.00,387.00,345.00,573.00,970.00,1969.00,2074.00,2956.00,,,,,,,,,,,,0,0,0,,-1356,15604,3536,-88,132,-116
18.325,17.89,0.35,0.56,0.77,1.53,-1.08,0.33,0.49,0.48,0.32,84.00,386.00,366.00,570.00,945.00,1984.00,2053.00,2979.00,,,,,,,,,,,,0,0,0,,-1280,15760,3244,-60,118,-121
18.408,17.94,0.35,-1.43,3.05,-1.13,0.75,0.33,0.55,0.64,0.32,77.00,393.00,348.00,603.00,942.00,1981.00,2047.00,2960.00,,,,,,,,,,,,0,0,0,,-1352,15676,3176,-23,27,-243
18.428,18.00,0.37,-1.36,3.51,-0.76,1.27,0.77,0.09,0.74,0.07,75.00,387.00,336.00,586.00,958.00,1971.00,2072.00,2969.00,,,,,,,,,,,,0,0,0,,-1392,15792,3432,-13,26,-221
18.53,18.05,0.38,0.65,0.75,1.09,-0.42,0.55,0.22,0.43,0.27,84.00,385.00,356.00,570.00,955.00,1981.00,2061.00,2989.00,,,,,,,,,,,,0,0,0,,-1372,15752,3436,-120,108,-172
18.55,18.11,0.36,-1.81,3.42,0.18,-0.11,0.08,0.73,0.26,0.47,76.00,395.00,356.00,586.00,937.00,1991.00,2045.00,2993.00,,,,,,,,,,,,0,0,0,,-1376,15740,3492,-105,181,-169
18.591,18.16,0.37,-1.44,3.54,-1.08,1.44,0.46,0.41,0.48,0.16,75.00,388.00,335.00,591.00,947.00,1978.00,2071.00,2992.00,,,,,,,,,,,,0,0,0,,-1400,15672,3440,-180,141,-165
18.653,18.22,0.37,-0.06,1.88,1.08,-0.21,0.47,0.21,0.26,0.26,80.00,384.00,352.00,567.00,957.00,1988.00,2069.00,3011.00,,,,,,,,,,,,0,0,0,,-1404,15808,3472,-150,87,-94
18.694,18.27,0.35,-0.90,2.17,0.54,-0.64,-0.18,0.70,-0.00,0.41,80.00,394.00,364.00,586.00,943.00,2013.00,2062.00,3030.00,,,,,,,,,,,,0,0,0,,-1244,15764,3428,-64,103,-168
18.756,18.33,0.33,-2.11,3.77,-1.17,0.82,0.06,0.49,0.04,0.29,75.00,396.00,347.00,603.00,950.00,2006.00,2073.00,3034.00,,,,,,,,,,,,0,0,0,,-1260,15832,3272,-188,26,-302
18.817,18.38,0.34,-0.45,1.79,-0.52,0.54,0.61,-0.03,0.36,0.15,81.00,391.00,348.00,592.00,967.00,1990.00,2077.00,3007.00,,,,,,,,,,,,0,0,0,,-1336,15704,3364,-201,154,-200
18.899,18.44,0.33,0.54,1.00,1.28,-1.09,0.14,0.48,0.29,0.35,83.00,384.00,368.00,576.00,949.00,2000.00,2057.00,2999.00,,,,,,,,,,,,0,0,0,,-1388,15596,3480,-108,176,-172
18.92,18.49,0.34,-1.80,2.94,-0.25,0.13,0.45,0.49,0.50,0.37,78.00,400.00,354.00,592.00,943.00,1975.00,2047.00,2973.00,,,,,,,,,,,,0,0,0,,-1376,15700,3404,-96,120,-130
18.961,18.55,0.36,-0.26,2.18,-0.43,1.11,0.84,0.05,0.81,0.08,79.00,384.00,337.00,581.00,959.00,1968.00,2068.00,2960.00,,,,,,,,,,,,0,0,0,,-1284,15624,3484,-58,107,-216
19.024,18.60,0.36,0.11,1.83,2.11,-1.27,0.30,0.48,0.25,0.49,80.00,382.00,366.00,560.00,946.00,1987.00,2043.00,2993.00,,,,,,,,,,,,0,0,0,,-1372,15632,3396,-20,139,-164
19.085,18.66,0.36,-1.47,2.83,0.35,-0.17,0.24,0.66,0.51,0.40,78.00,396.00,356.00,583.00,938.00,1982.00,2044.00,2970.00,,,,,,,,,,,,0,0,0,,-1252,15752,3316,-83,128,-89
19.146,18.71,0.37,-3.59,5.02,-0.53,1.20,0.66,0.32,0.66,0.21,72.00,406.00,336.00,582.00,948.00,1967.00,2059.00,2967.00,,,,,,,,,,,,0,0,0,,-1280,15744,3444,-58,44,-156
19.188,18.77,0.38,0.37,1.74,1.20,-0.20,0.62,0.16,0.43,0.30,80.00,379.00,351.00,564.00,957.00,1979.00,2058.00,2987.00,,,,,,,,,,,,0,0,0,,-1324,15708,3380,-77,166,-214
19.312,18.82,0.37,-1.41,3.78,0.72,-0.40,0.08,0.61,0.20,0.51,74.00,385.00,358.00,578.00,943.00,1997.00,2043.00,2997.00,,,,,,,,,,,,0,0,0,,-1416,15684,3416,-26,67,-168
19.332,18.88,0.37,-2.42,4.88,-0.80,0.96,0.42,0.36,0.45,0.19,71.00,389.00,342.00,592.00,950.00,1984.00,2069.00,2993.00,,,,,,,,,,,,0,0,0,,-1300,15800,3308,-94,197,-163
19.353,18.93,0.37,-0.35,2.21,-0.15,0.31,0.42,0.07,0.19,0.26,79.00,385.00,350.00,587.00,965.00,1999.00,2071.00,3019.00,,,,,,,,,,,,0,0,0,,-1280,15644,3332,-150,194,-159
19.414,18.99,0.35,0.73,0.72,0.86,-1.05,-0.10,0.32,-0.10,0.41,84.00,384.00,370.00,585.00,961.00,2027.00,2065.00,3041.00,,,,,,,,,,,,0,0,0,,-1368,15756,3344,-185,85,-145
19.475,19.04,0.33,-1.15,2.25,-1.52,0.77,0.01,0.48,-0.06,0.38,80.00,397.00,350.00,612.00,951.00,2010.00,2067.00,3039.00,,,,,,,,,,,,0,0,0,,-1240,15840,3300,-97,19,-113
19.535,19.10,0.34,0.52,0.35,-0.35,0.22,0.44,-0.11,0.08,0.04,86.00,391.00,353.00,593.00,974.00,2007.00,2100.00,3050.00,,,,,,,,,,,,0,0,0,,-1336,15700,3564,-137,158,-248
19.617,19.15,0.32,2.22,-1.86,1.23,-1.48,-0.06,0.20,-0.26,0.29,94.00,388.00,376.00,583.00,967.00,2031.00,2085.00,3071.00,,,,,,,,,,,,0,0,0,,-1344,15656,3328,-142,68,-269
19.638,19.21,0.30,-1.65,3.37,-0.27,-0.01,-0.08,0.63,0.14,0.34,76.00,393.00,357.00,595.00,945.00,2009.00,2064.00,3018.00,,,,,,,,,,,,0,0,0,,-1272,15780,3396,-135,50,-231
19.679,19.26,0.31,-1.85,5.22,-1.04,1.36,0.57,0.14,0.42,0.26,69.00,377.00,336.00,591.00,959.00,1984.00,2063.00,2992.00,,,,,,,,,,,,0,0,0,,-1304,15636,3364,-75,149,-235
19.741,19.32,0.32,-1.10,2.47,1.49,-0.55,0.44,0.16,0.35,0.36,79.00,394.00,356.00,563.00,960.00,1993.00,2054.00,2992.00,,,,,,,,,,,,0,0,0,,-1336,15760,3340,-65,149,-183
19.803,19.37,0.30,-1.82,4.68,0.44,-0.04,0.01,0.75,0.38,0.55,71.00,382.00,353.00,579.00,937.00,1995.00,2032.00,2973.00,,,,,,,,,,,,0,0,0,,-1408,15636,3488,-69,115,-204
19.865,19.43,0.31,-1.94,5.25,-0.76,1.27,0.40,0.43,0.69,0.25,69.00,378.00,336.00,586.00,947.00,1982.00,2053.00,2960.00,,,,,,,,,,,,0,0,0,,-1420,15820,3412,-11,149,-228
19.906,19.48,0.33,0.19,2.51,0.45,0.59,0.77,-0.02,0.49,0.28,77.00,374.00,341.00,569.00,964.00,1977.00,2057.00,2981.00,,,,,,,,,,,,0,0,0,,-1256,15600,3340,-54,121,-108
20.008,19.54,0.32,-0.33,3.17,1.63,-0.96,0.07,0.52,0.27,0.52,75.00,375.00,363.00,566.00,948.00,2003.00,2039.00,2988.00,,,,,,,,,,,,0,0,0,,-1280,15720,3392,-56,177,-179
20.029,19.59,0.31,-3.25,5.16,-0.13,0.10,0.21,0.57,0.37,0.32,71.00,399.00,354.00,590.00,943.00,1989.00,2058.00,2993.00,,,,,,,,,,,,0,0,0,,-1340,15752,3360,-38,150,-163
20.07,19.65,0.33,-1.15,3.69,-0.17,0.86,0.67,-0.20,0.40,0.21,74.00,382.00,340.00,579.00,975.00,1994.00,2069.00,2998.00,,,,,,,,,,,,0,0,0,,-1444,15808,3360,-43,107,-123
20.133,19.70,0.32,0.81,1.59,1.28,-1.09,0.10,0.26,0.04,0.40,80.00,374.00,368.00,576.00,961.00,2015.00,2061.00,3025.00,,,,,,,,,,,,0,0,0,,-1300,15692,3248,-74,185,-144
20.174,19.76,0.30,-2.50,4.91,-1.00,0.44,0.02,0.60,0.11,0.39,71.00,390.00,353.00,605.00,945.00,2003.00,2059.00,3017.00,,,,,,,,,,,,0,0,0,,-1336,15848,3216,-53,139,-127
20.236,19.81,0.31,-0.33,3.17,-0.95,1.17,0.44,0.03,0.18,0.18,75.00,375.00,339.00,592.00,967.00,2000.00,2081.00,3027.00,,,,,,,,,,,,0,0,0,,-1320,15680,3396,-133,126,-161
20.297,19.87,0.29,0.57,1.44,0.79,-0.63,-0.02,0.26,-0.23,0.45,81.00,379.00,362.00,580.00,963.00,2024.00,2066.00,3054.00,,,,,,,,,,,,0,0,0,,-1284,15692,3524,-95,126,-131
20.36,19.92,0.26,-0.59,2.77,-0.07,-0.18,-0.41,0.64,-0.28,0.42,77.00,383.00,359.00,593.00,950.00,2035.00,2071.00,3062.00,,,,,,,,,,,,0,0,0,,-1296,15700,3284,-68,199,-113
20.421,19.98,0.25,-1.37,4.02,-1.48,1.51,0.13,0.09,-0.08,0.19,73.00,382.00,336.00,599.00,969.00,2021.00,2089.00,3057.00,,,,,,,,,,,,0,0,0,,-1404,15860,3240,-122,163,-313
20.484,20.03,0.25,0.60,1.21,0.51,-0.53,0.27,-0.06,-0.17,0.36,82.00,381.00,362.00,585.00,975.00,2019.00,2073.00,3053.00,,,,,,,,,,,,0,0,0,,-1320,15692,3432,-131,85,-167
20.547,20.09,0.24,-0.85,3.34,0.71,-0.70,-0.05,0.37,-0.01,0.54,75.00,381.00,364.00,583.00,958.00,2021.00,2047.00,3020.00,,,,,,,,,,,,0,0,0,,-1348,15644,3472,-149,133,-214
20.568,20.14,0.25,-1.94,5.25,-0.90,1.10,0.42,0.07,0.35,0.36,69.00,378.00,340.00,592.00,965.00,1999.00,2054.00,2992.00,,,,,,,,,,,,0,0,0,,-1420,15648,3492,-83,151,-122
20.63,20.20,0.26,-1.22,4.48,-0.27,1.00,0.51,-0.05,0.40,0.31,71.00,375.00,338.00,579.00,970.00,1999.00,2058.00,2990.00,,,,,,,,,,,,0,0,0,,-1244,15796,3396,-67,178,-99
20.734,20.25,0.25,1.01,1.30,1.06,-0.77,0.08,0.36,0.23,0.46,81.00,374.00,363.00,576.00,956.00,2011.00,2047.00,2998.00,,,,,,,,,,,,0,0,0,,-1228,15688,3356,-46,159,-27
20.755,20.31,0.25,-1.99,4.74,-0.57,0.61,0.13,0.58,0.24,0.53,71.00,384.00,347.00,592.00,944.00,1995.00,2039.00,2991.00,,,,,,,,,,,,0,0,0,,-1280,15672,3308,-55,178,-135
20.796,20.36,0.26,-1.94,5.25,-1.59,1.55,0.57,0.02,0.33,0.19,69.00,378.00,336.00,601.00,965.00,1990.00,2074.00,3008.00,,,,,,,,,,,,0,0,0,,-1324,15732,3376,-131,93,-166
20.837,20.42,0.25,1.27,1.21,1.66,-1.07,0.11,0.39,0.15,0.42,81.00,371.00,365.00,567.00,954.00,2007.00,2055.00,3011.00,,,,,,,,,,,,0,0,0,,-1348,15752,3288,-141,44,-234
20.898,20.47,0.25,-1.63,4.10,-0.08,0.08,0.10,0.49,0.15,0.49,73.00,385.00,354.00,589.00,949.00,2002.00,2047.00,3005.00,,,,,,,,,,,,0,0,0,,-1352,15736,3452,-148,16,-157
20.96,20.53,0.25,-1.36,4.79,-1.00,1.24,0.31,0.25,0.25,0.30,70.00,374.00,338.00,592.00,958.00,1999.00,2064.00,3008.00,,,,,,,,,,,,0,0,0,,-1320,15600,3468,-180,165,-180
21.021,20.58,0.25,2.98,-1.31,1.93,-1.66,0.26,0.09,0.00,0.39,90.00,371.00,375.00,570.00,967.00,2011.00,2064.00,3031.00,,,,,,,,,,,,0,0,0,,-1328,15768,3416,-132,149,-110
21.103,20.64,0.22,0.82,0.69,0.55,-0.85,-0.29,0.62,-0.24,0.55,84.00,383.00,368.00,589.00,949.00,2026.00,2055.00,3047.00,,,,,,,,,,,,0,0,0,,-1424,15804,3436,-52,157,-148
21.124,20.69,0.22,-6.22,11.56,-1.46,1.18,0.18,0.25,-0.08,0.33,53.00,378.00,342.00,604.00,960.00,2009.00,2073.00,3045.00,,,,,,,,,,,,0,0,0,,-1280,15808,3304,-72,128,-184
21.226,20.75,0.23,-0.16,2.62,-0.48,0.43,0.31,-0.10,-0.25,0.33,77.00,378.00,350.00,593.00,976.00,2017.00,2080.00,3066.00,,,,,,,,,,,,0,0,0,,-1408,15656,3512,-4,121,-254
21.246,20.80,0.20,-0.06,1.88,0.34,-0.73,-0.39,0.38,-0.63,0.52,80.00,384.00,367.00,592.00,963.00,2047.00,2073.00,3097.00,,,,,,,,,,,,0,0,0,,-1308,15748,3272,-118,67,-98
21.287,20.86,0.17,-3.06,5.36,-1.56,0.47,-0.24,0.39,-0.36,0.43,70.00,394.00,356.00,618.00,960.00,2035.00,2073.00,3071.00,,,,,,,,,,,,0,0,0,,-1420,15716,3516,-143,28,-173
21.348,20.91,0.19,-1.16,4.20,-0.80,0.96,0.43,-0.14,0.24,0.14,72.00,377.00,342.00,592.00,976.00,2010.00,2083.00,3023.00,,,,,,,,,,,,0,0,0,,-1408,15764,3416,-80,175,-171
21.389,20.97,0.18,0.77,1.15,1.53,-1.08,-0.00,0.33,-0.11,0.51,82.00,379.00,366.00,570.00,959.00,2019.00,2055.00,3035.00,,,,,,,,,,,,0,0,0,,-1360,15776,3288,-80,188,-171
21.472,21.02,0.17,-2.08,4.77,-0.25,0.09,0.00,0.58,0.16,0.56,71.00,385.00,355.00,593.00,946.00,2005.00,2039.00,2998.00,,,,,,,,,,,,0,0,0,,-1280,15716,3352,-77,118,-148
21.512,21.08,0.19,-2.57,6.28,-0.99,1.29,0.56,-0.03,0.43,0.23,66.00,377.00,337.00,591.00,968.00,1994.00,2065.00,2992.00,,,,,,,,,,,,0,0,0,,-1360,15740,3476,-102,223,-82
21.573,21.13,0.19,0.02,3.05,0.55,0.18,0.16,0.35,0.22,0.31,75.00,371.00,348.00,573.00,955.00,2005.00,2064.00,3011.00,,,,,,,,,,,,0,0,0,,-1348,15636,3224,-61,182,-153
21.634,21.19,0.17,-2.25,4.82,-0.79,0.37,-0.04,0.54,0.05,0.56,71.00,387.00,353.00,601.00,949.00,2011.00,2043.00,3011.00,,,,,,,,,,,,0,0,0,,-1372,15772,3224,-84,0,-132
21.696,21.24,0.19,-2.24,5.89,-1.14,1.45,0.49,0.20,0.35,0.31,67.00,376.00,335.00,592.00,957.00,1987.00,2059.00,2995.00,,,,,,,,,,,,0,0,0,,-1384,15720,3528,-98,52,-210
21.716,21.30,0.20,0.81,2.30,0.23,0.45,0.39,0.04,0.09,0.37,77.00,367.00,345.00,576.00,967.00,2003.00,2062.00,3021.00,,,,,,,,,,,,0,0,0,,-1456,15672,3472,-15,80,-118
21.776,21.35,0.18,0.34,1.98,1.01,-0.70,-0.19,0.57,-0.18,0.60,79.00,377.00,362.00,576.00,950.00,2021.00,2047.00,3035.00,,,,,,,,,,,,0,0,0,,-1380,15776,3432,-72,162,-89
21.858,21.41,0.17,-0.17,2.16,-0.89,0.45,-0.09,0.44,-0.07,0.44,79.00,383.00,352.00,602.00,955.00,2020.00,2061.00,3035.00,,,,,,,,,,,,0,0,0,,-1236,15748,3132,-102,242,-90
21.88,21.46,0.18,-0.51,2.74,-0.42,0.83,0.41,-0.13,-0.02,0.24,77.00,382.00,342.00,585.00,976.00,2011.00,2081.00,3045.00,,,,,,,,,,,,0,0,0,,-1376,15780,3216,-129,149,-67
21.963,21.52,0.15,0.43,1.26,0.49,-0.83,-0.39,0.42,-0.53,0.54,82.00,383.00,368.00,590.00,961.00,2045.00,2067.00,3083.00,,,,,,,,,,,,0,0,0,,-1428,15908,3456,-89,114,-124
22.024,21.57,0.12,-4.43,7.48,-0.98,0.23,-0.40,0.60,-0.48,0.46,64.00,393.00,357.00,608.00,952.00,2036.00,2074.00,3083.00,,,,,,,,,,,,0,0,0,,-1132,15640,3316,-179,90,-50
22.065,21.63,0.13,-1.58,3.83,-2.02,1.64,0.28,-0.13,-0.21,0.21,74.00,387.00,337.00,610.00,978.00,2021.00,2092.00,3071.00,,,,,,,,,,,,0,0,0,,-1220,15616,3368,-229,8,-215
22.128,21.68,0.16,0.72,1.62,1.30,-1.25,0.64,-0.68,-0.12,0.38,80.00,375.00,371.00,578.00,1001.00,2022.00,2070.00,3047.00,,,,,,,,,,,,0,0,0,,-1436,15608,3460,-244,129,-214
22.208,21.74,0.15,-0.89,3.11,-0.35,0.22,-0.06,0.48,-0.06,0.56,76.00,384.00,353.00,593.00,952.00,2015.00,2047.00,3024.00,,,,,,,,,,,,0,0,0,,-1340,15580,3388,-148,132,-211
22.229,21.79,0.16,1.39,5.52,-1.04,1.36,0.34,0.37,0.24,0.36,64.00,329.00,336.00,591.00,951.00,1990.00,2058.00,3005.00,,,,,,,,,,,,0,0,0,,-1368,15796,3484,-109,120,-184
22.271,21.85,0.16,0.40,2.20,0.23,0.45,0.31,0.21,0.11,0.41,78.00,374.00,345.00,576.00,960.00,2001.00,2057.00,3016.00,,,,,,,,,,,,0,0,0,,-1508,15780,3320,-77,101,-68
22.353,21.90,0.15,-0.42,2.71,0.53,-0.18,-0.19,0.69,-0.14,0.68,77.00,381.00,355.00,579.00,944.00,2015.00,2037.00,3024.00,,,,,,,,,,,,0,0,0,,-1284,15852,3312,-2,108,-113
22.414,21.96,0.14,-2.90,6.96,-0.96,1.12,0.07,0.48,0.04,0.40,64.00,375.00,340.00,593.00,950.00,2005.00,2061.00,3025.00,,,,,,,,,,,,0,0,0,,-1244,15764,3312,-60,62,-149
22.435,22.01,0.15,0.05,2.32,-0.47,0.85,0.39,0.06,0.10,0.33,78.00,378.00,342.00,586.00,966.00,2002.00,2067.00,3024.00,,,,,,,,,,,,0,0,0,,-1420,15776,3376,-77,31,-210
22.496,22.07,0.14,1.21,1.00,0.91,-0.87,-0.20,0.38,-0.24,0.47,82.00,374.00,366.00,581.00,960.00,2032.00,2064.00,3053.00,,,,,,,,,,,,0,0,0,,-1272,15628,3336,-59,54,-211
22.558,22.12,0.11,-0.28,1.73,-0.88,0.14,-0.32,0.69,-0.18,0.48,81.00,389.00,358.00,607.00,946.00,2025.00,2061.00,3046.00,,,,,,,,,,,,0,0,0,,-1388,15752,3436,-92,120,-181
22.618,22.18,0.12,-2.03,5.28,-1.15,1.35,0.31,-0.10,0.04,0.13,69.00,379.00,337.00,594.00,976.00,2017.00,2091.00,3047.00,,,,,,,,,,,,0,0,0,,-1380,15672,3340,-132,164,-176
22.661,22.23,0.11,0.43,1.26,1.06,-0.77,-0.16,0.27,-0.47,0.32,82.00,383.00,363.00,576.00,965.00,2035.00,2089.00,3093.00,,,,,,,,,,,,0,0,0,,-1500,15732,3240,-86,97,-181
22.702,22.29,0.08,-1.31,3.25,-0.74,0.30,-0.53,0.76,-0.62,0.59,76.00,389.00,354.00,601.00,946.00,2038.00,2065.00,3090.00,,,,,,,,,,,,0,0,0,,-1260,15708,3312,-86,111,-165
22.764,22.34,0.07,-1.65,4.62,-1.38,1.37,-0.07,0.31,-0.48,0.40,71.00,380.00,338.00,599.00,961.00,2025.00,2081.00,3088.00,,,,,,,,,,,,0,0,0,,-1424,15572,3288,-108,144,-109
22.827,22.40,0.07,0.37,1.74,-0.11,0.24,0.03,-0.23,-0.78,0.46,80.00,379.00,351.00,587.00,988.00,2047.00,2085.00,3120.00,,,,,,,,,,,,0,0,0,,-1296,15852,3300,-162,93,-302
22.888,22.45,0.04,-0.43,2.24,0.13,-0.61,-0.56,0.73,-0.69,0.71,79.00,386.00,366.00,595.00,948.00,2042.00,2054.00,3088.00,,,,,,,,,,,,0,0,0,,-1364,15728,3328,-159,113,-214
22.929,22.51,0.04,-2.76,6.07,-1.37,1.48,0.05,0.33,-0.06,0.42,67.00,382.00,336.00,597.00,958.00,2015.00,2062.00,3035.00,,,,,,,,,,,,0,0,0,,-1372,15640,3540,-85,130,-236
22.991,22.56,0.05,0.28,2.48,-0.41,0.88,0.31,0.01,-0.07,0.41,77.00,373.00,341.00,584.00,970.00,2011.00,2064.00,3038.00,,,,,,,,,,,,0,0,0,,-1396,15772,3420,-83,139,-129
23.052,22.62,0.04,1.40,0.71,0.63,-0.26,-0.20,0.44,-0.07,0.49,83.00,374.00,356.00,578.00,957.00,2029.00,2055.00,3031.00,,,,,,,,,,,,0,0,0,,-1316,15744,3448,-73,109,-177
23.114,22.67,0.04,-1.78,3.65,-2.96,1.52,0.01,0.48,-0.06,0.59,75.00,392.00,345.00,635.00,951.00,2010.00,2044.00,3022.00,,,,,,,,,,,,0,0,0,,-1432,15732,3432,-35,125,-107
23.155,22.73,0.06,1.01,1.30,-0.62,0.68,0.51,-0.13,0.17,0.29,81.00,374.00,346.00,592.00,974.00,2003.00,2069.00,3019.00,,,,,,,,,,,,0,0,0,,-1428,15652,3500,14,140,-125
23.217,22.78,0.05,3.34,-2.04,1.46,-1.35,-0.15,0.36,-0.18,0.48,93.00,373.00,372.00,576.00,960.00,2029.00,2060.00,3045.00,,,,,,,,,,,,0,0,0,,-1384,15700,3520,-37,63,-178
23.32,22.84,0.04,-0.56,2.05,0.11,-0.45,-0.24,0.70,-0.06,0.50,80.00,390.00,363.00,593.00,944.00,2018.00,2054.00,3029.00,,,,,,,,,,,,0,0,0,,-1412,15636,3408,-54,65,-259
23.341,22.89,0.05,0.02,3.05,-1.04,1.36,0.24,0.33,-0.07,0.40,75.00,371.00,336.00,591.00,955.00,2000.00,2065.00,3038.00,,,,,,,,,,,,0,0,0,,-1288,15692,3400,-52,59,-171
23.362,22.95,0.05,-0.19,3.37,0.42,0.17,0.11,0.22,-0.28,0.48,74.00,371.00,349.00,576.00,963.00,2016.00,2064.00,3057.00,,,,,,,,,,,,0,0,0,,-1452,15636,3484,-105,130,-212
23.423,23.00,0.02,-1.36,3.51,-0.22,0.28,-0.45,0.75,-0.42,0.62,75.00,387.00,351.00,589.00,945.00,2032.00,2054.00,3063.00,,,,,,,,,,,,0,0,0,,-1432,15820,3292,-145,216,-145
23.485,23.06,0.03,-2.22,5.08,-1.65,1.51,0.10,0.18,-0.29,0.43,70.00,384.00,337.00,603.00,965.00,2019.00,2070.00,3062.00,,,,,,,,,,,,0,0,0,,-1444,15712,3444,-138,165,-147
23.526,23.11,0.02,-0.51,2.74,-0.15,0.31,-0.09,0.13,-0.53,0.46,77.00,382.00,350.00,587.00,971.00,2037.00,2076.00,3089.00,,,,,,,,,,,,0,0,0,,-1376,15736,3328,-114,153,-150
23.588,23.17,-0.01,-0.64,2.55,0.23,-0.69,-0.71,0.55,-0.92,0.68,78.00,386.00,367.00,594.00,960.00,2064.00,2066.00,3119.00,,,,,,,,,,,,0,0,0,,-1428,15660,3484,-61,101,-74
23.692,23.22,-0.04,-1.06,2.69,-1.84,0.83,-0.49,0.57,-0.88,0.62,78.00,391.00,351.00,619.00,955.00,2045.00,2071.00,3119.00,,,,,,,,,,,,0,0,0,,-1432,15904,3340,-153,144,-273
23.752,23.28,-0.03,-0.43,2.24,-1.09,1.00,0.14,-0.15,-0.39,0.24,79.00,386.00,343.00,598.00,982.00,2034.00,2095.00,3090.00,,,,,,,,,,,,0,0,0,,-1468,15668,3324,-126,87,-143
23.793,23.33,-0.04,1.85,-0.93,1.00,-1.00,-0.33,0.46,-0.36,0.53,90.00,384.00,368.00,581.00,958.00,2038.00,2062.00,3063.00,,,,,,,,,,,,0,0,0,,-1380,15616,3488,-103,158,-156
23.814,23.39,-0.06,-1.40,3.28,-0.94,0.47,-0.33,0.83,-0.00,0.48,76.00,390.00,352.00,603.00,939.00,2018.00,2054.00,3024.00,,,,,,,,,,,,0,0,0,,-1452,15740,3444,-80,224,-120
23.857,23.44,-0.03,-8.17,15.24,-1.07,1.54,0.41,0.08,0.28,0.26,45.00,370.00,333.00,589.00,965.00,2000.00,2067.00,3007.00,,,,,,,,,,,,0,0,0,,-1400,15732,3456,-92,198,-136
23.918,23.50,-0.02,0.72,1.62,0.68,0.25,0.21,0.24,-0.05,0.61,80.00,375.00,346.00,569.00,960.00,2007.00,2041.00,3019.00,,,,,,,,,,,,0,0,0,,-1428,15632,3500,-74,239,-73
23.981,23.55,-0.03,-2.66,4.20,-0.33,0.32,-0.18,0.68,-0.07,0.65,74.00,400.00,351.00,591.00,944.00,2014.00,2038.00,3019.00,,,,,,,,,,,,0,0,0,,-1276,15680,3164,-26,166,-133
24.024,23.61,-0.02,-1.06,4.95,-0.96,1.50,0.14,0.48,0.25,0.37,69.00,368.00,333.00,587.00,949.00,2000.00,2057.00,3003.00,,,,,,,,,,,,0,0,0,,-1364,15840,3360,-81,27,-170
24.084,23.66,-0.01,-0.16,2.62,0.20,0.57,0.28,0.20,-0.01,0.49,77.00,378.00,343.00,575.00,961.00,2004.00,2053.00,3024.00,,,,,,,,,,,,0,0,0,,-1360,15708,3396,-74,37,-275
24.145,23.72,-0.02,-0.04,2.34,4.62,-1.55,-0.21,0.67,-0.14,0.62,78.00,379.00,355.00,511.00,945.00,2017.00,2043.00,3029.00,,,,,,,,,,,,0,0,0,,-1444,15692,3324,-97,-7,-207
24.208,23.77,-0.02,-3.20,5.94,-1.03,1.03,-0.14,0.61,-0.20,0.53,68.00,390.00,342.00,596.00,947.00,2015.00,2055.00,3043.00,,,,,,,,,,,,0,0,0,,-1436,15780,3380,-105,90,-176
24.249,23.83,-0.01,-1.10,3.43,-0.67,1.08,0.20,0.11,-0.16,0.41,75.00,384.00,339.00,587.00,967.00,2015.00,2068.00,3049.00,,,,,,,,,,,,0,0,0,,-1460,15696,3236,-114,144,-165
24.311,23.88,-0.04,0.69,1.18,0.77,-0.92,-0.47,0.51,-0.61,0.61,82.00,380.00,368.00,585.00,958.00,2047.00,2062.00,3087.00,,,,,,,,,,,,0,0,0,,-1400,15660,3404,-84,78,-133
24.436,23.94,-0.05,-0.55,1.37,-0.70,-0.12,-0.34,0.52,-0.41,0.51,83.00,397.00,362.00,607.00,955.00,2036.00,2066.00,3071.00,,,,,,,,,,,,0,0,0,,-1384,15740,3356,-110,96,-165
24.456,23.99,-0.04,-0.80,3.08,-1.31,1.46,0.23,-0.07,-0.44,0.34,76.00,383.00,336.00,596.00,976.00,2022.00,2086.00,3088.00,,,,,,,,,,,,0,0,0,,-1372,15608,3500,-66,138,-98
24.477,24.05,-0.05,0.34,1.29,0.09,-0.24,-0.38,0.25,-0.84,0.56,82.00,384.00,359.00,590.00,970.00,2054.00,2077.00,3120.00,,,,,,,,,,,,0,0,0,,-1432,15968,3300,-139,106,-129
24.518,24.10,-0.06,-1.10,2.94,-0.51,0.28,-0.20,0.19,-0.59,0.59,77.00,389.00,353.00,596.00,970.00,2043.00,2063.00,3085.00,,,,,,,,,,,,0,0,0,,-1476,15800,3556,-162,120,-189
24.58,24.16,-0.05,-2.46,5.42,-1.09,1.38,0.08,0.34,-0.01,0.42,69.00,384.00,336.00,592.00,957.00,2012.00,2061.00,3030.00,,,,,,,,,,,,0,0,0,,-1408,15664,3424,-91,168,-195
24.662,24.21,-0.05,0.40,2.20,0.45,0.32,0.11,0.33,-0.04,0.44,78.00,374.00,346.00,573.00,957.00,2010.00,2059.00,3031.00,,,,,,,,,,,,0,0,0,,-1424,15776,3520,-110,176,-143
24.703,24.27,-0.06,-1.10,3.43,0.51,0.04,-0.23,0.76,-0.19,0.73,75.00,384.00,351.00,576.00,941.00,2014.00,2033.00,3026.00,,,,,,,,,,,,0,0,0,,-1492,15728,3396,-92,125,-127
24.765,24.32,-0.05,-2.37,5.39,-1.09,1.38,0.05,0.60,0.08,0.57,69.00,383.00,336.00,592.00,944.00,2000.00,2041.00,3007.00,,,,,,,,,,,,0,0,0,,-1340,15776,3492,-78,151,-3
24.827,24.38,-0.03,-0.59,2.77,-0.59,1.21,0.29,0.15,0.15,0.36,77.00,383.00,336.00,583.00,963.00,2005.00,2061.00,3015.00,,,,,,,,,,,,0,0,0,,-1368,15596,3392,-25,183,-144
24.848,24.43,-0.03,-0.14,1.91,1.06,-0.77,-0.05,0.45,-0.14,0.52,80.00,385.00,363.00,576.00,954.00,2017.00,2054.00,3037.00,,,,,,,,,,,,0,0,0,,-1424,15760,3324,-78,70,-188
24.909,24.49,-0.04,-1.35,3.02,-1.75,1.12,-0.13,0.68,-0.01,0.60,77.00,392.00,345.00,612.00,943.00,2010.00,2041.00,3015.00,,,,,,,,,,,,0,0,0,,-1392,15728,3432,-86,54,-210
24.972,24.54,-0.02,-0.55,3.00,-0.81,1.34,0.32,0.18,0.16,0.23,76.00,380.00,335.00,586.00,961.00,2001.00,2076.00,3025.00,,,,,,,,,,,,0,0,0,,-1440,15756,3412,-66,48,-201
25.033,24.60,-0.03,0.43,1.26,0.88,-0.50,-0.17,0.46,-0.32,0.55,82.00,383.00,359.00,576.00,955.00,2025.00,2058.00,3056.00,,,,,,,,,,,,0,0,0,,-1380,15736,3320,-97,125,-164
25.075,24.65,-0.04,-0.65,2.08,0.12,-0.40,-0.26,0.69,-0.28,0.64,80.00,391.00,362.00,592.00,945.00,2020.00,2047.00,3045.00,,,,,,,,,,,,0,0,0,,-1476,15656,3396,-102,173,-159
25.137,24.71,-0.03,-1.54,4.07,-1.14,1.45,0.11,0.39,-0.14,0.35,73.00,384.00,335.00,592.00,954.00,2007.00,2073.00,3051.00,,,,,,,,,,,,0,0,0,,-1448,15688,3332,-115,116,-114
25.199,24.76,-0.03,1.47,-0.18,0.36,-0.12,-0.01,0.22,-0.40,0.50,87.00,382.00,355.00,582.00,965.00,2026.00,2067.00,3071.00,,,,,,,,,,,,0,0,0,,-1384,15512,3428,-74,116,-181
25.261,24.82,-0.05,0.54,1.00,0.34,-0.73,-0.50,0.73,-0.60,0.59,83.00,384.00,367.00,592.00,947.00,2037.00,2064.00,3087.00,,,,,,,,,,,,0,0,0,,-1332,15816,3276,-128,118,-149
25.303,24.87,-0.05,-0.14,1.91,-0.46,0.26,-0.00,0.33,-0.24,0.43,80.00,385.00,353.00,595.00,959.00,2019.00,2068.00,3056.00,,,,,,,,,,,,0,0,0,,-1448,15612,3444,-124,120,-171
25.365,24.93,-0.03,0.49,1.47,0.64,-0.22,0.43,-0.08,0.04,0.37,81.00,380.00,355.00,577.00,973.00,2007.00,2064.00,3027.00,,,,,,,,,,,,0,0,0,,-1448,15532,3520,-126,128,-223
25.428,24.98,-0.04,1.36,0.29,1.10,-0.83,-0.25,0.49,-0.12,0.52,85.00,379.00,364.00,576.00,955.00,2030.00,2054.00,3035.00,,,,,,,,,,,,0,0,0,,-1404,15780,3436,-129,132,-162
25.51,25.04,-0.04,-0.16,1.46,-0.52,0.23,-0.09,0.61,-0.01,0.58,82.00,390.00,354.00,597.00,946.00,2011.00,2043.00,3017.00,,,,,,,,,,,,0,0,0,,-1420,15848,3388,-118,118,-144
25.53,25.09,-0.02,0.66,1.41,0.25,0.23,0.44,0.03,0.27,0.28,81.00,378.00,349.00,579.00,967.00,2000.00,2066.00,3008.00,,,,,,,,,,,,0,0,0,,-1352,15880,3508,-44,134,-146
25.572,25.15,-0.02,1.29,0.10,1.22,-0.62,-0.10,0.44,-0.15,0.59,86.00,382.00,359.00,570.00,955.00,2021.00,2047.00,3033.00,,,,,,,,,,,,0,0,0,,-1416,15512,3292,-83,94,-112
25.634,25.20,-0.02,-0.85,2.38,-0.94,0.84,0.00,0.62,0.07,0.59,79.00,391.00,345.00,597.00,944.00,2003.00,2039.00,3006.00,,,,,,,,,,,,0,0,0,,-1348,15720,3480,-144,73,-167
25.675,25.26,-0.00,-1.02,3.40,-1.02,1.52,0.32,0.32,0.20,0.29,75.00,383.00,333.00,588.00,954.00,1994.00,2067.00,3015.00,,,,,,,,,,,,0,0,0,,-1460,15664,3368,-101,65,-208
25.736,25.31,0.01,0.34,1.98,0.58,0.33,0.18,0.29,-0.09,0.49,79.00,377.00,345.00,570.00,958.00,2007.00,2056.00,3034.00,,,,,,,,,,,,0,0,0,,-1324,15664,3360,-43,75,-176
25.798,25.37,-0.01,-0.81,2.60,0.12,-0.09,-0.26,0.73,-0.21,0.62,78.00,388.00,356.00,587.00,943.00,2018.00,2046.00,3037.00,,,,,,,,,,,,0,0,0,,-1464,15744,3308,-117,145,-153
25.879,25.42,-0.01,-2.78,5.80,-1.26,1.44,-0.03,0.51,-0.09,0.43,68.00,385.00,336.00,595.00,950.00,2011.00,2063.00,3039.00,,,,,,,,,,,,0,0,0,,-1404,15624,3376,-137,142,-135
25.899,25.48,-0.00,-3.34,6.82,-0.09,0.66,0.15,0.13,-0.27,0.37,65.00,383.00,343.00,580.00,967.00,2018.00,2076.00,3065.00,,,,,,,,,,,,0,0,0,,-1276,15672,3448,-162,104,-127
25.981,25.53,-0.02,-0.65,2.08,0.57,-0.50,-0.44,0.58,-0.23,0.51,80.00,391.00,361.00,583.00,954.00,2041.00,2059.00,3049.00,,,,,,,,,,,,0,0,0,,-1412,15856,3456,-83,110,-100
26.022,25.59,-0.04,-10.97,17.02,-1.54,1.04,-0.36,0.45,-0.51,0.44,43.00,394.00,345.00,608.00,959.00,2041.00,2077.00,3088.00,,,,,,,,,,,,0,0,0,,-1304,15540,3388,-105,132,-115
26.082,25.64,-0.02,-0.06,1.88,-1.08,1.05,0.27,-0.22,-0.33,0.21,80.00,384.00,342.00,597.00,983.00,2027.00,2096.00,3085.00,,,,,,,,,,,,0,0,0,,-1336,15696,3468,-132,68,-204
26.144,25.70,-0.03,0.17,1.35,0.66,-0.89,-0.21,0.42,-0.46,0.58,82.00,386.00,368.00,587.00,958.00,2031.00,2060.00,3071.00,,,,,,,,,,,,0,0,0,,-1356,15712,3448,-98,96,-167
26.228,25.75,-0.04,-2.03,3.74,-1.17,0.82,-0.16,0.68,0.00,0.58,75.00,395.00,347.00,603.00,944.00,2013.00,2042.00,3015.00,,,,,,,,,,,,0,0,0,,-1436,15648,3432,-74,135,-151
26.248,25.81,-0.02,-2.05,5.02,-0.76,1.27,0.46,0.10,0.31,0.30,70.00,382.00,336.00,586.00,963.00,1995.00,2062.00,3001.00,,,,,,,,,,,,0,0,0,,-1336,15656,3428,-86,106,-155
26.331,25.86,0.00,2.29,-1.28,1.80,-1.27,0.31,0.27,0.16,0.49,91.00,381.00,368.00,567.00,957.00,1998.00,2046.00,3003.00,,,,,,,,,,,,0,0,0,,-1364,15472,3408,-70,173,-154
26.352,25.92,-0.01,-0.47,2.49,0.17,0.42,-0.14,0.86,0.14,0.63,78.00,384.00,346.00,578.00,934.00,2001.00,2032.00,2995.00,,,,,,,,,,,,0,0,0,,-1400,15576,3544,9,133,-143
26.392,25.97,0.02,0.03,1.85,-0.26,0.72,0.50,0.30,0.33,0.45,80.00,383.00,343.00,583.00,952.00,1981.00,2045.00,2987.00,,,,,,,,,,,,0,0,0,,-1380,15672,3348,-76,98,-84
26.454,26.03,0.04,-0.37,2.94,0.90,0.12,0.37,0.22,0.25,0.39,76.00,378.00,347.00,566.00,958.00,1995.00,2054.00,3001.00,,,,,,,,,,,,0,0,0,,-1304,15724,3312,-44,65,-210
26.517,26.08,0.03,-1.10,3.43,0.39,0.03,-0.07,0.70,0.01,0.67,75.00,384.00,352.00,579.00,941.00,2004.00,2032.00,3007.00,,,,,,,,,,,,0,0,0,,-1488,15736,3544,-82,64,-224
26.622,26.14,0.03,-2.31,5.11,-0.81,1.29,0.02,0.67,0.08,0.56,70.00,385.00,336.00,587.00,941.00,1999.00,2042.00,3008.00,,,,,,,,,,,,0,0,0,,-1472,15740,3300,-66,78,-153
26.641,26.19,0.05,-1.80,4.16,0.26,-0.03,0.32,0.22,0.09,0.36,73.00,387.00,354.00,583.00,959.00,1999.00,2064.00,3023.00,,,,,,,,,,,,0,0,0,,-1296,15640,3448,-101,173,-140
26.683,26.25,0.04,1.22,-0.09,1.06,-0.77,-0.15,0.44,-0.29,0.56,87.00,385.00,363.00,576.00,956.00,2025.00,2055.00,3051.00,,,,,,,,,,,,0,0,0,,-1400,15656,3516,-111,148,-139
26.746,26.30,0.03,-1.69,3.63,-1.09,0.58,-0.10,0.69,-0.12,0.51,75.00,391.00,351.00,605.00,942.00,2007.00,2055.00,3036.00,,,,,,,,,,,,0,0,0,,-1416,15672,3452,-152,151,-107
26.789,26.36,0.05,0.34,1.29,-0.44,0.36,0.37,0.17,0.12,0.21,82.00,384.00,351.00,593.00,961.00,1998.00,2079.00,3031.00,,,,,,,,,,,,0,0,0,,-1324,15828,3344,-89,157,-126
26.85,26.41,0.04,2.21,-1.46,1.13,-1.19,-0.10,0.36,-0.45,0.57,92.00,384.00,371.00,581.00,959.00,2025.00,2061.00,3071.00,,,,,,,,,,,,0,0,0,,-1252,15572,3384,-44,138,-104
26.912,26.47,0.02,-0.31,1.97,0.20,-0.83,-0.31,0.72,-0.30,0.52,80.00,387.00,370.00,597.00,944.00,2022.00,2061.00,3057.00,,,,,,,,,,,,0,0,0,,-1436,15672,3356,-95,79,-199
26.992,26.52,0.04,0.20,1.80,-0.85,1.03,0.49,0.24,0.25,0.33,80.00,381.00,341.00,592.00,955.00,1985.00,2061.00,3006.00,,,,,,,,,,,,0,0,0,,-1388,15660,3280,-58,35,-226
27.012,26.58,0.06,1.04,1.75,0.81,-0.01,0.30,0.30,0.20,0.56,79.00,369.00,350.00,570.00,955.00,1996.00,2037.00,2993.00,,,,,,,,,,,,0,0,0,,-1320,15712,3372,-47,174,-163
27.054,26.63,0.06,0.37,1.74,0.86,-0.34,0.06,0.80,0.29,0.63,80.00,379.00,356.00,574.00,934.00,1989.00,2026.00,2977.00,,,,,,,,,,,,0,0,0,,-1424,15800,3236,-70,157,-165
27.116,26.69,0.08,-2.22,6.17,0.57,0.93,0.43,0.46,0.52,0.50,66.00,373.00,334.00,561.00,945.00,1978.00,2032.00,2960.00,,,,,,,,,,,,0,0,0,,-1312,15604,3516,-90,162,-205
27.177,26.74,0.11,-0.11,2.85,0.03,1.00,0.70,0.11,0.60,0.34,76.00,375.00,336.00,572.00,958.00,1975.00,2047.00,2964.00,,,,,,,,,,,,0,0,0,,-1372,15596,3356,-69,205,-234
27.239,26.80,0.11,1.72,-0.05,1.96,-1.37,0.05,0.60,0.17,0.62,86.00,377.00,369.00,565.00,944.00,2000.00,2032.00,2992.00,,,,,,,,,,,,0,0,0,,-1360,15656,3244,-138,110,-155
27.339,26.85,0.11,0.34,1.29,-0.34,0.27,0.19,0.69,0.43,0.49,82.00,384.00,352.00,592.00,937.00,1984.00,2036.00,2971.00,,,,,,,,,,,,0,0,0,,-1332,15764,3396,-111,43,-271
27.359,26.91,0.15,-0.25,2.65,-0.19,1.08,0.84,-0.01,0.86,-0.19,77.00,379.00,336.00,576.00,962.00,1971.00,2096.00,2975.00,,,,,,,,,,,,0,0,0,,-1448,15652,3448,-128,12,-267
27.4,26.96,0.15,3.50,-2.68,2.25,-1.67,0.15,0.45,0.08,0.51,96.00,377.00,373.00,563.00,950.00,2000.00,2047.00,3011.00,,,,,,,,,,,,0,0,0,,-1480,15624,3480,-140,53,-195
27.462,27.02,0.13,-2.25,4.82,-0.41,0.51,-0.23,0.82,0.19,0.55,71.00,387.00,348.00,590.00,938.00,2011.00,2039.00,2995.00,,,,,,,,,,,,0,0,0,,-1460,15604,3508,-147,198,-134
27.502,27.07,0.14,-1.48,4.56,-0.74,1.43,0.35,0.43,0.36,0.27,71.00,378.00,333.00,583.00,948.00,1986.00,2064.00,2998.00,,,,,,,,,,,,0,0,0,,-1440,15700,3456,-166,153,-142
27.583,27.13,0.15,-0.21,2.40,0.59,0.12,0.32,0.20,0.08,0.38,78.00,381.00,349.00,573.00,960.00,2000.00,2062.00,3022.00,,,,,,,,,,,,0,0,0,,-1452,15720,3388,-134,136,-187
27.623,27.18,0.12,-1.49,3.81,0.37,-0.07,-0.33,0.85,-0.22,0.67,74.00,386.00,354.00,581.00,938.00,2017.00,2041.00,3035.00,,,,,,,,,,,,0,0,0,,-1352,15704,3516,-69,129,-112
27.727,27.24,0.12,-1.18,2.97,-0.87,0.93,0.12,0.38,0.04,0.36,77.00,390.00,343.00,594.00,954.00,2006.00,2066.00,3029.00,,,,,,,,,,,,0,0,0,,-1464,15708,3440,-171,153,-204
27.747,27.29,0.13,0.29,1.77,0.08,0.29,0.20,0.07,-0.14,0.32,80.00,380.00,349.00,582.00,969.00,2017.00,2077.00,3054.00,,,,,,,,,,,,0,0,0,,-1420,15668,3404,-219,-29,-262
27.788,27.35,0.12,1.20,0.12,1.05,-1.02,-0.05,0.41,0.01,0.45,86.00,383.00,368.00,580.00,956.00,2019.00,2057.00,3025.00,,,,,,,,,,,,0,0,0,,-1596,15708,3560,-180,11,-242
27.83,27.40,0.12,0.26,1.32,-0.68,0.33,0.10,0.59,0.42,0.24,82.00,385.00,353.00,599.00,944.00,1997.00,2064.00,2992.00,,,,,,,,,,,,0,0,0,,-1536,15644,3728,-59,130,-225
27.891,27.46,0.15,0.57,1.44,0.35,0.41,0.82,-0.23,0.74,0.14,81.00,379.00,345.00,574.00,974.00,1984.00,2064.00,2963.00,,,,,,,,,,,,0,0,0,,-1556,15752,3444,-37,198,-9
27.955,27.51,0.15,2.99,-1.92,2.13,-1.43,0.07,0.60,0.35,0.54,93.00,377.00,369.00,562.00,944.00,1999.00,2034.00,2977.00,,,,,,,,,,,,0,0,0,,-1472,15832,3588,34,306,68
28.015,27.57,0.15,-0.14,1.91,0.06,-0.12,0.14,0.77,0.49,0.52,80.00,385.00,357.00,589.00,934.00,1984.00,2031.00,2962.00,,,,,,,,,,,,0,0,0,,-1260,15824,3228,60,283,-19
28.077,27.62,0.18,-1.39,4.54,-0.19,1.08,0.75,0.17,0.77,0.17,71.00,377.00,336.00,576.00,954.00,1968.00,2059.00,2957.00,,,,,,,,,,,,0,0,0,,-1320,15628,3132,-87,145,-45
28.097,27.68,0.18,-0.02,2.82,1.13,0.31,0.22,0.53,0.42,0.42,76.00,374.00,342.00,558.00,945.00,1991.00,2045.00,2979.00,,,,,,,,,,,,0,0,0,,-1288,15776,3472,-155,108,-195
28.159,27.73,0.18,-1.56,4.59,0.81,-0.01,0.09,0.73,0.39,0.54,71.00,379.00,350.00,570.00,937.00,1990.00,2032.00,2972.00,,,,,,,,,,,,0,0,0,,-1356,15708,3156,-118,35,-220
28.22,27.79,0.20,-1.46,4.05,-0.37,1.09,0.61,0.36,0.55,0.29,73.00,383.00,337.00,580.00,947.00,1969.00,2054.00,2973.00,,,,,,,,,,,,0,0,0,,-1428,15760,3560,-71,6,-196
28.283,27.84,0.21,0.69,1.86,0.87,0.56,0.49,0.17,0.41,0.30,79.00,373.00,339.00,560.00,959.00,1989.00,2058.00,2989.00,,,,,,,,,,,,0,0,0,,-1440,15640,3360,-39,110,-166
28.346,27.90,0.20,-0.63,3.02,1.00,-0.49,-0.06,0.64,0.23,0.40,76.00,381.00,358.00,573.00,944.00,2007.00,2054.00,3003.00,,,,,,,,,,,,0,0,0,,-1332,15644,3448,-116,160,-135
28.427,27.95,0.19,-0.89,3.11,-0.26,0.35,0.09,0.49,0.20,0.32,76.00,384.00,350.00,589.00,949.00,2003.00,2064.00,3013.00,,,,,,,,,,,,0,0,0,,-1312,15736,3416,-151,146,-159
28.447,28.01,0.20,-0.89,3.11,0.71,0.67,0.34,0.14,0.15,0.25,76.00,384.00,338.00,562.00,963.00,2002.00,2074.00,3024.00,,,,,,,,,,,,0,0,0,,-1344,15656,3384,-113,98,-278
28.508,28.06,0.18,2.56,-1.97,1.50,-1.42,-0.20,0.49,-0.28,0.48,94.00,384.00,373.00,576.00,954.00,2026.00,2064.00,3057.00,,,,,,,,,,,,0,0,0,,-1344,15928,3332,-144,77,-133
28.57,28.12,0.17,0.00,0.74,0.11,-0.45,-0.12,0.59,-0.30,0.86,85.00,395.00,363.00,593.00,948.00,2015.00,2023.00,3029.00,,,,,,,,,,,,0,0,0,,-1380,15596,3508,-129,30,-240
28.632,28.17,0.18,0.66,1.41,-0.13,0.41,0.39,0.28,0.57,0.10,81.00,378.00,348.00,585.00,955.00,1991.00,2075.00,2987.00,,,,,,,,,,,,0,0,0,,-1336,15748,3464,-88,92,-259
28.654,28.23,0.16,0.72,1.62,1.27,-0.43,-0.11,0.87,0.27,0.48,80.00,375.00,355.00,566.00,933.00,1998.00,2044.00,2992.00,,,,,,,,,,,,0,0,0,,-1552,15668,3544,-127,78,-191
28.714,28.28,0.15,-0.72,3.55,0.71,0.08,-0.02,0.83,0.40,0.52,74.00,377.00,349.00,571.00,934.00,1994.00,2034.00,2973.00,,,,,,,,,,,,0,0,0,,-1420,15776,3428,-139,109,-137
28.818,28.34,0.17,-1.13,4.45,-0.29,1.22,0.43,0.46,0.61,0.34,71.00,374.00,334.00,576.00,945.00,1978.00,2046.00,2962.00,,,,,,,,,,,,0,0,0,,-1504,15864,3424,-60,117,-93
28.838,28.39,0.17,0.78,1.83,0.82,0.63,0.30,0.40,0.31,0.45,79.00,372.00,338.00,560.00,950.00,1991.00,2045.00,2989.00,,,,,,,,,,,,0,0,0,,-1416,15680,3456,-61,115,-136
28.879,28.45,0.17,0.80,0.92,1.32,-0.49,0.05,0.60,0.28,0.54,83.00,381.00,356.00,566.00,944.00,2000.00,2037.00,2986.00,,,,,,,,,,,,0,0,0,,-1404,15744,3512,-118,103,-173
28.921,28.50,0.17,-1.94,5.25,-0.41,1.21,0.17,0.57,0.32,0.43,69.00,378.00,335.00,579.00,944.00,1993.00,2047.00,2989.00,,,,,,,,,,,,0,0,0,,-1352,15660,3520,-72,70,-162
28.982,28.56,0.18,-0.33,2.68,-0.16,0.96,0.44,0.16,0.37,0.26,77.00,380.00,338.00,577.00,960.00,1993.00,2064.00,2997.00,,,,,,,,,,,,0,0,0,,-1424,15644,3472,-116,51,-131
29.043,28.61,0.17,0.23,1.56,1.04,-0.35,-0.04,0.54,0.05,0.46,81.00,383.00,355.00,570.00,949.00,2011.00,2054.00,3019.00,,,,,,,,,,,,0,0,0,,-1424,15628,3500,-161,123,-111
29.084,28.67,0.16,-2.08,4.00,-0.57,0.61,-0.06,0.64,0.18,0.37,74.00,393.00,347.00,592.00,944.00,2007.00,2059.00,3011.00,,,,,,,,,,,,0,0,0,,-1324,15720,3376,-123,121,-112
29.185,28.72,0.17,-1.59,4.35,-0.33,0.96,0.44,0.03,0.25,0.12,72.00,382.00,339.00,581.00,967.00,2000.00,2085.00,3023.00,,,,,,,,,,,,0,0,0,,-1300,15760,3372,-156,91,-108
29.206,28.78,0.16,0.15,1.59,1.19,-0.50,-0.14,0.47,-0.21,0.47,81.00,384.00,357.00,569.00,954.00,2022.00,2063.00,3050.00,,,,,,,,,,,,0,0,0,,-1400,15772,3560,-114,83,-84
29.268,28.83,0.14,-1.86,3.68,-0.24,0.18,-0.24,0.64,-0.23,0.46,75.00,393.00,353.00,591.00,947.00,2021.00,2064.00,3052.00,,,,,,,,,,,,0,0,0,,-1324,15580,3532,-134,165,-51
29.309,28.89,0.14,-1.27,3.48,-1.15,1.40,0.26,0.24,-0.07,0.26,75.00,386.00,336.00,593.00,959.00,2003.00,2081.00,3050.00,,,,,,,,,,,,0,0,0,,-1316,15600,3452,-133,85,-165
29.371,28.94,0.15,0.46,1.71,0.71,0.08,0.19,0.21,0.13,0.34,80.00,378.00,349.00,571.00,962.00,2010.00,2064.00,3019.00,,,,,,,,,,,,0,0,0,,-1320,15668,3496,-147,125,-146
29.433,29.00,0.14,-0.85,3.34,0.68,-0.02,-0.03,0.63,-0.52,0.79,75.00,381.00,351.00,573.00,944.00,2005.00,2039.00,3061.00,,,,,,,,,,,,0,0,0,,-1344,15728,3596,-106,133,-137
29.558,29.05,0.14,-2.65,6.59,-0.48,1.18,0.28,0.51,0.40,0.41,65.00,375.00,336.00,581.00,945.00,1987.00,2046.00,2981.00,,,,,,,,,,,,0,0,0,,-1356,15652,3564,-93,107,-170
29.58,29.11,0.17,-0.11,2.85,0.56,0.55,0.57,0.08,0.47,0.27,76.00,375.00,341.00,567.00,962.00,1987.00,2059.00,2984.00,,,,,,,,,,,,0,0,0,,-1308,15640,3684,-95,136,-129
29.601,29.16,0.17,-0.06,1.88,0.90,-0.15,0.17,0.37,0.13,0.51,80.00,384.00,352.00,570.00,954.00,2003.00,2045.00,3005.00,,,,,,,,,,,,0,0,0,,-1348,15624,3580,-35,123,-129
29.642,29.22,0.16,-2.88,5.56,-0.26,0.72,0.14,0.48,0.29,0.44,69.00,389.00,343.00,583.00,949.00,2000.00,2047.00,2992.00,,,,,,,,,,,,0,0,0,,-1336,15756,3548,-74,124,-82
29.703,29.27,0.18,-1.85,5.22,0.07,0.88,0.49,0.13,0.44,0.22,69.00,377.00,338.00,573.00,961.00,1991.00,2066.00,2992.00,,,,,,,,,,,,0,0,0,,-1236,15796,3352,-61,70,-201
29.744,29.33,0.17,0.55,1.68,1.45,-0.70,0.04,0.49,0.04,0.42,80.00,377.00,359.00,566.00,950.00,2007.00,2059.00,3024.00,,,,,,,,,,,,0,0,0,,-1336,15780,3528,-54,92,-198
29.806,29.38,0.16,-2.46,5.42,0.17,0.15,-0.12,0.74,0.08,0.51,69.00,384.00,351.00,582.00,940.00,2006.00,2047.00,3011.00,,,,,,,,,,,,0,0,0,,-1412,15540,3508,-56,144,-183
29.868,29.44,0.16,-2.68,6.04,-0.58,1.27,0.24,0.33,0.19,0.31,67.00,381.00,335.00,582.00,955.00,2000.00,2065.00,3014.00,,,,,,,,,,,,0,0,0,,-1340,15628,3692,-106,206,-187
29.929,29.49,0.16,-0.25,2.65,0.63,-0.00,0.08,0.25,-0.15,0.44,77.00,379.00,351.00,574.00,962.00,2017.00,2064.00,3045.00,,,,,,,,,,,,0,0,0,,-1432,15636,3440,-132,145,-154
29.991,29.55,0.13,-0.42,2.71,-0.15,0.31,-0.41,0.66,-0.25,0.52,77.00,381.00,350.00,587.00,949.00,2034.00,2059.00,3051.00,,,,,,,,,,,,0,0,0,,-1444,15704,3564,-163,147,-144
30.031,29.60,0.11,-2.31,5.11,-1.37,1.48,-0.20,0.40,-0.14,0.31,70.00,385.00,336.00,597.00,959.00,2031.00,2078.00,3054.00,,,,,,,,,,,,1,1,0,,-1376,15788,3444,-38,181,-132
30.073,29.66,0.10,-0.29,2.91,0.13,0.22,-0.07,0.09,-0.29,0.34,76.00,377.00,350.00,582.00,973.00,2038.00,2080.00,3070.00,,,,,,,,,,,,1,1,0,,-1332,15556,3548,-98,160,-65
30.156,29.71,0.07,-0.38,2.46,0.68,-0.79,-0.50,0.44,-0.52,0.50,78.00,383.00,366.00,585.00,962.00,2053.00,2071.00,3085.00,,,,,,,,,,,,1,1,0,,-1440,15656,3604,-103,109,-214
30.197,29.77,0.06,0.93,0.43,-0.07,-0.44,-0.12,0.45,0.02,0.36,85.00,384.00,364.00,597.00,955.00,2022.00,2066.00,3031.00,,,,,,,,,,,,1,1,0,,-1452,15656,3608,-100,105,-205
30.322,29.82,0.08,1.97,0.08,0.21,0.35,0.33,0.01,0.33,0.19,85.00,372.00,347.00,578.00,970.00,2010.00,2073.00,3007.00,,,,,,,,,,,,1,1,0,,-1380,15692,3516,-91,180,-147
30.342,29.88,0.07,1.25,1.44,1.30,-0.54,-0.15,0.40,0.10,0.44,80.00,369.00,357.00,567.00,958.00,2027.00,2054.00,3015.00,,,,,,,,,,,,1,1,0,,-1320,15724,3392,-73,151,-125
30.362,29.93,0.06,-2.54,5.45,-0.54,0.82,-0.11,0.66,0.27,0.54,69.00,385.00,343.00,588.00,944.00,2010.00,2037.00,2987.00,,,,,,,,,,,,1,1,0,,-1448,15632,3600,-70,184,-167
30.403,29.99,0.08,-1.83,6.60,0.03,1.00,0.56,-0.13,0.59,0.17,64.00,363.00,336.00,572.00,973.00,1999.00,2066.00,2978.00,,,,,,,,,,,,1,1,0,,-1320,15584,3464,-62,145,-214
30.465,30.04,0.09,-1.09,4.70,1.16,0.14,0.18,0.31,0.23,0.40,70.00,371.00,345.00,560.00,957.00,2006.00,2054.00,3003.00,,,,,,,,,,,,1,1,0,,-1428,15720,3456,-105,121,-95
30.527,30.10,0.08,-0.92,4.64,0.66,0.15,0.04,0.53,0.23,0.46,70.00,369.00,348.00,571.00,948.00,2005.00,2047.00,2998.00,,,,,,,,,,,,1,1,0,,-1284,15736,3416,-64,91,-230
30.588,30.15,0.09,-2.99,6.71,-0.63,1.34,0.15,0.51,0.39,0.27,65.00,379.00,334.00,582.00,947.00,1997.00,2062.00,2994.00,,,,,,,,,,,,1,1,0,,-1424,15680,3372,-56,40,-212
30.65,30.21,0.09,0.45,2.42,0.68,0.52,0.21,0.24,0.10,0.35,77.00,371.00,341.00,565.00,960.00,2007.00,2064.00,3022.00,,,,,,,,,,,,1,1,0,,-1396,15720,3588,-127,107,-158
30.71,30.26,0.07,0.11,1.83,1.06,-0.77,-0.32,0.65,0.00,0.39,80.00,382.00,363.00,576.00,948.00,2027.00,2064.00,3031.00,,,,,,,,,,,,1,1,0,,-1432,15648,3504,-136,162,-140
30.751,30.32,0.06,1.56,-0.21,0.06,-0.12,-0.24,0.60,0.02,0.35,87.00,381.00,357.00,589.00,949.00,2023.00,2067.00,3031.00,,,,,,,,,,,,1,1,0,,-1396,15744,3512,-122,164,-120
30.792,30.37,0.07,0.95,1.09,-0.18,0.48,0.22,-0.07,-0.08,0.21,82.00,377.00,347.00,585.00,976.00,2023.00,2087.00,3055.00,,,,,,,,,,,,1,1,0,,-1408,15668,3572,-135,138,-127
30.853,30.43,0.05,0.32,1.53,0.72,-0.40,-0.22,0.25,-0.52,0.43,81.00,382.00,358.00,578.00,967.00,2041.00,2079.00,3091.00,,,,,,,,,,,,1,1,0,,-1476,15764,3444,-98,106,-113
30.915,30.48,0.02,-2.13,4.27,-0.66,0.43,-0.52,0.62,-0.47,0.47,73.00,391.00,351.00,597.00,953.00,2045.00,2073.00,3082.00,,,,,,,,,,,,1,1,0,,-1352,15684,3548,-101,145,-120
30.956,30.54,0.02,0.34,1.29,-1.11,1.28,-0.04,0.10,-0.14,0.13,82.00,384.00,338.00,594.00,972.00,2035.00,2098.00,3069.00,,,,,,,,,,,,1,1,0,,-1364,15648,3472,-117,48,-186
31.017,30.59,0.01,1.08,0.60,0.82,-0.22,-0.15,0.34,-0.11,0.42,84.00,380.00,354.00,573.00,961.00,2030.00,2064.00,3041.00,,,,,,,,,,,,1,1,0,,-1284,15780,3456,-71,79,-149
31.079,30.65,0.01,-0.85,3.34,0.31,0.21,-0.06,0.56,0.04,0.55,75.00,381.00,349.00,578.00,948.00,2011.00,2045.00,3014.00,,,,,,,,,,,,1,1,0,,-1296,15572,3532,33,175,-135
31.141,30.70,0.02,-1.34,4.26,-0.47,1.23,0.27,0.41,0.43,0.23,72.00,379.00,335.00,580.00,950.00,1993.00,2065.00,2992.00,,,,,,,,,,,,1,1,0,,-1316,15760,3516,20,161,-90
31.182,30.76,0.03,1.67,0.62,1.49,-0.29,0.27,0.28,0.28,0.31,83.00,371.00,351.00,559.00,957.00,2000.00,2062.00,3004.00,,,,,,,,,,,,1,1,0,,-1376,15612,3532,3,171,-128
31.264,30.81,0.03,2.20,-1.26,1.48,-1.06,-0.05,0.64,0.06,0.55,91.00,382.00,366.00,571.00,944.00,2006.00,2043.00,3010.00,,,,,,,,,,,,1,1,0,,-1296,15568,3424,-33,143,-190
31.284,30.87,0.03,0.71,0.95,0.14,0.27,0.05,0.60,0.11,0.50,83.00,382.00,349.00,581.00,944.00,2000.00,2047.00,3009.00,,,,,,,,,,,,1,1,0,,-1380,15688,3404,-83,141,-150
31.388,30.92,0.05,-2.08,2.80,-0.10,0.94,0.41,0.14,0.28,0.24,79.00,406.00,338.00,576.00,962.00,1997.00,2070.00,3010.00,,,,,,,,,,,,1,1,0,,-1372,15660,3452,-60,67,-252
31.429,30.98,0.04,0.03,1.85,1.21,-0.41,-0.05,0.43,-0.07,0.46,80.00,383.00,355.00,567.00,955.00,2018.00,2059.00,3034.00,,,,,,,,,,,,1,1,0,,-1328,15624,3660,2,22,-247
31.45,31.03,0.07,-1.27,3.00,-0.51,0.59,0.58,-0.55,0.04,0.38,77.00,391.00,347.00,591.00,995.00,2020.00,2063.00,3027.00,,,,,,,,,,,,1,1,0,,-1492,15720,3476,12,86,-183
31.511,31.09,0.09,-1.32,3.75,1.94,-2.39,0.49,-0.07,-0.69,0.43,74.00,384.00,390.00,581.00,971.00,2001.00,2085.00,3111.00,,,,,,,,,,,,1,1,0,,-1432,15684,3420,-74,222,-148
31.615,31.14,0.08,3.66,-3.12,1.16,-0.60,-0.10,0.25,-0.33,0.48,98.00,379.00,359.00,571.00,965.00,2031.00,2066.00,3063.00,,,,,,,,,,,,1,1,0,,-1496,15768,3492,-132,198,-175
31.656,31.20,0.06,-1.18,2.97,-0.48,0.47,-0.42,0.72,-0.19,0.33,77.00,390.00,349.00,592.00,946.00,2031.00,2077.00,3058.00,,,,,,,,,,,,1,1,0,,-1344,15800,3420,-121,120,-160
31.676,31.25,0.05,0.54,1.00,-0.28,0.25,-0.04,0.44,-0.12,0.20,83.00,384.00,352.00,591.00,954.00,2016.00,2090.00,3061.00,,,,,,,,,,,,1,1,0,,-1468,15620,3484,-64,148,-136
31.758,31.31,0.04,-0.76,2.83,0.42,0.17,-0.11,0.25,-0.81,0.52,77.00,385.00,349.00,576.00,965.00,2032.00,2080.00,3119.00,,,,,,,,,,,,1,1,0,,-1344,15824,3416,-93,126,-206
31.778,31.36,0.03,-0.97,2.66,0.09,-0.24,-0.35,0.54,-0.51,0.52,78.00,390.00,359.00,590.00,954.00,2035.00,2068.00,3082.00,,,,,,,,,,,,1,1,0,,-1356,15644,3436,-74,123,-160
31.839,31.42,0.03,-2.25,4.82,-0.95,1.17,0.11,0.31,-0.00,0.34,71.00,387.00,339.00,592.00,958.00,2011.00,2069.00,3035.00,,,,,,,,,,,,1,1,0,,-1404,15536,3412,-58,183,-158
31.902,31.47,0.05,-1.02,3.40,0.28,0.38,0.36,0.02,0.06,0.35,75.00,383.00,346.00,576.00,969.00,2007.00,2066.00,3027.00,,,,,,,,,,,,1,1,0,,-1352,15740,3352,-68,182,-82
31.944,31.53,0.04,0.40,1.50,1.48,-0.81,-0.15,0.40,-0.15,0.47,81.00,381.00,361.00,567.00,958.00,2027.00,2060.00,3042.00,,,,,,,,,,,,1,1,0,,-1220,15912,3472,-37,167,-125
32.005,31.58,0.04,-2.16,4.03,-0.72,0.77,0.06,0.41,0.08,0.36,74.00,394.00,345.00,593.00,954.00,2010.00,2064.00,3024.00,,,,,,,,,,,,1,1,0,,-1428,15672,3440,214,342,-51
32.067,31.64,0.06,-0.80,3.08,-0.25,1.10,0.44,0.03,0.21,0.16,76.00,383.00,336.00,577.00,967.00,2000.00,2081.00,3024.00,,,,,,,,,,,,1,1,0,,-1408,15604,3508,65,296,-59
32.129,31.69,0.05,0.43,1.26,2.10,-1.32,-0.07,0.35,-0.26,0.47,82.00,383.00,367.00,561.00,959.00,2023.00,2065.00,3056.00,,,,,,,,,,,,1,1,0,,-1288,15832,3088,-23,86,-127
32.17,31.75,0.04,-2.83,5.02,-0.24,0.45,-0.19,0.69,-0.06,0.42,71.00,394.00,348.00,587.00,944.00,2015.00,2063.00,3036.00,,,,,,,,,,,,1,1,0,,-1292,15728,3224,-81,-34,-445
32.23,31.80,0.05,0.15,1.59,-0.11,0.51,0.29,0.25,0.06,0.28,81.00,384.00,346.00,583.00,958.00,2000.00,2074.00,3033.00,,,,,,,,,,,,1,1,0,,-1420,15748,3512,32,24,-233
32.292,31.86,0.05,2.90,-2.48,1.45,-0.70,0.05,0.28,-0.21,0.31,96.00,384.00,359.00,566.00,961.00,2018.00,2081.00,3063.00,,,,,,,,,,,,1,1,0,,-1488,15600,3552,154,299,-103
32.354,31.91,0.03,0.98,-0.23,0.60,-0.66,-0.43,0.73,-0.46,0.45,88.00,390.00,364.00,585.00,946.00,2032.00,2074.00,3081.00,,,,,,,,,,,,1,1,0,,-1264,15760,3292,119,406,91
32.396,31.97,0.02,0.78,-0.78,-0.65,0.48,-0.10,0.36,-0.26,0.29,91.00,399.00,350.00,596.00,959.00,2025.00,2085.00,3071.00,,,,,,,,,,,,1,1,0,,-1324,15816,3196,-51,182,-108
32.478,32.02,0.02,0.44,0.38,0.66,-0.38,-0.03,0.11,-0.61,0.34,86.00,392.00,358.00,579.00,971.00,2033.00,2092.00,3109.00,,,,,,,,,,,,1,1,0,,-1304,15792,3284,-190,-1,-79
32.499,32.08,-0.01,-1.23,2.28,0.48,-0.63,-0.60,0.55,-0.83,0.47,80.00,398.00,364.00,587.00,958.00,2055.00,2086.00,3125.00,,,,,,,,,,,,1,1,0,,-1308,15660,3360,-147,138,-191
32.581,32.13,-0.04,-1.72,2.91,-1.39,0.52,-0.47,0.51,-0.70,0.36,78.00,399.00,354.00,613.00,958.00,2047.00,2094.00,3119.00,,,,,,,,,,,,1,1,0,,-1412,15624,3120,-265,70,-272
32.622,32.19,-0.03,-0.81,2.60,-0.34,0.59,0.07,-0.02,-0.33,0.21,78.00,388.00,346.00,587.00,976.00,2032.00,2096.00,3085.00,,,,,,,,,,,,1,1,0,,-1308,15616,3416,-222,50,-225
32.665,32.24,-0.04,0.93,0.43,1.34,-1.11,-0.24,0.32,-0.40,0.48,85.00,384.00,368.00,575.00,964.00,2039.00,2068.00,3071.00,,,,,,,,,,,,1,1,0,,-1476,15576,3600,-112,172,-166
32.725,32.30,-0.06,-0.97,2.66,-0.22,0.28,-0.40,0.74,-0.02,0.36,78.00,390.00,351.00,589.00,945.00,2029.00,2068.00,3036.00,,,,,,,,,,,,1,1,0,,-1540,15768,3268,-122,261,-94
32.766,32.35,-0.04,-2.20,5.34,-0.69,1.36,0.28,0.03,0.14,0.24,69.00,381.00,334.00,583.00,970.00,2013.00,2075.00,3026.00,,,,,,,,,,,,1,1,1,,-1352,15812,3332,-154,221,-78
32.889,32.41,-0.04,-0.12,2.37,0.90,0.12,-0.10,0.29,-0.16,0.44,78.00,380.00,347.00,566.00,963.00,2029.00,2064.00,3046.00,,,,,,,,,,,,1,1,1,,-1356,15804,3208,-107,267,-195
32.909,32.46,-0.06,-1.68,4.38,0.37,-0.07,-0.43,0.69,-0.14,0.46,72.00,383.00,354.00,581.00,948.00,2034.00,2061.00,3042.00,,,,,,,,,,,,1,1,1,,-1352,15812,3232,-108,120,-142
32.951,32.52,-0.06,-2.37,6.78,-0.65,1.18,-0.08,0.32,-0.01,0.31,64.00,369.00,337.00,585.00,961.00,2026.00,2073.00,3039.00,,,,,,,,,,,,1,1,1,,-1376,15712,3416,-77,50,-269
33.013,32.57,-0.07,-0.47,4.49,0.61,0.48,-0.08,0.20,-0.21,0.40,70.00,364.00,342.00,567.00,967.00,2032.00,2070.00,3055.00,,,,,,,,,,,,1,1,1,,-1336,15656,3352,-43,-13,-219
33.074,32.63,-0.08,-1.48,4.56,-0.14,0.36,-0.31,0.41,-0.24,0.35,71.00,378.00,349.00,586.00,960.00,2039.00,2077.00,3063.00,,,,,,,,,,,,1,1,1,,-1408,15772,3292,-23,82,-147
33.114,32.68,-0.09,-2.78,5.80,-0.53,0.49,-0.31,0.41,-0.44,0.42,68.00,385.00,349.00,593.00,960.00,2039.00,2077.00,3082.00,,,,,,,,,,,,1,1,1,,-1460,15752,3564,80,226,-67
33.156,32.74,-0.08,-0.26,2.18,-0.49,1.07,0.01,-0.04,-0.35,0.21,79.00,384.00,338.00,583.00,978.00,2038.00,2097.00,3088.00,,,,,,,,,,,,1,1,1,,-1352,15760,3292,-123,357,106
33.236,32.79,-0.11,1.95,-1.17,1.19,-0.96,-0.54,0.24,-0.80,0.51,91.00,385.00,366.00,576.00,973.00,2067.00,2081.00,3119.00,,,,,,,,,,,,1,1,1,,-1180,15672,3328,-84,294,21
33.278,32.85,-0.14,0.60,-0.51,-0.42,-0.42,-0.78,0.67,-0.70,0.46,90.00,399.00,366.00,605.00,955.00,2063.00,2082.00,3110.00,,,,,,,,,,,,1,1,1,,-1256,15748,3352,-92,82,-139
33.359,32.90,-0.15,4.62,-5.40,-0.11,-0.07,-0.42,0.47,-0.62,0.22,109.00,388.00,357.00,592.00,959.00,2045.00,2106.00,3120.00,,,,,,,,,,,,1,1,1,,-1284,15916,3456,-61,-26,-272
33.379,32.96,-0.18,0.37,1.06,0.37,-0.33,-0.59,0.38,-0.82,0.35,83.00,386.00,359.00,585.00,967.00,2064.00,2099.00,3134.00,,,,,,,,,,,,1,1,1,,-1328,15588,3432,-17,93,-286
33.441,33.01,-0.20,-1.31,3.25,-0.24,0.18,-0.57,0.52,-0.58,0.58,76.00,389.00,353.00,591.00,959.00,2054.00,2064.00,3085.00,,,,,,,,,,,,1,1,1,,-1324,15716,3352,-14,218,-189
33.502,33.07,-0.18,-2.37,5.39,-1.04,1.36,0.04,0.15,-0.02,0.30,69.00,383.00,336.00,591.00,968.00,2026.00,2075.00,3041.00,,,,,,,,,,,,1,1,1,,-1444,15832,3364,-2,170,-131
33.582,33.12,-0.17,-0.37,3.43,0.77,0.11,0.07,0.02,-0.11,0.41,74.00,373.00,348.00,569.00,974.00,2030.00,2065.00,3042.00,,,,,,,,,,,,1,1,1,,-1464,15780,3496,52,139,-49
33.603,33.18,-0.18,-1.28,3.99,0.67,-0.33,-0.32,0.59,-0.25,0.62,73.00,381.00,357.00,578.00,951.00,2030.00,2047.00,3042.00,,,,,,,,,,,,1,1,1,,-1260,15700,3388,142,358,-28
33.666,33.23,-0.18,-3.02,6.15,-0.29,0.84,-0.14,0.49,0.08,0.36,67.00,385.00,341.00,582.00,953.00,2021.00,2064.00,3024.00,,,,,,,,,,,,1,1,1,,-1320,15804,2996,107,339,-37
33.708,33.29,-0.15,-5.30,9.91,0.04,0.73,0.31,-0.04,0.18,0.21,57.00,381.00,341.00,576.00,973.00,2014.00,2077.00,3024.00,,,,,,,,,,,,1,1,1,,-1232,15824,3172,-3,102,8
33.77,33.34,-0.16,0.15,1.59,1.26,-0.94,-0.28,0.40,-0.22,0.45,81.00,384.00,365.00,574.00,960.00,2037.00,2065.00,3052.00,,,,,,,,,,,,1,1,1,,-1184,15820,3152,-49,23,-237
33.831,33.40,-0.16,-1.06,2.69,-0.48,0.47,-0.22,0.66,-0.01,0.38,78.00,391.00,349.00,592.00,946.00,2019.00,2065.00,3033.00,,,,,,,,,,,,1,1,1,,-1260,15880,3308,-144,-55,-263
33.957,33.45,-0.13,1.37,0.07,0.29,0.11,0.41,0.04,0.24,0.05,86.00,381.00,351.00,580.00,967.00,2002.00,2093.00,3030.00,,,,,,,,,,,,1,1,1,,-1392,15600,3300,-34,46,-156
33.998,33.51,-0.13,1.30,-0.12,1.30,-0.80,-0.08,0.34,-0.36,0.45,87.00,384.00,362.00,571.00,960.00,2025.00,2070.00,3069.00,,,,,,,,,,,,1,1,1,,-1400,15708,3228,-9,168,-11
34.018,33.56,-0.13,-2.28,3.82,-0.12,0.20,-0.16,0.56,-0.16,0.39,75.00,398.00,352.00,588.00,950.00,2019.00,2070.00,3050.00,,,,,,,,,,,,1,1,1,,-1244,15796,3060,-168,116,-101
34.059,33.62,-0.12,0.88,0.02,0.10,0.07,0.04,0.43,-0.15,0.30,87.00,389.00,353.00,585.00,953.00,2010.00,2079.00,3056.00,,,,,,,,,,,,1,1,1,,-1420,15720,3144,-209,181,-174
34.099,33.67,-0.12,1.79,-1.32,1.25,-0.73,-0.00,0.37,-0.41,0.37,92.00,389.00,361.00,571.00,957.00,2017.00,2081.00,3082.00,,,,,,,,,,,,1,1,1,,-1332,15900,3228,-129,173,-88
34.16,33.73,-0.12,1.27,-0.94,0.66,-0.89,-0.21,0.44,-0.52,0.46,91.00,393.00,368.00,587.00,957.00,2030.00,2075.00,3088.00,,,,,,,,,,,,1,1,1,,-1180,15620,3180,-81,168,-157
34.2,33.78,-0.10,-1.03,1.98,-0.88,0.82,0.28,-0.05,-0.26,0.29,81.00,398.00,345.00,596.00,974.00,2017.00,2085.00,3071.00,,,,,,,,,,,,1,1,1,,-1268,15664,3280,-122,26,-287
34.262,33.84,-0.08,-0.98,2.19,-0.40,0.24,0.34,0.12,-0.02,0.27,80.00,395.00,353.00,594.00,964.00,2003.00,2078.00,3043.00,,,,,,,,,,,,1,1,2,,-1316,15800,3180,-175,91,-239
34.322,33.89,-0.08,0.12,1.15,1.72,-0.89,-0.01,0.45,0.00,0.39,83.00,389.00,361.00,563.00,953.00,2013.00,2064.00,3031.00,,,,,,,,,,,,1,1,2,,-1344,15600,3344,-109,210,-120
34.384,33.95,-0.07,0.58,-0.30,0.26,-0.29,-0.02,0.69,0.28,0.29,89.00,397.00,359.00,587.00,941.00,2001.00,2064.00,3005.00,,,,,,,,,,,,1,1,2,,-1364,15720,3376,-53,188,-106
34.445,34.00,-0.04,-1.32,3.75,4.16,-0.22,0.65,0.13,0.52,0.09,74.00,384.00,333.00,502.00,958.00,1978.00,2078.00,2993.00,,,,,,,,,,,,1,1,2,,-1384,15656,3112,-47,161,-79
34.505,34.06,-0.03,1.62,0.20,1.68,-0.56,0.15,0.51,0.15,0.40,85.00,376.00,355.00,559.00,947.00,1997.00,2057.00,3012.00,,,,,,,,,,,,1,1,2,,-1244,15744,3248,-98,101,-198
34.567,34.11,-0.02,-1.61,3.60,0.36,0.19,0.11,0.78,0.26,0.45,75.00,390.00,349.00,577.00,934.00,1986.00,2047.00,2995.00,,,,,,,,,,,,1,1,2,,-1372,15816,3372,-126,117,-125
34.588,34.17,0.00,-0.72,3.55,-0.23,1.26,0.43,0.44,0.44,0.22,74.00,377.00,333.00,574.00,946.00,1979.00,2066.00,2992.00,,,,,,,,,,,,1,1,2,,-1288,15844,3332,-135,115,-191
34.691,34.22,0.02,0.45,2.42,1.25,0.00,0.44,0.28,0.25,0.30,77.00,371.00,347.00,560.00,954.00,1987.00,2064.00,3008.00,,,,,,,,,,,,1,1,3,,-1356,15752,3372,-86,79,-200
34.713,34.28,0.03,-1.24,3.72,0.91,-0.10,0.12,0.56,0.01,0.55,74.00,383.00,351.00,569.00,945.00,1997.00,2046.00,3017.00,,,,,,,,,,,,1,1,3,,-1360,15828,3360,-61,116,-108
34.753,34.33,0.05,-3.02,6.15,-0.27,1.00,0.40,0.35,0.26,0.24,67.00,385.00,338.00,579.00,951.00,1986.00,2070.00,3011.00,,,,,,,,,,,,1,1,3,,-1196,15788,3296,-79,171,-121
34.814,34.39,0.07,0.55,1.68,0.95,0.05,0.48,-0.04,0.09,0.27,80.00,377.00,348.00,566.00,970.00,2001.00,2074.00,3030.00,,,,,,,,,,,,1,1,3,,-1192,15728,3388,-101,176,-74
34.876,34.44,0.10,-0.11,2.85,1.06,-0.77,0.61,-0.56,-0.64,0.50,76.00,375.00,363.00,576.00,995.00,2018.00,2076.00,3100.00,,,,,,,,,,,,1,1,3,,-1256,15724,3404,-134,189,-135
34.917,34.50,0.09,-0.93,2.88,-0.63,0.58,0.08,0.40,-0.16,0.30,77.00,387.00,348.00,594.00,954.00,2009.00,2080.00,3058.00,,,,,,,,,,,,1,1,3,,-1320,15808,3452,-100,221,-237
34.978,34.55,0.07,-1.19,3.46,-0.09,0.66,-0.47,0.20,-0.06,0.10,75.00,385.00,343.00,580.00,974.00,2064.00,2099.00,3062.00,,,,,,,,,,,,1,1,3,,-1272,15732,3300,-124,255,-213
35.061,34.61,0.05,1.20,0.12,1.39,-1.38,-0.16,0.31,-0.52,0.37,86.00,383.00,373.00,578.00,963.00,2033.00,2085.00,3095.00,,,,,,,,,,,,1,1,3,,-1508,15740,3376,-147,115,-268
35.082,34.66,0.05,-0.97,3.14,0.28,-0.20,-0.14,0.63,0.00,0.39,76.00,385.00,357.00,585.00,946.00,2014.00,2064.00,3031.00,,,,,,,,,,,,1,1,3,,-1492,15716,3288,-60,220,-253
35.143,34.72,0.07,-0.54,3.49,0.04,0.73,0.60,0.09,0.41,0.14,74.00,375.00,341.00,576.00,961.00,1984.00,2076.00,3002.00,,,,,,,,,,,,1,1,3,,-1432,15640,3280,-19,311,-168
35.205,34.77,0.10,0.90,1.56,1.41,-0.11,0.55,0.11,0.27,0.31,80.00,373.00,348.00,558.00,961.00,1987.00,2062.00,3005.00,,,,,,,,,,,,1,1,3,,-1356,15728,3100,-32,283,-160
35.267,34.83,0.10,-0.29,2.91,1.01,-0.23,0.08,0.59,0.21,0.48,76.00,377.00,353.00,569.00,944.00,1998.00,2046.00,2999.00,,,,,,,,,,,,1,1,3,,-1436,15792,3472,-68,226,-58
35.307,34.88,0.11,-0.86,4.36,2.28,0.25,0.43,0.48,0.57,0.20,71.00,371.00,336.00,534.00,944.00,1977.00,2064.00,2979.00,,,,,,,,,,,,1,1,3,,-1320,15736,3244,21,219,-133
35.368,34.94,0.14,-0.41,3.69,0.92,0.49,0.60,0.13,0.43,0.18,73.00,371.00,340.00,560.00,959.00,1982.00,2071.00,2997.00,,,,,,,,,,,,1,1,3,,-1392,15776,3308,-78,218,-84
35.47,34.99,0.14,1.07,1.50,1.58,-0.69,0.13,0.58,0.33,0.19,80.00,371.00,358.00,563.00,944.00,1995.00,2074.00,3008.00,,,,,,,,,,,,1,1,3,,-1268,15816,3236,-30,119,-205
35.491,35.05,0.15,-0.72,3.55,0.17,0.15,0.32,0.48,0.29,0.28,74.00,377.00,351.00,582.00,946.00,1986.00,2065.00,3005.00,,,,,,,,,,,,1,1,3,,-1436,15708,3232,14,59,-139
35.532,35.10,0.18,-0.41,3.69,0.28,0.38,0.84,-0.09,0.32,0.11,73.00,371.00,346.00,576.00,966.00,1975.00,2083.00,3015.00,,,,,,,,,,,,1,1,3,,-1436,15808,3288,23,211,-87
35.615,35.16,0.17,3.16,-2.18,2.00,-1.44,0.03,0.40,-0.12,0.38,94.00,377.00,370.00,565.00,955.00,2013.00,2070.00,3047.00,,,,,,,,,,,,1,1,3,,-1380,15692,3180,-27,321,-69
35.636,35.21,0.16,-1.36,3.51,4.48,-1.35,0.01,0.79,-0.00,0.35,75.00,387.00,352.00,511.00,935.00,1993.00,2068.00,3034.00,,,,,,,,,,,,1,1,3,,-1280,15720,3072,36,306,-82
35.698,35.27,0.19,-0.06,1.88,-0.05,0.87,0.59,0.11,0.05,0.13,80.00,384.00,339.00,576.00,960.00,1984.00,2091.00,3046.00,,,,,,,,,,,,1,1,3,,-1368,15884,3356,146,430,50
35.781,35.32,0.19,0.11,1.83,1.76,-0.95,0.31,0.23,-1.21,0.63,80.00,382.00,362.00,563.00,959.00,2000.00,2082.00,3159.00,,,,,,,,,,,,1,1,3,,-1400,15792,3172,287,707,111
35.802,35.38,0.19,-0.23,1.94,0.57,-0.24,0.07,0.54,-0.25,0.33,80.00,386.00,356.00,579.00,947.00,2002.00,2080.00,3066.00,,,,,,,,,,,,1,1,3,,-1452,15804,2812,186,745,143
35.864,35.43,0.20,-0.89,3.11,-0.59,1.21,0.42,0.29,0.16,0.01,76.00,384.00,336.00,583.00,954.00,1988.00,2101.00,3043.00,,,,,,,,,,,,1,1,3,,-1504,15684,3396,83,1204,7
35.906,35.49,0.22,1.16,2.18,1.48,-0.34,0.56,-0.11,0.12,0.30,77.00,363.00,352.00,560.00,972.00,1998.00,2069.00,3024.00,,,,,,,,,,,,1,1,3,,-1312,15732,2896,44,1745,10
35.968,35.54,0.21,0.95,2.49,1.36,-0.56,0.05,0.56,0.19,0.35,76.00,363.00,357.00,566.00,946.00,2002.00,2061.00,3011.00,,,,,,,,,,,,1,1,3,,-1484,16064,3060,25,1754,293
36.031,35.60,0.21,-1.45,5.63,-0.19,1.08,0.32,0.40,0.27,0.30,67.00,367.00,336.00,576.00,950.00,1990.00,2064.00,3006.00,,,,,,,,,,,,1,1,3,,-1396,15816,2724,211,1564,23
36.073,35.65,0.24,-0.92,4.64,0.52,0.68,0.72,-0.14,0.47,0.10,70.00,369.00,339.00,566.00,971.00,1987.00,2078.00,2998.00,,,,,,,,,,,,1,1,3,,-1348,16044,2448,289,1087,64
36.156,35.71,0.23,1.34,1.41,1.87,-0.79,0.11,0.41,0.07,0.37,80.00,368.00,358.00,558.00,953.00,2006.00,2063.00,3024.00,,,,,,,,,,,,1,1,3,,-1200,15896,2568,79,636,100
36.197,35.76,0.23,-0.81,4.08,0.25,0.23,0.23,0.54,0.30,0.28,72.00,373.00,349.00,579.00,944.00,1989.00,2064.00,3003.00,,,,,,,,,,,,1,1,3,,-1328,15860,2876,-33,343,-38
36.237,35.82,0.26,-0.41,3.69,0.25,0.88,0.70,-0.02,0.42,0.08,73.00,371.00,337.00,569.00,965.00,1982.00,2082.00,3005.00,,,,,,,,,,,,1,1,3,,-1392,15780,2620,-86,353,-124
36.299,35.87,0.26,2.52,-0.53,1.41,-0.84,0.35,0.27,0.06,0.32,87.00,370.00,362.00,569.00,956.00,1994.00,2069.00,3029.00,,,,,,,,,,,,1,1,3,,-1384,15820,2928,-109,533,28
36.361,35.93,0.25,-1.13,4.45,0.60,0.17,0.08,0.57,0.03,0.37,71.00,374.00,348.00,572.00,945.00,1999.00,2065.00,3029.00,,,,,,,,,,,,1,1,3,,-1296,15908,2776,-113,709,13
36.402,35.98,0.26,-1.13,4.45,-0.19,1.08,0.49,0.13,0.20,0.17,71.00,374.00,336.00,576.00,961.00,1991.00,2081.00,3025.00,,,,,,,,,,,,1,1,3,,-1276,16008,2672,-185,594,-58
36.463,36.04,0.26,0.63,1.65,1.13,-0.22,0.23,0.22,-0.09,0.25,80.00,376.00,352.00,566.00,961.00,2007.00,2083.00,3053.00,,,,,,,,,,,,1,1,3,,-1252,15796,2688,-191,392,-154
36.566,36.09,0.23,1.37,0.07,0.83,-0.44,-0.29,0.64,-0.30,0.36,86.00,381.00,358.00,576.00,948.00,2025.00,2078.00,3069.00,,,,,,,,,,,,1,1,3,,-1300,15924,2772,-88,58,76
36.587,36.15,0.22,-0.76,3.31,-0.95,1.17,-0.10,0.48,-0.39,0.31,75.00,380.00,339.00,592.00,953.00,2019.00,2087.00,3084.00,,,,,,,,,,,,1,1,3,,-1292,15928,2692,-36,151,-52
36.628,36.20,0.21,0.55,1.68,0.25,0.23,0.02,0.13,-0.42,0.25,80.00,377.00,349.00,579.00,969.00,2028.00,2096.00,3094.00,,,,,,,,,,,,1,1,3,,-1264,15948,2740,-113,49,-188
36.69,36.26,0.20,0.63,1.65,1.48,-1.06,0.00,0.21,-0.31,0.36,80.00,376.00,366.00,571.00,965.00,2025.00,2079.00,3071.00,,,,,,,,,,,,1,1,3,,-1300,15912,2784,-141,256,-89
36.771,36.31,0.19,-0.80,3.08,-0.03,0.01,0.07,0.60,0.12,0.33,76.00,383.00,355.00,589.00,944.00,1999.00,2066.00,3021.00,,,,,,,,,,,,1,1,3,,-1260,15844,2956,-134,512,-22
36.791,36.37,0.21,0.84,2.05,0.53,0.73,0.62,0.04,0.45,0.08,78.00,369.00,338.00,565.00,963.00,1985.00,2081.00,3002.00,,,,,,,,,,,,1,1,3,,-1284,15812,2740,-241,648,23
36.915,36.42,0.22,1.25,1.44,1.93,-0.81,0.37,0.30,0.22,0.32,80.00,369.00,358.00,557.00,954.00,1991.00,2063.00,3010.00,,,,,,,,,,,,1,1,3,,-1156,15768,2720,-322,428,-114
36.935,36.48,0.21,1.25,1.44,0.68,-0.02,0.09,0.85,0.17,0.55,80.00,369.00,351.00,573.00,931.00,1984.00,2039.00,2997.00,,,,,,,,,,,,1,1,3,,-1188,15880,2560,-258,127,-219
36.955,36.53,0.23,0.25,3.22,0.09,0.99,0.63,0.37,0.46,0.28,74.00,366.00,336.00,571.00,946.00,1967.00,2059.00,2985.00,,,,,,,,,,,,1,1,3,,-1328,15904,2884,-249,131,-151
37.017,36.59,0.25,1.67,1.53,1.60,0.15,0.62,0.16,0.28,0.31,79.00,362.00,342.00,550.00,957.00,1979.00,2062.00,3004.00,,,,,,,,,,,,1,1,3,,-1296,15876,2968,-291,313,-262
37.063,36.64,0.25,0.93,2.02,1.48,-0.34,0.20,0.59,0.18,0.38,78.00,368.00,352.00,560.00,942.00,1989.00,2058.00,3010.00,,,,,,,,,,,,1,1,3,,-1304,15884,2972,-145,241,-204
37.125,36.70,0.26,-0.73,4.05,-0.23,1.20,0.53,0.44,0.28,0.23,72.00,372.00,334.00,575.00,944.00,1971.00,2071.00,3010.00,,,,,,,,,,,,1,1,3,,-1204,15872,2904,-91,159,-157
37.186,36.75,0.28,0.56,2.87,1.01,0.35,0.62,0.04,0.17,0.21,75.00,365.00,342.00,560.00,963.00,1985.00,2077.00,3025.00,,,,,,,,,,,,1,1,3,,-1224,15964,2792,-99,65,-139
37.268,36.81,0.27,1.34,1.41,1.94,-1.01,-0.06,0.60,-0.04,0.27,80.00,368.00,362.00,560.00,946.00,2009.00,2079.00,3046.00,,,,,,,,,,,,1,1,3,,-1224,15796,2960,-159,47,-167
37.289,36.86,0.25,0.72,1.62,0.19,0.25,0.05,0.60,-0.07,0.31,80.00,375.00,349.00,580.00,944.00,2000.00,2075.00,3046.00,,,,,,,,,,,,1,1,3,,-1296,16056,2892,-217,59,-167
37.351,36.92,0.27,0.29,2.96,0.17,0.42,0.51,-0.07,-0.02,0.09,75.00,368.00,346.00,578.00,971.00,2000.00,2098.00,3058.00,,,,,,,,,,,,1,1,3,,-1220,15788,3156,-376,223,-345
37.391,36.97,0.25,1.34,1.41,1.46,-0.90,-0.02,0.32,-0.48,0.41,80.00,368.00,363.00,569.00,960.00,2021.00,2080.00,3088.00,,,,,,,,,,,,1,1,3,,-1188,15776,2736,-664,-122,-534
37.454,37.03,0.24,0.06,2.79,0.41,0.12,0.07,0.66,0.04,0.37,76.00,373.00,350.00,577.00,941.00,1996.00,2064.00,3027.00,,,,,,,,,,,,1,1,3,,-1332,15788,3304,-295,-234,-695
37.516,37.08,0.25,0.61,3.10,0.41,1.04,0.47,0.33,0.48,0.20,74.00,362.00,333.00,563.00,951.00,1982.00,2067.00,2989.00,,,,,,,,,,,,1,1,3,,-1552,15688,3392,319,48,-510
37.558,37.14,0.26,1.53,2.79,1.46,0.36,0.31,0.57,0.39,0.28,74.00,352.00,339.00,550.00,941.00,1981.00,2061.00,2993.00,,,,,,,,,,,,1,1,3,,-1576,15776,2836,90,38,-471
37.641,37.19,0.26,1.21,3.15,1.06,0.28,0.33,0.53,0.40,0.45,73.00,353.00,343.00,560.00,943.00,1982.00,2042.00,2978.00,,,,,,,,,,,,1,1,3,,-1508,15704,3092,48,-18,-253
37.662,37.25,0.27,-0.33,5.53,0.47,1.02,0.51,0.47,0.62,0.21,66.00,352.00,333.00,562.00,943.00,1971.00,2060.00,2971.00,,,,,,,,,,,,1,1,3,,-1604,15736,2976,133,244,-314
37.724,37.30,0.29,2.57,1.47,1.31,0.52,0.67,0.11,0.47,0.24,78.00,350.00,337.00,551.00,959.00,1978.00,2063.00,2987.00,,,,,,,,,,,,1,1,3,,-1648,15820,2852,27,221,-112
37.785,37.36,0.29,0.72,4.09,1.61,-0.33,0.28,0.47,0.32,0.30,70.00,351.00,351.00,557.00,947.00,1989.00,2061.00,2999.00,,,,,,,,,,,,1,1,3,,-1600,15880,3024,-62,135,-263
37.827,37.41,0.30,-0.06,4.09,0.06,0.83,0.40,0.39,0.39,0.25,71.00,362.00,339.00,574.00,949.00,1984.00,2064.00,2995.00,,,,,,,,,,,,1,1,3,,-1604,15792,2664,-100,-108,-379
37.909,37.47,0.32,0.58,3.87,0.77,0.65,0.69,-0.05,0.41,0.08,71.00,355.00,338.00,561.00,967.00,1985.00,2083.00,3007.00,,,,,,,,,,,,1,1,3,,-1556,15784,2864,-78,-260,-378
38.012,37.52,0.31,2.70,0.96,2.18,-1.04,0.08,0.38,0.03,0.34,80.00,353.00,361.00,555.00,955.00,2010.00,2068.00,3031.00,,,,,,,,,,,,1,1,3,,-1760,15868,2888,-90,-284,-389
38.032,37.58,0.29,1.78,1.26,0.88,-0.50,0.06,0.51,0.02,0.32,80.00,363.00,359.00,576.00,949.00,2005.00,2071.00,3034.00,,,,,,,,,,,,1,1,3,,-1828,15736,2900,-145,-452,-336
38.072,37.63,0.30,0.21,4.53,-0.09,0.99,0.36,0.21,0.08,0.17,69.00,354.00,337.00,575.00,959.00,1997.00,2085.00,3039.00,,,,,,,,,,,,1,1,3,,-1828,15696,3116,-89,-467,-37
38.135,37.69,0.29,4.79,-2.13,1.94,-1.01,0.13,0.29,-0.15,0.28,91.00,353.00,362.00,560.00,959.00,2011.00,2081.00,3057.00,,,,,,,,,,,,1,1,3,,-1676,15816,3036,6,-280,235
38.196,37.74,0.25,-0.29,4.43,0.80,-0.06,-0.39,0.75,-0.35,0.44,70.00,362.00,351.00,571.00,944.00,2027.00,2071.00,3069.00,,,,,,,,,,,,1,1,3,,-1572,15976,2800,-132,-272,126
38.217,37.80,0.25,-0.42,5.56,-0.25,1.10,0.24,0.33,0.08,0.23,66.00,353.00,336.00,577.00,955.00,2000.00,2079.00,3035.00,,,,,,,,,,,,1,1,3,,-1368,15868,2976,-179,-388,250
38.299,37.85,0.26,0.10,5.10,1.18,0.51,0.47,0.23,0.20,0.29,67.00,350.00,338.00,554.00,956.00,1987.00,2067.00,3015.00,,,,,,,,,,,,1,1,3,,-1220,15752,3228,-38,-338,228
38.361,37.91,0.26,4.25,-0.90,2.50,-1.50,0.21,0.57,0.31,0.37,86.00,349.00,368.00,555.00,943.00,1989.00,2054.00,2995.00,,,,,,,,,,,,1,1,3,,-1128,15904,3008,2,-221,165
38.381,37.96,0.27,1.21,3.15,0.90,0.39,0.35,0.56,0.50,0.30,73.00,353.00,342.00,562.00,941.00,1979.00,2055.00,2979.00,,,,,,,,,,,,1,1,3,,-1232,15904,2988,-92,-173,112
38.462,38.02,0.30,1.28,3.90,0.66,1.07,0.94,-0.04,0.69,0.06,70.00,345.00,331.00,557.00,962.00,1965.00,2075.00,2976.00,,,,,,,,,,,,1,1,3,,-1108,15988,2992,-113,-79,0
38.503,38.07,0.30,3.06,1.07,2.90,-1.08,0.31,0.54,0.35,0.36,79.00,347.00,357.00,540.00,943.00,1983.00,2054.00,2992.00,,,,,,,,,,,,1,1,3,,-1184,15804,3136,-64,160,-12
38.545,38.13,0.31,-0.12,4.91,0.89,0.34,0.53,0.50,0.61,0.26,68.00,355.00,343.00,563.00,941.00,1968.00,2055.00,2969.00,,,,,,,,,,,,1,1,3,,-1164,15824,3184,-1,315,-43
38.607,38.18,0.34,0.52,5.24,1.09,0.70,0.92,0.10,0.74,0.05,66.00,343.00,335.00,553.00,955.00,1959.00,2074.00,2970.00,,,,,,,,,,,,1,1,3,,-1184,15756,2924,35,365,-193
38.668,38.24,0.36,1.70,3.49,2.35,-0.26,0.68,0.33,0.46,0.23,71.00,343.00,345.00,540.00,947.00,1965.00,2064.00,2989.00,,,,,,,,,,,,1,1,3,,-1248,15852,3016,219,220,-204
38.751,38.29,0.35,1.10,3.96,1.99,-0.14,0.22,0.74,0.31,0.37,70.00,347.00,345.00,546.00,934.00,1979.00,2054.00,2995.00,,,,,,,,,,,,1,1,3,,-1256,15708,2900,1325,-40,286
38.772,38.35,0.36,-0.83,4.61,0.98,1.42,0.45,0.45,0.31,0.12,70.00,368.00,323.00,545.00,945.00,1977.00,2082.00,3015.00,,,,,,,,,,,,1,1,3,,-1200,15552,1928,3054,-854,1015
38.833,38.40,0.35,2.39,-1.92,2.37,0.61,0.29,0.08,-0.30,0.09,94.00,386.00,329.00,527.00,967.00,2009.00,2109.00,3092.00,,,,,,,,,,,,1,1,3,,-1056,16124,2192,2364,-2178,1441
38.873,38.46,0.35,1.41,-2.17,2.78,-0.14,0.26,-0.42,-0.87,0.23,97.00,404.00,340.00,529.00,994.00,2039.00,2115.00,3151.00,,,,,,,,,,,,1,1,3,,-768,16272,2332,2251,-2617,1518
38.935,38.51,0.31,1.00,-1.84,0.73,0.77,-0.52,0.28,-1.06,0.13,96.00,407.00,336.00,560.00,971.00,2064.00,2134.00,3183.00,,,,,,,,,,,,1,1,3,,-496,16144,2224,2143,-1746,1391
38.997,38.57,0.29,0.20,-1.57,1.38,0.55,-0.03,-0.28,-0.80,-0.16,96.00,417.00,336.00,549.00,992.00,2055.00,2157.00,3175.00,,,,,,,,,,,,1,1,3,,-292,16068,2012,1958,-1071,1247
39.057,38.62,0.27,3.10,-5.39,3.08,-0.93,-0.15,-0.19,-0.71,0.05,112.00,412.00,353.00,534.00,989.00,2059.00,2129.00,3145.00,,,,,,,,,,,,1,1,3,,-20,16228,1444,1642,-233,729
39.119,38.68,0.25,1.19,-3.20,1.20,0.34,-0.16,0.33,0.09,-0.06,103.00,419.00,341.00,556.00,962.00,2032.00,2111.00,3057.00,,,,,,,,,,,,1,1,3,,80,16468,1264,1126,199,393
39.161,38.73,0.26,1.90,-3.08,1.15,0.68,0.59,-0.17,0.19,-0.05,101.00,406.00,335.00,552.00,975.00,1999.00,2106.00,3044.00,,,,,,,,,,,,1,1,3,,232,16376,1048,785,403,174
39.243,38.79,0.27,3.66,-5.58,2.63,-0.67,0.38,0.07,0.06,0.08,112.00,405.00,351.00,540.00,966.00,2003.00,2096.00,3049.00,,,,,,,,,,,,1,1,3,,224,16212,664,218,489,3
39.264,38.84,0.25,4.04,-5.87,2.53,-1.21,-0.04,0.52,0.08,0.15,113.00,402.00,362.00,550.00,950.00,2012.00,2087.00,3040.00,,,,,,,,,,,,1,1,3,,164,16136,768,-179,457,-308
39.327,38.90,0.26,1.56,-1.83,1.10,0.43,0.41,0.08,0.33,-0.01,95.00,398.00,340.00,557.00,965.00,2000.00,2096.00,3024.00,,,,,,,,,,,,1,1,3,,204,16148,832,-211,373,-159
39.388,38.95,0.27,2.90,-2.28,1.82,0.24,0.38,-0.12,0.22,-0.02,95.00,382.00,339.00,544.00,976.00,2013.00,2101.00,3037.00,,,,,,,,,,,,1,1,3,,28,16204,1060,-243,597,-235
39.471,39.01,0.25,3.07,-1.14,2.57,-1.48,-0.09,0.23,-0.05,0.22,89.00,368.00,367.00,553.00,966.00,2032.00,2085.00,3051.00,,,,,,,,,,,,1,1,3,,80,16180,1120,-286,904,-74
39.492,39.06,0.23,1.52,1.35,-2.18,4.47,-0.09,0.23,-0.05,0.12,80.00,366.00,290.00,569.00,966.00,2032.00,2096.00,3059.00,,,,,,,,,,,,1,1,3,,76,16300,1012,-266,1260,193
39.552,39.12,0.23,1.88,1.23,1.11,0.21,0.21,-0.27,0.03,-0.09,80.00,362.00,344.00,560.00,987.00,2035.00,2117.00,3067.00,,,,,,,,,,,,1,1,3,,204,16372,816,-30,1324,68
39.594,39.17,0.20,2.78,-0.41,2.86,-1.78,-0.44,0.13,-0.43,0.11,86.00,365.00,371.00,551.00,977.00,2065.00,2112.00,3106.00,,,,,,,,,,,,1,1,3,,128,16368,712,59,988,-92
39.657,39.23,0.16,1.12,1.03,0.69,-0.54,-0.49,0.23,-0.49,0.22,82.00,375.00,361.00,581.00,973.00,2064.00,2102.00,3105.00,,,,,,,,,,,,1,1,3,,132,16348,808,-69,739,-306
39.718,39.28,0.15,1.43,1.38,0.47,0.70,-0.16,-0.26,-0.33,-0.05,80.00,367.00,339.00,567.00,993.00,2064.00,2126.00,3107.00,,,,,,,,,,,,1,1,3,,164,16104,828,-303,487,-153
39.759,39.34,0.12,2.22,0.22,2.11,-1.27,-0.40,-0.16,-0.58,0.13,84.00,367.00,366.00,560.00,992.00,2078.00,2115.00,3123.00,,,,,,,,,,,,1,1,3,,196,16344,1032,-314,248,-275
39.84,39.39,0.09,1.54,1.12,1.57,-0.48,-0.44,0.15,-0.15,0.12,81.00,368.00,354.00,560.00,976.00,2064.00,2100.00,3071.00,,,,,,,,,,,,1,1,3,,84,16316,1108,-261,292,-381
39.861,39.45,0.09,1.34,1.41,0.73,0.77,0.04,0.03,0.17,0.03,80.00,368.00,336.00,560.00,974.00,2032.00,2098.00,3040.00,,,,,,,,,,,,1,1,3,,64,16120,1032,-247,353,-370
39.922,39.50,0.09,2.61,0.99,2.26,-0.34,0.20,-0.18,0.32,-0.00,80.00,354.00,347.00,543.00,982.00,2030.00,2096.00,3025.00,,,,,,,,,,,,1,1,3,,-4,16192,1132,-387,410,-353
39.985,39.56,0.09,2.15,1.14,2.49,-0.89,0.02,0.04,0.24,0.12,80.00,359.00,356.00,546.00,974.00,2033.00,2085.00,3024.00,,,,,,,,,,,,1,1,3,,-72,16180,988,-415,427,-328
40.027,39.61,0.09,1.76,1.50,1.01,0.35,0.15,0.07,0.31,0.02,79.00,361.00,342.00,560.00,970.00,2021.00,2094.00,3024.00,,,,,,,,,,,,1,1,3,,-136,16344,1200,-268,373,-276
40.09,39.67,0.11,1.71,1.99,1.64,0.30,0.51,-0.39,0.41,-0.11,77.00,357.00,339.00,547.00,988.00,2017.00,2105.00,3023.00,,,,,,,,,,,,1,1,3,,-56,16248,1168,-347,517,-244
40.152,39.72,0.10,3.69,-0.71,3.45,-1.83,-0.10,0.04,0.12,0.07,86.00,355.00,368.00,539.00,976.00,2043.00,2095.00,3042.00,,,,,,,,,,,,1,1,3,,-160,16220,1280,-283,478,-293
40.215,39.78,0.10,1.93,0.53,1.27,-0.17,-0.06,0.24,0.26,0.01,83.00,368.00,350.00,562.00,965.00,2029.00,2097.00,3031.00,,,,,,,,,,,,1,1,3,,-208,16208,1336,-221,460,-280
40.256,39.83,0.12,1.65,1.78,0.90,0.71,0.51,-0.41,0.18,-0.10,78.00,360.00,336.00,557.00,989.00,2018.00,2112.00,3049.00,,,,,,,,,,,,1,1,3,,-96,16196,1124,-79,514,-317
40.319,39.89,0.12,4.43,-1.59,2.90,-1.08,0.14,-0.23,-0.31,0.16,89.00,353.00,357.00,540.00,986.00,2038.00,2102.00,3088.00,,,,,,,,,,,,1,1,3,,-256,16376,1340,-78,632,-215
40.382,39.94,0.10,1.78,1.26,1.56,-0.53,-0.30,0.30,-0.18,0.16,80.00,363.00,355.00,561.00,966.00,2045.00,2096.00,3071.00,,,,,,,,,,,,1,1,3,,-116,16204,1236,-262,610,-398
40.445,40.00,0.09,0.86,2.52,0.44,0.87,0.03,-0.06,-0.09,0.04,76.00,364.00,336.00,565.00,979.00,2038.00,2107.00,3071.00,,,,,,,,,,,,1,1,3,,-168,16216,1300,-297,608,-325
40.508,40.05,0.08,2.24,1.11,2.22,-0.70,-0.21,-0.13,-0.39,0.10,80.00,358.00,354.00,549.00,987.00,2061.00,2112.00,3103.00,,,,,,,,,,,,1,1,3,,-180,16068,1484,-153,755,-202
40.593,40.11,0.04,1.60,1.32,1.57,-0.94,-0.63,0.22,-0.58,0.16,80.00,365.00,363.00,567.00,976.00,2076.00,2112.00,3121.00,,,,,,,,,,,,1,1,3,,-372,16480,1348,-114,983,-219
40.612,40.16,0.02,2.06,1.17,0.71,0.08,-0.47,0.20,-0.25,0.05,80.00,360.00,349.00,571.00,974.00,2064.00,2112.00,3089.00,,,,,,,,,,,,1,1,3,,-232,16316,1312,-108,1232,-317
40.654,40.22,0.03,2.10,1.62,1.80,-0.34,0.22,-0.24,0.05,0.04,78.00,355.00,350.00,553.00,985.00,2032.00,2101.00,3053.00,,,,,,,,,,,,1,1,3,,-280,16136,1208,-46,1054,-350
40.696,40.27,0.00,3.19,0.33,2.78,-1.24,-0.47,0.59,0.01,0.10,82.00,352.00,361.00,545.00,954.00,2043.00,2096.00,3053.00,,,,,,,,,,,,1,1,3,,-288,16112,1224,-139,825,-165
