Time_Host,Time_Arduino,easingdata,CH1_Oxy,CH1_Deoxy,CH2_Oxy,CH2_Deoxy,CH3_Oxy,CH3_Deoxy,CH4_Oxy,CH4_Deoxy,CH1_PD730,CH1_PD850,CH2_PD730,CH2_PD850,CH3_PD730,CH3_PD850,CH4_PD730,CH4_PD850,Answers,airplane_playstate,trail_times,frameRate,Airplane X,Airplane Y,Correct,Wrong,Slow,AnswerRate,CorrectRate,VFTstates,VFTchoose,VFTCount,Culfstates,ax,ay,az,gx,gy,gz
1.161,0.04,0.00,0.00,0.00,0.00,0.00,0.00,0.00,0.00,0.00,893.00,2003.00,403.00,611.00,672.00,1770.00,1187.00,1643.00,,,,,,,,,,,,0,0,0,,-560,15764,4012,-243,95,-171
1.182,0.10,0.00,0.00,0.00,0.00,0.00,0.00,0.00,0.00,0.00,784.00,1922.00,208.00,511.00,906.00,1603.00,1385.00,1591.00,,,,,,,,,,,,0,0,0,,-560,15676,4092,-135,62,-174
1.202,0.16,0.00,0.00,0.00,0.00,0.00,0.00,0.00,0.00,0.00,944.00,1830.00,375.00,343.00,917.00,1697.00,1299.00,1704.00,,,,,,,,,,,,0,0,0,,-580,15580,3988,-144,57,-87
1.222,0.21,0.00,0.00,0.00,0.00,0.00,0.00,0.00,0.00,0.00,905.00,1945.00,444.00,394.00,811.00,1836.00,1251.00,1697.00,,,,,,,,,,,,0,0,0,,-472,15584,4140,-83,119,-159
1.243,0.27,0.00,0.00,0.00,0.00,0.00,0.00,0.00,0.00,0.00,885.00,1952.00,354.00,580.00,720.00,1737.00,1289.00,1671.00,,,,,,,,,,,,0,0,0,,-452,15568,4012,-128,124,-210
1.263,1.06,0.00,0.00,0.00,0.00,0.00,0.00,0.00,0.00,0.00,1022.00,1843.00,474.00,299.00,950.00,1776.00,1305.00,1755.00,,,,,,,,,,,,0,0,0,,-468,15540,4224,-70,84,-152
1.283,1.11,0.00,0.00,0.00,0.00,0.00,0.00,0.00,0.00,0.00,921.00,2003.00,446.00,464.00,735.00,1840.00,1214.00,1695.00,,,,,,,,,,,,0,0,0,,-540,15552,4088,-146,131,-126
1.324,1.17,0.00,0.00,0.00,0.00,0.00,0.00,0.00,0.00,0.00,818.00,1970.00,267.00,595.00,747.00,1722.00,1335.00,1653.00,,,,,,,,,,,,0,0,0,,-396,15632,4040,-58,182,-159
1.385,1.22,0.00,0.00,0.00,0.00,0.00,0.00,0.00,0.00,0.00,877.00,1937.00,206.00,455.00,1023.00,1552.00,1341.00,1670.00,,,,,,,,,,,,0,0,0,,-524,15488,4156,-302,52,-270
1.447,1.28,0.00,0.00,0.00,0.00,0.00,0.00,0.00,0.00,0.00,951.00,1839.00,560.00,237.00,857.00,1971.00,1288.00,1751.00,,,,,,,,,,,,0,0,0,,-532,15644,4120,-266,37,-156
1.489,1.33,-0.26,-1.43,0.77,-16.39,5.95,-5.18,8.04,-0.22,0.99,886.00,1995.00,365.00,732.00,593.00,1732.00,1227.00,1653.00,,,,,,,,,,,,0,0,0,,-464,15544,4180,-254,77,-193
1.551,1.39,0.34,-1.53,3.47,-35.00,49.29,11.80,-9.42,4.45,-3.14,767.00,1863.00,49.00,478.00,1120.00,1413.00,1409.00,1535.00,,,,,,,,,,,,0,0,0,,-448,15540,4240,-202,99,-222
1.652,1.44,0.17,5.84,-4.06,51.22,-26.99,-3.03,-0.12,-2.24,0.82,1008.00,1703.00,634.00,122.00,887.00,1980.00,1285.00,1799.00,,,,,,,,,,,,0,0,0,,-544,15472,4312,-168,114,-149
1.673,1.50,-0.12,-2.33,1.01,-13.74,3.23,-5.79,8.33,-1.39,2.69,889.00,2054.00,403.00,709.00,590.00,1760.00,1143.00,1654.00,,,,,,,,,,,,0,0,0,,-444,15520,4128,-179,-1,-288
1.713,1.55,0.22,-3.07,5.10,-25.78,31.77,6.77,-5.09,3.55,-2.98,722.00,1895.00,107.00,531.00,971.00,1535.00,1420.00,1584.00,,,,,,,,,,,,0,0,0,,-588,15488,4188,-209,-13,-180
1.775,1.61,0.34,3.79,-2.86,15.84,-8.22,2.60,-3.07,-0.73,0.14,981.00,1789.00,437.00,299.00,939.00,1715.00,1297.00,1726.00,,,,,,,,,,,,0,0,0,,-544,15632,4368,-99,95,-176
1.838,1.66,0.16,0.20,-0.29,5.59,-5.23,-3.25,2.95,-0.95,1.49,911.00,1924.00,448.00,414.00,754.00,1839.00,1210.00,1679.00,,,,,,,,,,,,0,0,0,,-540,15600,4180,-140,180,-186
1.898,1.72,0.04,-1.32,1.89,-12.84,8.44,-2.27,3.94,0.73,-0.30,832.00,1927.00,299.00,595.00,702.00,1723.00,1293.00,1648.00,,,,,,,,,,,,0,0,0,,-636,15528,4208,-93,128,-168
2.001,1.77,0.47,-0.43,1.24,-12.34,18.70,8.69,-7.11,1.41,-1.02,848.00,1893.00,170.00,443.00,1046.00,1502.00,1328.00,1636.00,,,,,,,,,,,,0,0,0,,-492,15644,4276,-157,125,-44
2.022,1.83,0.28,2.59,-2.40,32.99,-19.81,-3.40,0.55,-1.97,0.70,978.00,1853.00,599.00,207.00,861.00,1973.00,1287.00,1786.00,,,,,,,,,,,,0,0,0,,-436,15584,4212,-179,159,-138
2.062,1.88,-0.06,-2.26,0.72,-16.53,5.74,-6.56,9.49,-1.09,1.73,902.00,2064.00,370.00,740.00,562.00,1759.00,1198.00,1678.00,,,,,,,,,,,,0,0,0,,-520,15504,4248,-200,101,-219
2.103,1.94,0.50,-2.95,3.99,-38.50,53.76,11.26,-9.29,4.17,-3.25,765.00,1943.00,41.00,487.00,1123.00,1438.00,1425.00,1557.00,,,,,,,,,,,,0,0,0,,-440,15584,4304,-29,148,-56
2.168,1.99,0.33,5.33,-4.85,46.00,-25.47,-3.00,-0.38,-3.08,0.96,1062.00,1775.00,642.00,144.00,899.00,1991.00,1295.00,1853.00,,,,,,,,,,,,0,0,0,,-436,15484,4368,-183,190,-186
2.229,2.05,0.03,-2.47,1.04,-13.01,3.54,-5.72,7.45,-1.53,2.55,890.00,2064.00,391.00,683.00,618.00,1797.00,1155.00,1670.00,,,,,,,,,,,,0,0,0,,-528,15460,4312,53,163,-143
2.291,2.10,0.27,-2.54,4.15,-18.92,21.02,4.82,-3.34,3.31,-2.65,753.00,1904.00,169.00,540.00,915.00,1582.00,1401.00,1585.00,,,,,,,,,,,,0,0,0,,-548,15476,4056,-46,32,-129
2.374,2.16,0.41,3.50,-2.18,12.25,-4.62,3.25,-3.33,-0.49,0.08,950.00,1776.00,384.00,313.00,941.00,1683.00,1295.00,1712.00,,,,,,,,,,,,0,0,0,,-516,15608,4296,-14,131,-149
2.396,2.21,0.27,0.47,-0.30,8.97,-7.41,-2.49,1.81,-0.60,1.09,907.00,1904.00,474.00,384.00,791.00,1840.00,1229.00,1674.00,,,,,,,,,,,,0,0,0,,-504,15564,4116,33,148,-180
2.458,2.27,0.12,0.00,0.41,-11.37,5.03,-2.71,4.95,0.56,0.21,880.00,1903.00,350.00,615.00,670.00,1706.00,1262.00,1637.00,,,,,,,,,,,,0,0,0,,-516,15640,4172,-86,-5,-195
2.479,2.32,0.60,-0.34,1.63,-15.39,22.53,9.76,-7.94,2.40,-1.63,829.00,1867.00,146.00,451.00,1073.00,1472.00,1348.00,1599.00,,,,,,,,,,,,0,0,0,,-476,15480,4140,-104,-8,-153
2.542,2.38,0.41,4.01,-3.41,38.05,-22.27,-3.32,0.44,-1.73,0.73,1006.00,1799.00,624.00,181.00,865.00,1973.00,1279.00,1767.00,,,,,,,,,,,,0,0,0,,-532,15544,4332,-39,94,-184
2.605,2.43,0.07,-1.96,1.03,-15.64,5.10,-6.35,9.42,-0.97,1.85,882.00,2023.00,377.00,727.00,562.00,1748.00,1187.00,1664.00,,,,,,,,,,,,0,0,0,,-612,15512,4252,-33,137,-154
2.648,2.49,0.64,-2.56,4.18,-39.83,56.10,11.59,-9.17,4.73,-3.50,752.00,1904.00,37.00,482.00,1109.00,1415.00,1430.00,1533.00,,,,,,,,,,,,0,0,0,,-444,15576,4216,-163,40,-139
2.732,2.54,0.52,6.31,-5.64,42.57,-24.34,-1.90,-0.96,-2.57,0.97,1089.00,1744.00,643.00,160.00,909.00,1936.00,1282.00,1815.00,,,,,,,,,,,,0,0,0,,-580,15444,4184,-350,220,-82
2.793,2.60,0.25,-2.28,0.48,-8.42,0.20,-4.79,5.65,-1.56,2.15,914.00,2079.00,431.00,623.00,670.00,1818.00,1181.00,1690.00,,,,,,,,,,,,0,0,0,,-408,15600,4384,-143,235,-161
2.814,2.65,0.42,-2.52,2.66,-14.76,13.53,3.65,-2.27,2.73,-2.28,816.00,1980.00,235.00,560.00,882.00,1610.00,1388.00,1606.00,,,,,,,,,,,,0,0,0,,-448,15584,4244,-15,116,-213
2.877,2.71,0.58,2.35,-2.12,7.37,-1.06,3.54,-3.91,-1.11,0.09,967.00,1856.00,346.00,345.00,966.00,1690.00,1309.00,1754.00,,,,,,,,,,,,0,0,0,,-516,15532,4156,46,71,-176
2.919,2.76,0.44,0.74,-0.92,14.60,-9.95,-2.27,0.39,-0.65,0.34,933.00,1915.00,491.00,329.00,851.00,1895.00,1281.00,1711.00,,,,,,,,,,,,0,0,0,,-568,15480,4304,-244,80,-172
2.982,2.82,0.23,-0.64,0.61,-13.19,5.59,-3.72,5.71,0.07,0.34,881.00,1942.00,351.00,651.00,655.00,1740.00,1264.00,1663.00,,,,,,,,,,,,0,0,0,,-472,15516,4340,-50,134,-159
3.045,2.87,0.75,-0.65,1.98,-17.78,26.06,10.78,-9.06,2.88,-2.47,818.00,1872.00,126.00,451.00,1119.00,1457.00,1399.00,1605.00,,,,,,,,,,,,0,0,0,,-508,15404,4244,-119,131,-54
3.108,2.93,0.56,4.76,-3.69,43.26,-24.17,-3.15,0.17,-1.77,0.73,1008.00,1760.00,629.00,155.00,875.00,1974.00,1280.00,1770.00,,,,,,,,,,,,0,0,0,,-472,15592,4256,-179,93,-128
3.15,2.98,0.20,-1.59,0.93,-15.82,5.11,-6.70,9.70,-1.04,2.16,881.00,1999.00,378.00,732.00,557.00,1759.00,1169.00,1655.00,,,,,,,,,,,,0,0,0,,-444,15532,4232,-97,216,-88
3.232,3.04,0.77,-2.70,5.06,-39.90,56.12,11.70,-9.30,5.60,-4.24,719.00,1870.00,37.00,483.00,1115.00,1414.00,1465.00,1511.00,,,,,,,,,,,,0,0,0,,-512,15640,4232,-167,208,-175
3.252,3.09,0.71,6.88,-5.54,35.93,-20.55,-0.52,-1.68,-2.14,0.62,1072.00,1701.00,591.00,188.00,922.00,1869.00,1296.00,1801.00,,,,,,,,,,,,0,0,0,,-452,15576,4284,-106,90,-200
3.315,3.15,0.48,-0.96,-0.04,-4.59,-1.47,-3.78,4.37,-1.04,1.46,918.00,2001.00,440.00,560.00,705.00,1808.00,1214.00,1686.00,,,,,,,,,,,,0,0,0,,-496,15524,4224,56,18,-192
3.376,3.20,0.60,-1.79,2.94,-15.52,15.86,2.85,-0.90,2.87,-1.98,793.00,1909.00,210.00,542.00,831.00,1602.00,1362.00,1584.00,,,,,,,,,,,,0,0,0,,-604,15484,4244,-62,50,-161
3.458,3.26,0.84,2.50,-1.49,3.61,2.60,5.42,-4.79,0.25,-0.59,932.00,1814.00,304.00,363.00,979.00,1606.00,1325.00,1693.00,,,,,,,,,,,,0,0,0,,-492,15416,4144,-208,101,-224
3.478,3.31,0.68,1.30,-0.88,20.15,-12.52,-2.43,0.51,-0.63,0.28,922.00,1872.00,510.00,283.00,848.00,1901.00,1285.00,1713.00,,,,,,,,,,,,0,0,0,,-512,15492,4288,-249,84,-221
3.538,3.37,0.43,-1.01,0.65,-13.39,5.61,-4.38,6.62,-0.29,0.54,885.00,1968.00,352.00,656.00,631.00,1743.00,1259.00,1678.00,,,,,,,,,,,,0,0,0,,-688,15636,4292,-156,14,-200
3.62,3.42,0.94,-1.70,2.38,-22.58,32.31,10.74,-9.08,2.71,-2.55,816.00,1931.00,98.00,461.00,1121.00,1460.00,1409.00,1619.00,,,,,,,,,,,,0,0,0,,-612,15492,4252,-118,65,-133
3.661,3.48,0.71,4.15,-4.07,44.65,-24.75,-3.66,0.13,-2.60,0.78,1040.00,1821.00,633.00,149.00,885.00,2016.00,1296.00,1827.00,,,,,,,,,,,,0,0,0,,-420,15624,4180,-40,203,-156
3.743,3.53,0.32,-2.24,0.57,-15.45,4.36,-7.17,9.76,-1.72,2.40,909.00,2071.00,391.00,736.00,560.00,1789.00,1168.00,1689.00,,,,,,,,,,,,0,0,0,,-544,15428,4476,-182,72,-159
3.764,3.59,0.81,-3.20,5.17,-34.22,46.23,10.16,-8.28,5.31,-4.03,721.00,1901.00,57.00,503.00,1085.00,1462.00,1456.00,1520.00,,,,,,,,,,,,0,0,0,,-480,15584,4344,-167,194,-91
3.825,3.64,0.79,5.90,-4.69,30.86,-17.38,0.35,-2.29,-1.74,0.26,1042.00,1728.00,546.00,211.00,938.00,1836.00,1312.00,1790.00,,,,,,,,,,,,0,0,0,,-456,15732,4416,-59,293,-86
3.866,3.70,0.57,-0.22,-0.15,-0.76,-3.05,-3.58,3.96,-0.78,1.48,911.00,1949.00,447.00,502.00,718.00,1813.00,1207.00,1668.00,,,,,,,,,,,,0,0,0,,-468,15456,4280,-111,325,-55
3.926,3.75,0.63,-1.28,2.98,-15.04,14.35,1.76,0.38,2.78,-1.73,784.00,1869.00,226.00,554.00,791.00,1616.00,1346.00,1579.00,,,,,,,,,,,,0,0,0,,-500,15560,4416,277,480,1
3.968,3.81,0.96,1.72,-0.47,-2.97,7.49,7.21,-5.75,0.99,-0.68,895.00,1821.00,263.00,413.00,998.00,1535.00,1314.00,1648.00,,,,,,,,,,,,0,0,0,,-544,15664,4184,-91,599,-140
4.031,3.86,0.78,2.04,-0.97,25.97,-15.12,-2.68,0.70,-0.49,0.26,914.00,1822.00,528.00,241.00,843.00,1910.00,1283.00,1704.00,,,,,,,,,,,,0,0,0,,-404,15652,3980,-196,230,-189
4.091,3.92,0.50,-1.44,1.17,-15.43,6.03,-4.72,7.73,0.14,0.78,867.00,1974.00,357.00,703.00,598.00,1715.00,1233.00,1639.00,,,,,,,,,,,,0,0,0,,-596,15676,4048,376,-113,-289
4.133,3.97,1.08,-1.01,2.51,-27.49,39.40,12.08,-9.41,3.98,-2.99,800.00,1872.00,73.00,463.00,1114.00,1397.00,1410.00,1558.00,,,,,,,,,,,,0,0,0,,-444,15492,4380,754,95,-87
4.215,4.03,0.88,4.93,-3.99,47.30,-25.53,-2.87,-0.16,-2.12,0.76,1021.00,1762.00,629.00,137.00,886.00,1969.00,1286.00,1793.00,,,,,,,,,,,,0,0,0,,-512,15640,3988,552,348,-74
4.256,4.08,0.48,-2.70,1.03,-15.21,4.00,-7.07,9.76,-1.59,2.41,894.00,2083.00,397.00,736.00,559.00,1782.00,1165.00,1680.00,,,,,,,,,,,,0,0,0,,-440,15352,3732,-1160,407,-178
4.297,4.14,0.90,-3.58,5.20,-28.98,38.21,8.85,-7.08,4.58,-3.73,725.00,1929.00,80.00,507.00,1041.00,1491.00,1452.00,1552.00,,,,,,,,,,,,0,0,0,,-548,15812,4324,-540,388,-19
4.36,4.19,0.91,3.78,-3.92,19.91,-11.51,1.06,-2.75,-1.61,0.04,1039.00,1841.00,485.00,278.00,949.00,1807.00,1325.00,1792.00,,,,,,,,,,,,0,0,0,,-336,15768,4640,74,249,-159
4.421,4.25,0.68,-0.93,-0.17,1.04,-3.32,-3.70,3.50,-1.22,1.40,924.00,2006.00,439.00,471.00,738.00,1845.00,1222.00,1701.00,,,,,,,,,,,,0,0,0,,-516,15488,4084,-345,240,-288
4.462,4.30,0.63,-2.21,2.60,-14.64,11.91,-0.40,1.65,1.54,-1.35,814.00,1959.00,256.00,582.00,768.00,1701.00,1349.00,1642.00,,,,,,,,,,,,0,0,0,,-692,15248,3880,-352,-1,-405
4.565,4.36,0.96,0.16,0.57,-9.07,13.87,7.38,-5.98,0.89,-0.80,870.00,1883.00,208.00,443.00,1008.00,1535.00,1325.00,1660.00,,,,,,,,,,,,0,0,0,,-828,15472,4152,-418,-67,45
4.586,4.41,0.76,2.55,-1.58,27.06,-16.57,-3.10,0.60,-1.14,0.46,936.00,1815.00,560.00,240.00,854.00,1947.00,1284.00,1739.00,,,,,,,,,,,,0,0,0,,-516,15280,4164,-313,-297,163
4.628,4.47,0.48,-1.31,0.96,-15.94,6.00,-4.86,7.93,-0.05,0.90,875.00,1975.00,361.00,718.00,593.00,1715.00,1229.00,1646.00,,,,,,,,,,,,0,0,0,,-680,15684,4784,-86,-244,17
4.691,4.52,1.05,-1.51,3.87,-29.23,42.13,11.84,-9.17,4.41,-3.07,750.00,1841.00,65.00,461.00,1104.00,1401.00,1405.00,1535.00,,,,,,,,,,,,0,0,0,,-576,15140,4588,-113,68,24
4.754,4.58,0.86,5.79,-3.99,50.96,-26.61,-2.69,-0.13,-2.17,0.88,1005.00,1703.00,624.00,122.00,882.00,1954.00,1279.00,1791.00,,,,,,,,,,,,0,0,0,,-704,15536,4668,-163,206,-145
4.795,4.63,0.52,-2.34,1.18,-13.76,3.79,-5.93,8.83,-1.03,2.35,881.00,2045.00,391.00,699.00,576.00,1747.00,1157.00,1646.00,,,,,,,,,,,,0,0,0,,-664,15520,4400,185,478,200
4.855,4.69,0.85,-2.86,5.11,-24.91,32.72,7.13,-5.14,4.45,-3.14,719.00,1879.00,100.00,500.00,967.00,1515.00,1409.00,1535.00,,,,,,,,,,,,0,0,0,,-248,15544,4336,227,436,371
4.958,4.74,0.93,3.70,-2.76,16.65,-8.28,2.46,-2.80,-0.76,0.08,977.00,1790.00,432.00,290.00,928.00,1712.00,1302.00,1731.00,,,,,,,,,,,,0,0,0,,-196,15824,4120,166,248,204
4.979,4.80,0.75,-0.15,0.07,5.94,-4.93,-2.74,2.85,-0.92,1.47,899.00,1932.00,438.00,405.00,751.00,1807.00,1211.00,1678.00,,,,,,,,,,,,0,0,0,,-240,15792,4260,415,443,16
5.019,4.85,0.62,-1.32,1.89,-12.27,8.75,-1.83,3.64,0.58,-0.23,832.00,1927.00,291.00,577.00,708.00,1707.00,1292.00,1655.00,,,,,,,,,,,,0,0,0,,-116,15324,3976,412,280,-248
5.082,4.91,1.00,-0.46,1.25,-10.50,16.92,8.15,-6.52,1.41,-1.16,848.00,1895.00,181.00,432.00,1023.00,1510.00,1338.00,1642.00,,,,,,,,,,,,0,0,0,,-368,15460,3888,406,127,-240
5.144,4.96,0.77,2.32,-2.01,32.91,-18.96,-3.59,0.75,-2.07,0.73,962.00,1853.00,573.00,203.00,855.00,1978.00,1287.00,1791.00,,,,,,,,,,,,0,0,0,,-360,15476,3804,-87,205,-219
5.185,5.02,0.43,-2.11,0.81,-16.03,6.34,-5.95,8.77,-0.89,1.38,895.00,2047.00,355.00,714.00,578.00,1751.00,1216.00,1680.00,,,,,,,,,,,,0,0,0,,-188,15848,3960,-61,160,-130
5.246,5.07,0.97,-2.47,3.88,-33.80,48.15,11.12,-8.89,3.69,-3.06,763.00,1912.00,51.00,470.00,1102.00,1431.00,1423.00,1579.00,,,,,,,,,,,,0,0,0,,-344,15792,3912,-301,-31,-395
5.307,5.13,0.78,5.75,-4.55,45.43,-24.63,-2.78,-0.27,-2.71,0.82,1037.00,1732.00,620.00,144.00,890.00,1968.00,1296.00,1833.00,,,,,,,,,,,,0,0,0,,-248,15324,4032,-188,69,-108
5.348,5.18,0.46,-2.12,1.07,-11.47,2.60,-5.64,7.76,-1.70,2.64,883.00,2034.00,400.00,659.00,607.00,1777.00,1153.00,1677.00,,,,,,,,,,,,0,0,0,,-212,15592,3976,-158,89,-139
5.413,5.24,0.70,-2.33,4.35,-24.98,30.65,5.33,-3.43,3.26,-2.55,742.00,1878.00,112.00,530.00,911.00,1554.00,1395.00,1584.00,,,,,,,,,,,,0,0,0,,-252,15676,4284,-112,196,-236
5.494,5.29,0.83,3.94,-2.15,13.21,-4.21,3.26,-2.99,-0.63,0.19,941.00,1744.00,369.00,298.00,924.00,1667.00,1291.00,1717.00,,,,,,,,,,,,0,0,0,,-360,15592,3980,-69,510,-298
5.515,5.35,0.66,0.15,0.18,9.13,-6.67,-2.57,2.19,-0.79,1.30,889.00,1904.00,454.00,374.00,776.00,1827.00,1219.00,1677.00,,,,,,,,,,,,0,0,0,,-172,15744,3692,-123,528,-354
5.575,5.40,0.51,-0.09,0.74,-10.30,4.94,-2.40,4.85,0.55,-0.01,866.00,1893.00,345.00,591.00,670.00,1690.00,1277.00,1647.00,,,,,,,,,,,,0,0,0,,-112,15060,3612,-265,611,-251
5.658,5.46,0.97,-0.29,1.77,-15.71,24.08,9.88,-7.70,2.25,-1.55,822.00,1856.00,135.00,438.00,1057.00,1456.00,1346.00,1605.00,,,,,,,,,,,,0,0,0,,-208,15972,3288,-1524,55,-797
5.679,5.51,0.77,3.96,-3.22,38.81,-22.34,-3.20,0.68,-1.48,0.53,997.00,1794.00,618.00,176.00,852.00,1951.00,1287.00,1759.00,,,,,,,,,,,,0,0,0,,-696,15520,4460,-1249,-789,-952
5.739,5.57,0.42,-1.76,1.07,-15.98,5.96,-6.20,9.90,-0.63,1.71,877.00,2005.00,362.00,720.00,546.00,1715.00,1189.00,1648.00,,,,,,,,,,,,0,0,0,,-936,15680,5204,-524,-933,-1141
5.8,5.62,1.01,-2.47,4.40,-41.15,59.22,12.20,-9.27,5.07,-3.51,742.00,1886.00,32.00,467.00,1103.00,1385.00,1422.00,1513.00,,,,,,,,,,,,0,0,0,,-1252,15260,5168,157,-682,-663
5.842,5.68,0.87,6.42,-5.47,48.25,-26.11,-1.70,-0.94,-2.65,0.87,1077.00,1729.00,638.00,134.00,905.00,1920.00,1291.00,1826.00,,,,,,,,,,,,0,0,0,,-1156,15152,4856,-180,-82,-308
5.904,5.73,0.59,-2.25,0.70,-8.59,1.18,-4.82,6.36,-1.60,2.32,903.00,2065.00,410.00,611.00,645.00,1786.00,1171.00,1685.00,,,,,,,,,,,,0,0,0,,-940,15376,4948,-69,126,150
5.965,5.79,0.76,-1.99,2.73,-16.60,18.37,3.96,-2.10,2.80,-2.20,805.00,1935.00,187.00,529.00,869.00,1583.00,1380.00,1598.00,,,,,,,,,,,,0,0,0,,-668,15496,4920,216,262,569
6.027,5.84,0.92,2.45,-1.80,9.56,-1.25,4.04,-3.94,-0.82,-0.06,949.00,1833.00,336.00,318.00,959.00,1658.00,1313.00,1741.00,,,,,,,,,,,,0,0,0,,-368,15528,4368,413,401,620
6.068,5.90,0.76,0.95,-0.66,15.45,-9.82,-2.26,0.94,-0.62,0.39,917.00,1887.00,480.00,317.00,826.00,1867.00,1277.00,1707.00,,,,,,,,,,,,0,0,0,,-212,15752,4176,259,367,392
6.13,5.95,0.56,-0.53,0.80,-12.05,5.26,-3.16,5.69,-0.01,0.37,870.00,1923.00,350.00,628.00,649.00,1703.00,1264.00,1667.00,,,,,,,,,,,,0,0,0,,-384,15800,3772,24,232,-251
6.213,6.01,1.09,-0.69,2.06,-18.49,27.35,11.04,-9.02,3.09,-2.65,815.00,1871.00,119.00,448.00,1111.00,1440.00,1407.00,1599.00,,,,,,,,,,,,0,0,0,,-684,15660,3960,-143,190,-436
6.233,6.06,0.87,4.39,-3.42,42.71,-23.83,-3.23,0.52,-1.99,0.94,1000.00,1773.00,624.00,157.00,860.00,1962.00,1271.00,1776.00,,,,,,,,,,,,0,0,0,,-704,15368,4216,-71,469,-133
6.273,6.12,0.51,-1.52,0.80,-15.64,5.20,-6.29,9.70,-0.86,1.99,886.00,2000.00,375.00,725.00,553.00,1731.00,1176.00,1651.00,,,,,,,,,,,,0,0,0,,-616,15392,4100,-152,618,133
6.334,6.17,1.08,-2.95,5.16,-40.07,56.69,11.82,-9.33,5.64,-4.21,718.00,1883.00,36.00,479.00,1114.00,1408.00,1461.00,1507.00,,,,,,,,,,,,0,0,0,,-208,15356,4088,-363,592,395
6.397,6.23,0.99,6.53,-5.34,37.88,-21.39,-0.76,-1.42,-2.30,0.72,1067.00,1715.00,597.00,178.00,913.00,1874.00,1293.00,1808.00,,,,,,,,,,,,0,0,0,,-24,15580,4528,-582,362,217
6.459,6.28,0.75,-1.37,0.22,-5.53,-0.82,-3.69,4.45,-0.88,1.27,912.00,2020.00,432.00,571.00,701.00,1798.00,1223.00,1684.00,,,,,,,,,,,,0,0,0,,-224,15604,4552,-514,125,-134
6.519,6.34,0.87,-1.84,2.82,-15.47,15.58,3.04,-1.18,2.93,-2.13,799.00,1919.00,213.00,545.00,841.00,1602.00,1372.00,1587.00,,,,,,,,,,,,0,0,0,,-280,15700,4736,-294,-11,-307
6.581,6.39,1.08,2.37,-1.46,3.21,2.67,5.16,-4.57,0.04,-0.46,933.00,1822.00,305.00,368.00,972.00,1613.00,1321.00,1701.00,,,,,,,,,,,,0,0,0,,-276,15520,4800,-98,16,-267
6.642,6.45,0.91,1.16,-0.99,19.17,-12.12,-2.32,0.40,-0.62,0.18,930.00,1888.00,508.00,291.00,851.00,1898.00,1291.00,1716.00,,,,,,,,,,,,0,0,0,,-404,15460,4556,-27,-60,-231
6.662,6.50,0.66,-1.17,0.68,-13.78,5.79,-4.11,6.27,-0.30,0.53,886.00,1979.00,351.00,663.00,640.00,1741.00,1260.00,1679.00,,,,,,,,,,,,0,0,0,,-376,15656,4440,98,-34,-247
6.766,6.56,1.15,-1.70,2.38,-21.52,30.50,10.37,-8.99,2.59,-2.56,816.00,1931.00,106.00,464.00,1123.00,1478.00,1413.00,1627.00,,,,,,,,,,,,0,0,0,,-372,15548,4288,86,79,-329
6.808,6.61,0.91,4.01,-3.89,44.85,-25.05,-3.51,0.18,-2.43,0.80,1033.00,1823.00,641.00,149.00,880.00,2001.00,1291.00,1814.00,,,,,,,,,,,,0,0,0,,-436,15408,4232,-112,-71,-488
6.83,6.67,0.51,-1.97,0.79,-15.42,4.16,-7.25,10.16,-1.15,2.01,894.00,2037.00,395.00,739.00,549.00,1776.00,1181.00,1669.00,,,,,,,,,,,,0,0,0,,-624,15432,4148,-42,-21,-361
6.89,6.72,1.00,-3.22,5.20,-34.83,47.44,10.39,-8.46,5.32,-4.05,720.00,1901.00,54.00,499.00,1091.00,1456.00,1457.00,1520.00,,,,,,,,,,,,0,0,0,,-708,15476,4336,-131,-31,-276
6.953,6.78,0.95,6.36,-5.09,30.27,-17.55,0.10,-2.01,-1.64,0.29,1056.00,1715.00,557.00,217.00,928.00,1840.00,1308.00,1782.00,,,,,,,,,,,,0,0,0,,-648,15460,4512,-185,71,-144
6.994,6.83,0.74,-0.47,-0.13,-1.30,-2.91,-3.34,3.91,-0.86,1.46,914.00,1967.00,448.00,511.00,717.00,1799.00,1210.00,1674.00,,,,,,,,,,,,0,0,0,,-592,15444,4496,-106,276,84
7.056,6.89,0.80,-1.62,3.05,-14.92,14.63,1.96,0.08,2.75,-1.68,786.00,1891.00,222.00,547.00,801.00,1616.00,1343.00,1579.00,,,,,,,,,,,,0,0,0,,-528,15368,4528,-260,346,33
7.157,6.94,1.10,1.84,-0.86,-2.04,7.32,6.72,-5.45,1.10,-0.89,912.00,1831.00,261.00,400.00,991.00,1553.00,1326.00,1650.00,,,,,,,,,,,,0,0,0,,-352,15516,4468,-249,246,-14
7.178,7.00,0.90,1.74,-1.03,23.83,-14.36,-2.77,0.62,-0.34,0.28,922.00,1847.00,527.00,257.00,848.00,1921.00,1278.00,1693.00,,,,,,,,,,,,0,0,0,,-336,15496,4472,-179,114,-83
7.218,7.05,0.65,-1.51,1.07,-15.15,5.74,-4.17,6.84,-0.19,0.90,873.00,1985.00,361.00,701.00,621.00,1718.00,1232.00,1655.00,,,,,,,,,,,,0,0,0,,-392,15608,4572,-46,118,-84
7.279,7.11,1.21,-1.41,2.58,-23.74,34.28,11.78,-9.26,3.65,-2.81,803.00,1899.00,90.00,458.00,1111.00,1408.00,1405.00,1571.00,,,,,,,,,,,,0,0,0,,-388,15488,4424,-86,71,-104
7.32,7.16,0.99,4.78,-4.12,48.52,-26.23,-3.04,-0.08,-2.25,0.70,1031.00,1779.00,639.00,133.00,885.00,1978.00,1293.00,1805.00,,,,,,,,,,,,0,0,0,,-244,15556,4424,-45,86,-40
7.402,7.22,0.61,-2.57,0.85,-15.62,4.52,-6.76,9.63,-1.58,2.55,901.00,2083.00,389.00,738.00,560.00,1767.00,1156.00,1673.00,,,,,,,,,,,,0,0,0,,-328,15504,4328,-79,84,-143
7.444,7.27,1.04,-3.62,4.98,-31.87,42.19,9.19,-7.47,5.45,-4.06,734.00,1943.00,68.00,511.00,1057.00,1487.00,1455.00,1513.00,,,,,,,,,,,,0,0,0,,-416,15580,4232,36,111,-174
7.567,7.33,1.05,4.30,-3.81,22.92,-13.16,1.26,-2.72,-1.50,0.10,1023.00,1798.00,502.00,258.00,944.00,1791.00,1318.00,1781.00,,,,,,,,,,,,0,0,0,,-408,15444,4372,-203,13,-241
7.588,7.38,0.83,-0.54,0.02,0.94,-3.50,-3.29,3.79,-0.63,1.45,908.00,1965.00,444.00,475.00,721.00,1801.00,1206.00,1660.00,,,,,,,,,,,,0,0,0,,-372,15444,4396,-177,22,-268
7.609,7.44,0.84,-1.73,3.13,-14.59,13.09,1.01,0.99,2.57,-1.53,784.00,1895.00,240.00,563.00,776.00,1638.00,1337.00,1584.00,,,,,,,,,,,,0,0,0,,-508,15560,4564,-203,29,-221
7.65,7.49,1.20,0.53,0.68,-8.24,13.59,8.05,-6.25,1.75,-1.06,859.00,1850.00,208.00,432.00,1010.00,1505.00,1323.00,1616.00,,,,,,,,,,,,0,0,0,,-536,15596,4548,-207,45,-172
7.731,7.55,1.01,2.56,-1.45,26.88,-15.84,-2.50,0.55,-0.31,0.37,929.00,1808.00,540.00,237.00,847.00,1904.00,1271.00,1687.00,,,,,,,,,,,,0,0,0,,-396,15568,4368,-47,140,-173
7.794,7.60,0.73,-1.73,1.36,-16.48,6.70,-4.64,8.04,0.56,0.67,863.00,1987.00,351.00,720.00,587.00,1695.00,1231.00,1617.00,,,,,,,,,,,,0,0,0,,-500,15572,4412,-100,79,-182
7.876,7.66,1.33,-1.76,3.45,-29.69,43.46,12.74,-9.52,4.57,-2.99,771.00,1881.00,61.00,453.00,1107.00,1365.00,1395.00,1522.00,,,,,,,,,,,,0,0,0,,-436,15548,4408,-163,51,-124
7.895,7.71,1.14,5.08,-3.80,51.83,-26.96,-2.44,-0.17,-1.72,0.80,1008.00,1743.00,626.00,119.00,880.00,1937.00,1274.00,1763.00,,,,,,,,,,,,0,0,0,,-416,15488,4452,-69,60,-177
7.936,7.77,0.78,-2.97,1.39,-15.53,4.63,-6.20,9.44,-1.03,2.68,881.00,2085.00,386.00,733.00,560.00,1737.00,1136.00,1631.00,,,,,,,,,,,,0,0,0,,-412,15576,4272,-72,95,-180
7.998,7.82,1.15,-3.50,5.25,-29.81,39.44,8.28,-5.94,4.86,-3.42,722.00,1920.00,76.00,507.00,989.00,1479.00,1420.00,1522.00,,,,,,,,,,,,0,0,0,,-272,15404,4404,-63,129,-216
8.039,7.88,1.19,3.65,-3.32,18.31,-10.08,1.98,-2.72,-0.93,0.09,1008.00,1821.00,462.00,285.00,932.00,1741.00,1305.00,1742.00,,,,,,,,,,,,0,0,0,,-456,15512,4412,-118,165,-139
8.103,7.93,0.97,-0.83,0.04,4.05,-4.55,-3.24,3.47,-0.84,1.59,912.00,1987.00,444.00,432.00,733.00,1813.00,1201.00,1667.00,,,,,,,,,,,,0,0,0,,-368,15424,4372,-130,94,-85
8.163,7.99,0.85,-2.63,2.79,-14.52,11.16,-1.54,3.23,0.92,-0.54,812.00,1982.00,266.00,591.00,720.00,1706.00,1306.00,1647.00,,,,,,,,,,,,0,0,0,,-240,15636,4468,-204,113,-106
8.245,8.04,1.21,-0.86,1.04,-11.03,16.59,8.17,-6.53,1.21,-0.69,864.00,1936.00,186.00,445.00,1023.00,1509.00,1309.00,1634.00,,,,,,,,,,,,0,0,0,,-344,15584,4456,-158,89,-358
8.265,8.10,0.98,2.42,-1.64,31.67,-18.22,-3.38,0.82,-1.38,0.59,941.00,1827.00,563.00,209.00,848.00,1957.00,1281.00,1750.00,,,,,,,,,,,,0,0,0,,-456,15480,4540,-139,74,-152
8.327,8.15,0.68,-1.59,1.05,-16.39,6.57,-4.99,8.54,0.34,0.88,875.00,1992.00,353.00,720.00,575.00,1696.00,1222.00,1622.00,,,,,,,,,,,,0,0,0,,-480,15512,4564,-85,61,-182
8.367,8.21,1.31,-1.53,3.93,-38.58,55.68,13.20,-9.62,5.17,-3.29,748.00,1840.00,37.00,464.00,1104.00,1344.00,1402.00,1498.00,,,,,,,,,,,,0,0,0,,-416,15544,4512,49,117,-198
8.471,8.26,1.12,6.23,-4.15,53.76,-27.55,-2.58,0.10,-1.99,0.94,1006.00,1681.00,624.00,112.00,869.00,1933.00,1271.00,1776.00,,,,,,,,,,,,0,0,0,,-464,15376,4420,22,90,-170
8.493,8.32,0.78,-2.14,1.22,-12.93,3.37,-5.64,8.95,-0.60,2.54,876.00,2027.00,394.00,684.00,569.00,1721.00,1136.00,1610.00,,,,,,,,,,,,0,0,0,,-312,15500,4164,-44,94,-179
8.532,8.37,1.10,-2.78,5.32,-24.18,31.06,7.31,-4.73,4.57,-3.02,710.00,1863.00,108.00,508.00,943.00,1488.00,1397.00,1523.00,,,,,,,,,,,,0,0,0,,-484,15520,4464,-97,47,-180
8.616,8.43,1.22,4.08,-2.58,17.51,-7.56,3.45,-2.96,0.02,-0.03,961.00,1755.00,409.00,275.00,919.00,1653.00,1291.00,1683.00,,,,,,,,,,,,0,0,0,,-504,15476,4484,-169,60,-218
8.678,8.48,1.03,0.44,0.04,7.79,-6.05,-2.54,3.18,-0.14,1.42,891.00,1889.00,450.00,388.00,735.00,1777.00,1197.00,1629.00,,,,,,,,,,,,0,0,0,,-500,15468,4528,-63,52,-216
8.698,8.54,0.92,-1.09,2.11,-11.57,7.70,-1.31,4.18,1.47,-0.33,819.00,1899.00,304.00,577.00,681.00,1648.00,1278.00,1602.00,,,,,,,,,,,,0,0,0,,-448,15624,4376,-99,81,-216
8.759,8.59,1.36,-0.19,1.27,-11.94,19.91,9.78,-6.99,2.14,-1.04,843.00,1874.00,158.00,422.00,1019.00,1434.00,1312.00,1590.00,,,,,,,,,,,,0,0,0,,-476,15448,4432,-151,103,-138
8.82,8.65,1.14,3.11,-2.24,37.13,-21.33,-2.96,0.75,-1.30,0.80,960.00,1807.00,603.00,183.00,845.00,1929.00,1264.00,1734.00,,,,,,,,,,,,0,0,0,,-388,15396,4436,-124,95,-118
8.862,8.70,0.80,-2.07,1.20,-15.75,5.94,-5.66,9.35,-0.32,1.68,876.00,2023.00,361.00,714.00,557.00,1704.00,1184.00,1629.00,,,,,,,,,,,,0,0,0,,-332,15512,4436,-134,121,-150
8.923,8.76,1.41,-2.71,4.18,-38.89,56.29,12.86,-9.56,4.77,-3.24,754.00,1915.00,36.00,462.00,1107.00,1360.00,1409.00,1520.00,,,,,,,,,,,,0,0,0,,-368,15664,4416,-47,114,-234
8.985,8.81,1.22,6.08,-4.71,53.42,-27.70,-2.36,-0.16,-2.46,1.08,1040.00,1717.00,633.00,114.00,878.00,1930.00,1272.00,1802.00,,,,,,,,,,,,0,0,0,,-516,15380,4616,-153,79,-158
9.028,8.87,0.90,-1.87,1.07,-10.94,2.29,-5.10,8.07,-0.82,2.57,879.00,2014.00,403.00,651.00,591.00,1725.00,1139.00,1623.00,,,,,,,,,,,,0,0,0,,-404,15572,4500,-80,103,-199
9.089,8.92,1.20,-2.11,4.33,-19.71,24.24,6.89,-4.12,4.47,-2.74,740.00,1863.00,144.00,511.00,919.00,1488.00,1379.00,1518.00,,,,,,,,,,,,0,0,0,,-452,15520,4456,-54,94,-190
9.153,8.98,1.36,4.33,-2.20,15.83,-5.49,4.39,-3.19,0.56,-0.04,937.00,1720.00,377.00,278.00,915.00,1603.00,1279.00,1648.00,,,,,,,,,,,,0,0,0,,-412,15536,4324,-40,115,-172
9.195,9.03,1.21,0.75,0.12,10.56,-7.15,-1.66,2.22,0.17,1.28,882.00,1862.00,454.00,358.00,762.00,1761.00,1199.00,1615.00,,,,,,,,,,,,0,0,0,,-328,15504,4232,-23,130,-168
9.256,9.09,1.07,0.08,1.07,-11.22,6.30,-1.51,5.28,1.50,0.19,848.00,1864.00,326.00,591.00,644.00,1613.00,1242.00,1578.00,,,,,,,,,,,,0,0,0,,-388,15556,4412,-192,105,-221
9.38,9.14,1.58,0.51,1.44,-13.31,22.48,11.20,-7.85,3.47,-1.68,825.00,1815.00,141.00,416.00,1040.00,1387.00,1326.00,1535.00,,,,,,,,,,,,0,0,0,,-512,15560,4392,-138,61,-174
9.4,9.20,1.37,4.59,-3.10,43.74,-24.15,-2.60,0.91,-0.92,0.85,979.00,1744.00,623.00,152.00,832.00,1893.00,1252.00,1706.00,,,,,,,,,,,,0,0,0,,-400,15424,4520,-106,114,-139
9.442,9.25,1.01,-1.30,1.09,-15.56,6.18,-5.77,10.48,-0.24,2.24,869.00,1968.00,355.00,704.00,525.00,1660.00,1147.00,1600.00,,,,,,,,,,,,0,0,0,,-464,15480,4532,-103,202,-200
9.482,9.31,1.63,-2.56,4.98,-39.79,58.77,13.39,-9.49,5.60,-3.30,720.00,1863.00,32.00,448.00,1092.00,1329.00,1392.00,1473.00,,,,,,,,,,,,0,0,0,,-472,15472,4564,-186,152,-133
9.545,9.36,1.48,6.96,-5.55,51.22,-26.99,-1.38,-0.53,-1.86,0.77,1071.00,1696.00,634.00,122.00,880.00,1875.00,1279.00,1774.00,,,,,,,,,,,,0,0,0,,-360,15532,4548,-169,115,-131
9.586,9.42,1.19,-1.87,0.75,-7.96,1.42,-4.43,6.70,-1.14,2.68,894.00,2031.00,400.00,592.00,629.00,1743.00,1139.00,1639.00,,,,,,,,,,,,0,0,0,,-432,15516,4348,-69,118,-275
9.628,9.47,1.39,-1.72,2.80,-17.12,19.35,5.19,-2.45,3.55,-2.22,798.00,1911.00,179.00,526.00,866.00,1522.00,1363.00,1552.00,,,,,,,,,,,,0,0,0,,-376,15640,4476,4,138,-165
9.711,9.53,1.55,3.56,-2.16,11.90,-2.90,4.67,-3.59,0.29,-0.01,948.00,1771.00,352.00,303.00,930.00,1602.00,1283.00,1664.00,,,,,,,,,,,,0,0,0,,-420,15256,4644,-223,54,-217
9.752,9.58,1.42,1.49,-0.54,14.66,-9.13,-1.16,1.04,0.44,0.71,902.00,1841.00,469.00,321.00,805.00,1782.00,1231.00,1623.00,,,,,,,,,,,,0,0,0,,-544,15432,4336,12,149,-142
9.812,9.64,1.24,0.32,0.84,-11.26,5.92,-2.16,5.73,1.52,0.33,855.00,1858.00,333.00,598.00,636.00,1635.00,1232.00,1571.00,,,,,,,,,,,,0,0,0,,-416,15568,4468,-98,144,-212
9.873,9.69,1.79,0.22,2.15,-16.80,28.07,12.36,-8.89,4.09,-2.18,798.00,1801.00,111.00,411.00,1077.00,1362.00,1347.00,1518.00,,,,,,,,,,,,0,0,0,,-340,15484,4452,-134,106,-170
9.913,9.75,1.58,5.19,-3.19,43.83,-23.79,-2.38,0.78,-0.81,0.85,973.00,1707.00,610.00,150.00,835.00,1884.00,1250.00,1699.00,,,,,,,,,,,,0,0,0,,-532,15664,4328,-20,120,-146
9.974,9.80,1.23,-1.06,1.46,-15.51,6.32,-5.49,10.32,-0.07,2.36,848.00,1930.00,352.00,700.00,527.00,1649.00,1136.00,1584.00,,,,,,,,,,,,0,0,0,,-444,15600,4452,-192,62,-223
10.035,9.86,1.86,-1.92,5.34,-50.59,75.20,13.78,-9.63,6.68,-3.96,698.00,1799.00,16.00,442.00,1093.00,1314.00,1415.00,1437.00,,,,,,,,,,,,0,0,0,,-592,15484,4428,-63,58,-145
10.098,9.91,1.76,7.74,-5.50,48.78,-25.18,-0.20,-0.93,-1.53,0.88,1053.00,1642.00,601.00,128.00,880.00,1809.00,1264.00,1746.00,,,,,,,,,,,,0,0,0,,-532,15384,4500,-12,126,-111
10.158,9.97,1.51,-0.77,0.69,-6.18,0.28,-3.14,5.34,-0.36,2.04,879.00,1947.00,412.00,569.00,661.00,1717.00,1162.00,1616.00,,,,,,,,,,,,0,0,0,,-404,15524,4372,-119,173,-244
10.178,10.02,1.68,-0.96,2.87,-14.32,16.73,4.86,-1.62,4.33,-2.35,784.00,1851.00,196.00,505.00,833.00,1508.00,1353.00,1510.00,,,,,,,,,,,,0,0,0,,-492,15460,4460,-122,47,-163
10.239,10.08,1.87,3.30,-1.40,8.26,0.44,5.57,-4.17,0.51,-0.12,914.00,1753.00,314.00,320.00,944.00,1570.00,1286.00,1655.00,,,,,,,,,,,,0,0,0,,-520,15484,4424,-138,-8,-131
10.3,10.13,1.72,1.54,-0.46,19.71,-11.22,-1.15,0.49,0.37,0.34,897.00,1833.00,479.00,278.00,829.00,1808.00,1257.00,1643.00,,,,,,,,,,,,0,0,0,,-492,15552,4524,-115,15,-190
10.36,10.19,1.48,-0.32,0.73,-12.51,6.17,-3.12,6.40,0.95,0.25,870.00,1911.00,336.00,624.00,624.00,1668.00,1250.00,1610.00,,,,,,,,,,,,0,0,0,,-540,15560,4436,-1,182,-88
10.442,10.24,2.00,0.03,1.48,-20.21,31.33,11.95,-9.09,4.09,-2.60,830.00,1847.00,99.00,431.00,1097.00,1392.00,1378.00,1535.00,,,,,,,,,,,,0,0,0,,-432,15428,4536,-187,20,-238
10.463,10.30,1.78,5.29,-3.45,49.86,-26.18,-2.44,0.40,-1.15,0.93,985.00,1712.00,622.00,126.00,853.00,1907.00,1252.00,1718.00,,,,,,,,,,,,0,0,0,,-344,15556,4420,-80,65,-131
10.524,10.35,1.40,-1.10,1.41,-14.98,5.37,-5.91,10.50,0.03,2.17,851.00,1936.00,367.00,703.00,526.00,1669.00,1146.00,1586.00,,,,,,,,,,,,0,0,0,,-468,15616,4524,-127,95,-177
10.605,10.41,1.99,-1.64,5.01,-47.34,69.09,13.21,-9.19,7.09,-4.23,707.00,1795.00,21.00,458.00,1078.00,1328.00,1425.00,1424.00,,,,,,,,,,,,0,0,0,,-512,15496,4412,-66,129,-174
10.627,10.46,1.93,7.68,-4.91,43.09,-22.45,0.75,-1.37,-0.80,0.61,1021.00,1620.00,575.00,149.00,886.00,1763.00,1266.00,1709.00,,,,,,,,,,,,0,0,0,,-400,15504,4372,-18,129,-130
10.688,10.52,1.71,-0.03,0.40,-2.88,-1.45,-2.30,4.56,0.46,1.56,881.00,1906.00,426.00,523.00,679.00,1696.00,1175.00,1585.00,,,,,,,,,,,,0,0,0,,-324,15520,4436,-94,119,-277
10.729,10.57,1.85,-0.60,3.16,-14.03,16.83,4.38,-0.71,4.60,-2.12,767.00,1811.00,194.00,498.00,800.00,1500.00,1330.00,1485.00,,,,,,,,,,,,0,0,0,,-608,15472,4432,-112,53,-192
10.813,10.63,2.13,3.64,-1.14,4.40,3.98,7.58,-5.06,1.91,-0.72,896.00,1718.00,278.00,339.00,955.00,1485.00,1295.00,1591.00,,,,,,,,,,,,0,0,0,,-440,15512,4448,-80,22,-181
10.853,10.68,1.96,2.35,-0.69,23.62,-13.17,-1.41,0.87,0.61,0.29,895.00,1786.00,496.00,251.00,816.00,1808.00,1255.00,1630.00,,,,,,,,,,,,0,0,0,,-480,15596,4396,-94,106,-177
10.894,10.74,1.69,0.05,0.95,-13.39,6.47,-3.36,7.45,1.06,0.70,854.00,1872.00,336.00,641.00,592.00,1637.00,1218.00,1584.00,,,,,,,,,,,,0,0,0,,-492,15492,4508,-58,131,-175
10.957,10.79,2.26,-0.48,2.64,-23.74,36.45,12.99,-9.50,4.61,-2.83,787.00,1827.00,80.00,432.00,1101.00,1351.00,1382.00,1513.00,,,,,,,,,,,,0,0,0,,-432,15488,4452,-173,141,-84
11.018,10.85,2.01,5.38,-3.79,51.23,-26.70,-2.75,0.61,-1.28,0.75,1002.00,1722.00,624.00,121.00,848.00,1920.00,1267.00,1735.00,,,,,,,,,,,,0,0,0,,-452,15544,4356,-81,150,-84
11.06,10.90,1.46,-1.74,1.15,-15.05,4.90,-8.84,13.72,-0.68,2.57,873.00,1999.00,377.00,714.00,466.00,1719.00,1136.00,1614.00,,,,,,,,,,,,0,0,0,,-392,15532,4528,-78,163,-133
11.121,10.96,1.96,-2.87,5.24,-40.46,57.34,11.36,-8.27,6.29,-4.26,714.00,1873.00,35.00,478.00,1061.00,1394.00,1448.00,1471.00,,,,,,,,,,,,0,0,0,,-620,15576,4296,-174,69,-322
11.182,11.01,1.92,6.53,-4.45,32.52,-17.46,1.22,-2.07,-1.08,0.63,1017.00,1675.00,532.00,198.00,912.00,1763.00,1271.00,1727.00,,,,,,,,,,,,0,0,0,,-420,15512,4628,-157,108,-69
11.242,11.07,1.70,1.09,-0.27,0.24,-2.45,-2.56,4.17,0.28,1.31,895.00,1856.00,425.00,475.00,697.00,1732.00,1195.00,1607.00,,,,,,,,,,,,0,0,0,,-340,15448,4520,-97,140,-167
11.303,11.12,1.76,-0.72,3.48,-14.48,14.82,2.99,0.49,3.93,-1.66,755.00,1803.00,218.00,535.00,769.00,1535.00,1313.00,1506.00,,,,,,,,,,,,0,0,0,,-396,15528,4528,-15,129,-186
11.385,11.18,2.10,2.35,0.16,-3.61,10.10,8.52,-5.76,2.49,-0.96,855.00,1746.00,231.00,395.00,975.00,1458.00,1298.00,1565.00,,,,,,,,,,,,0,0,0,,-380,15520,4440,-7,86,-166
11.405,11.23,1.90,3.04,-0.82,27.54,-15.04,-1.84,0.99,0.35,0.63,890.00,1744.00,511.00,226.00,817.00,1833.00,1238.00,1632.00,,,,,,,,,,,,0,0,0,,-436,15436,4408,-43,122,-229
11.447,11.29,1.64,-1.41,1.57,-15.51,6.96,-3.42,7.57,1.01,0.99,848.00,1951.00,340.00,688.00,589.00,1636.00,1200.00,1575.00,,,,,,,,,,,,0,0,0,,-588,15532,4364,-223,38,-222
11.552,11.34,2.23,-0.09,2.79,-28.58,42.49,13.53,-9.63,5.31,-3.07,775.00,1792.00,63.00,445.00,1098.00,1327.00,1382.00,1481.00,,,,,,,,,,,,0,0,0,,-456,15596,4372,-162,46,-162
11.574,11.40,2.00,6.10,-3.89,55.06,-28.11,-2.40,0.41,-1.17,0.80,994.00,1678.00,628.00,108.00,852.00,1904.00,1261.00,1725.00,,,,,,,,,,,,0,0,0,,-472,15404,4412,-55,78,-193
11.614,11.45,1.57,-1.71,1.28,-15.06,4.71,-6.51,10.45,-0.56,2.64,866.00,1989.00,381.00,718.00,533.00,1711.00,1129.00,1603.00,,,,,,,,,,,,0,0,0,,-400,15540,4420,-91,125,-148
11.675,11.51,1.99,-3.13,6.15,-31.75,43.26,9.85,-6.83,5.88,-3.81,683.00,1847.00,64.00,494.00,1009.00,1424.00,1424.00,1477.00,,,,,,,,,,,,0,0,0,,-444,15396,4304,-93,160,-107
11.757,11.56,1.99,4.83,-3.61,21.69,-11.92,2.03,-2.66,-0.66,0.03,1002.00,1751.00,480.00,262.00,928.00,1735.00,1303.00,1726.00,,,,,,,,,,,,0,0,0,,-504,15388,4608,-25,125,-140
11.778,11.62,1.73,-0.29,0.20,2.09,-3.51,-3.11,3.99,-0.32,1.48,895.00,1936.00,435.00,454.00,711.00,1779.00,1197.00,1638.00,,,,,,,,,,,,0,0,0,,-392,15656,4532,-55,99,-143
11.942,11.67,1.65,-1.87,3.18,-14.76,12.61,0.12,1.94,2.20,-1.21,784.00,1903.00,247.00,574.00,749.00,1654.00,1323.00,1594.00,,,,,,,,,,,,0,0,0,,-388,15664,4376,-92,178,-180
11.962,11.73,1.99,0.26,1.01,-9.94,15.83,8.31,-6.30,1.95,-1.02,848.00,1854.00,190.00,435.00,1008.00,1492.00,1315.00,1601.00,,,,,,,,,,,,0,0,0,,-440,15412,4588,-245,67,-280
11.983,11.78,1.76,2.66,-1.12,30.86,-17.55,-2.55,0.57,-0.44,0.38,911.00,1785.00,551.00,212.00,847.00,1907.00,1273.00,1695.00,,,,,,,,,,,,0,0,0,,-356,15460,4504,-33,61,-134
12.024,11.84,1.43,-1.18,1.50,-16.58,6.95,-4.82,8.55,0.35,1.21,848.00,1937.00,347.00,718.00,573.00,1684.00,1200.00,1607.00,,,,,,,,,,,,0,0,0,,-356,15544,4440,-54,130,-156
12.065,11.89,2.00,-1.11,3.99,-35.81,52.41,12.84,-9.50,5.29,-3.29,740.00,1807.00,42.00,454.00,1104.00,1359.00,1399.00,1491.00,,,,,,,,,,,,0,0,0,,-412,15464,4392,1,137,-166
12.127,11.95,1.77,6.35,-3.73,55.90,-28.30,-2.52,-0.04,-1.83,1.01,981.00,1654.00,625.00,105.00,875.00,1936.00,1262.00,1761.00,,,,,,,,,,,,0,0,0,,-412,15484,4436,41,106,-168
12.19,12.00,1.40,-2.06,1.64,-14.25,4.24,-5.77,8.93,-0.54,2.52,855.00,1998.00,385.00,704.00,571.00,1731.00,1136.00,1607.00,,,,,,,,,,,,0,0,0,,-392,15608,4184,-85,52,-253
12.231,12.06,1.71,-1.95,5.06,-23.94,31.15,7.66,-5.20,4.77,-3.19,709.00,1815.00,107.00,502.00,961.00,1486.00,1405.00,1518.00,,,,,,,,,,,,0,0,0,,-564,15464,4432,-101,51,-256
12.312,12.11,1.76,4.27,-2.63,17.69,-8.63,2.78,-2.95,-0.65,0.25,960.00,1744.00,432.00,281.00,930.00,1697.00,1287.00,1715.00,,,,,,,,,,,,0,0,0,,-532,15488,4468,-43,158,-238
12.333,12.17,1.53,0.11,0.38,5.07,-4.55,-2.95,3.15,-0.56,1.56,880.00,1897.00,436.00,415.00,742.00,1808.00,1197.00,1650.00,,,,,,,,,,,,0,0,0,,-504,15536,4316,-34,212,-162
12.395,12.22,1.37,-1.11,2.57,-12.61,8.99,-1.65,3.63,1.20,-0.41,799.00,1877.00,289.00,581.00,706.00,1695.00,1290.00,1623.00,,,,,,,,,,,,0,0,0,,-648,15488,4444,-15,189,-156
12.437,12.28,1.74,-0.14,1.43,-12.43,19.16,8.86,-6.99,1.95,-1.34,835.00,1862.00,166.00,439.00,1036.00,1487.00,1338.00,1615.00,,,,,,,,,,,,0,0,0,,-492,15504,4404,-103,165,-154
12.518,12.33,1.49,2.94,-2.01,32.92,-19.16,-3.36,0.35,-1.72,0.79,951.00,1808.00,579.00,204.00,870.00,1981.00,1275.00,1764.00,,,,,,,,,,,,0,0,0,,-440,15488,4528,-131,123,-128
12.558,12.39,1.11,-1.95,1.18,-16.21,5.94,-6.13,9.18,-0.41,1.39,875.00,2014.00,364.00,727.00,567.00,1744.00,1205.00,1648.00,,,,,,,,,,,,0,0,0,,-468,15496,4480,-131,139,-224
12.639,12.44,1.62,-2.50,4.16,-37.22,54.73,11.37,-9.16,4.07,-3.03,752.00,1900.00,38.00,451.00,1113.00,1427.00,1411.00,1554.00,,,,,,,,,,,,0,0,0,,-480,15528,4304,-28,170,-158
12.66,12.50,1.39,5.49,-4.21,48.23,-26.07,-3.10,-0.29,-2.92,0.99,1023.00,1734.00,637.00,134.00,896.00,1994.00,1289.00,1840.00,,,,,,,,,,,,0,0,0,,-472,15396,4592,-322,89,-194
12.722,12.55,1.02,-2.14,1.24,-12.24,2.40,-5.85,7.77,-1.27,2.54,875.00,2026.00,410.00,683.00,609.00,1791.00,1150.00,1653.00,,,,,,,,,,,,0,0,0,,-632,15416,4324,-63,105,-164
12.763,12.61,1.24,-2.16,4.39,-20.79,24.47,5.40,-3.91,3.44,-2.72,738.00,1863.00,145.00,530.00,934.00,1570.00,1403.00,1580.00,,,,,,,,,,,,0,0,0,,-504,15548,4572,-151,123,-128
12.825,12.66,1.34,3.82,-2.03,13.66,-5.62,3.19,-3.46,-0.83,0.29,937.00,1747.00,395.00,304.00,949.00,1693.00,1289.00,1726.00,,,,,,,,,,,,0,0,0,,-552,15488,4516,-106,146,-203
12.887,12.72,1.13,0.36,0.29,8.16,-6.70,-2.81,2.08,-0.78,1.33,880.00,1882.00,463.00,389.00,784.00,1850.00,1217.00,1675.00,,,,,,,,,,,,0,0,0,,-512,15604,4172,-24,77,-121
12.929,12.77,0.92,0.19,0.76,-11.27,5.37,-3.19,5.53,0.78,0.06,861.00,1872.00,343.00,607.00,655.00,1712.00,1267.00,1629.00,,,,,,,,,,,,0,0,0,,-580,15512,4344,-117,24,-215
13.011,12.83,1.35,-0.08,1.74,-14.32,22.30,9.69,-7.88,2.31,-1.57,820.00,1842.00,145.00,435.00,1071.00,1474.00,1346.00,1602.00,,,,,,,,,,,,0,0,0,,-536,15568,4516,-133,64,-147
13.053,12.88,1.10,4.16,-3.14,37.36,-22.06,-3.68,0.77,-1.69,0.81,989.00,1776.00,625.00,185.00,855.00,1983.00,1273.00,1761.00,,,,,,,,,,,,0,0,0,,-312,15468,4348,-70,87,-143
13.094,12.94,0.72,-2.14,1.41,-16.12,5.86,-6.47,9.50,-0.66,1.78,867.00,2017.00,365.00,726.00,561.00,1753.00,1185.00,1647.00,,,,,,,,,,,,0,0,0,,-540,15600,4364,-119,122,-211
13.176,12.99,1.26,-2.51,4.63,-38.63,54.73,11.42,-9.12,4.75,-3.43,733.00,1877.00,39.00,477.00,1110.00,1423.00,1424.00,1529.00,,,,,,,,,,,,0,0,0,,-588,15556,4388,-108,15,-168
13.238,13.05,1.07,5.98,-4.68,44.91,-25.13,-2.49,-0.70,-2.92,0.99,1040.00,1722.00,643.00,149.00,906.00,1968.00,1289.00,1840.00,,,,,,,,,,,,0,0,0,,-500,15524,4352,-98,63,-138
13.279,13.10,0.76,-2.00,0.75,-8.76,0.70,-5.09,6.11,-1.76,2.37,896.00,2041.00,422.00,623.00,657.00,1817.00,1171.00,1693.00,,,,,,,,,,,,0,0,0,,-596,15412,4408,-104,58,-139
13.383,13.16,0.91,-2.38,3.02,-17.98,18.35,3.61,-2.40,2.67,-2.19,798.00,1950.00,192.00,559.00,889.00,1618.00,1383.00,1606.00,,,,,,,,,,,,0,0,0,,-500,15548,4492,-51,71,-150
13.404,13.21,1.03,2.66,-1.95,8.47,-1.69,3.34,-3.90,-1.01,0.03,953.00,1825.00,351.00,336.00,969.00,1703.00,1311.00,1750.00,,,,,,,,,,,,0,0,0,,-412,15632,4328,-36,211,-154
13.445,13.27,0.85,0.70,-0.56,14.13,-9.49,-2.46,0.52,-0.89,0.46,916.00,1900.00,483.00,331.00,848.00,1903.00,1278.00,1722.00,,,,,,,,,,,,0,0,0,,-568,15388,4328,-267,134,-249
13.548,13.32,0.62,-0.43,0.83,-12.67,5.47,-3.75,5.69,0.21,0.31,867.00,1914.00,350.00,640.00,656.00,1743.00,1263.00,1655.00,,,,,,,,,,,,0,0,0,,-556,15472,4392,-166,76,-139
13.569,13.38,1.11,-0.46,2.17,-17.56,25.98,10.39,-8.85,2.71,-2.33,807.00,1849.00,126.00,448.00,1114.00,1471.00,1392.00,1609.00,,,,,,,,,,,,0,0,0,,-448,15556,4480,-124,72,-172
13.61,13.43,0.89,4.81,-3.23,43.15,-24.01,-3.34,0.28,-1.88,0.81,982.00,1735.00,625.00,155.00,873.00,1983.00,1277.00,1774.00,,,,,,,,,,,,0,0,0,,-580,15516,4636,-18,100,-178
13.672,13.49,0.49,-1.36,1.19,-15.72,5.42,-7.01,10.24,-0.82,2.09,865.00,1967.00,371.00,723.00,544.00,1755.00,1169.00,1644.00,,,,,,,,,,,,0,0,0,,-496,15472,4556,55,114,-146
13.755,13.54,1.07,-2.33,5.11,-40.65,57.94,11.92,-9.61,5.94,-4.24,712.00,1840.00,34.00,474.00,1129.00,1413.00,1456.00,1491.00,,,,,,,,,,,,0,0,0,,-404,15592,4316,-49,107,-211
13.775,13.60,0.97,7.08,-5.16,40.39,-22.27,-0.85,-1.29,-1.92,0.59,1046.00,1670.00,598.00,165.00,908.00,1874.00,1293.00,1787.00,,,,,,,,,,,,0,0,0,,-544,15408,4340,-161,100,-172
13.817,13.65,0.73,-0.84,0.41,-4.80,-0.89,-3.90,4.73,-0.97,1.61,894.00,1968.00,428.00,556.00,693.00,1799.00,1203.00,1675.00,,,,,,,,,,,,0,0,0,,-540,15524,4304,-157,53,-157
13.88,13.71,0.83,-1.46,3.18,-15.61,16.98,2.87,-0.86,3.05,-1.93,778.00,1872.00,198.00,528.00,829.00,1599.00,1354.00,1571.00,,,,,,,,,,,,0,0,0,,-556,15524,4544,-121,82,-146
13.92,13.76,1.05,2.67,-1.24,3.87,2.94,5.16,-4.68,0.58,-0.54,917.00,1790.00,297.00,356.00,978.00,1618.00,1314.00,1669.00,,,,,,,,,,,,0,0,0,,-472,15496,4528,-173,129,-151
13.983,13.82,0.88,1.42,-0.66,21.32,-12.77,-2.41,0.52,-0.44,0.30,909.00,1852.00,506.00,272.00,847.00,1899.00,1279.00,1699.00,,,,,,,,,,,,0,0,0,,-492,15460,4620,-210,136,-173
14.044,13.87,0.63,-0.67,0.70,-14.05,6.42,-4.13,6.68,0.00,0.69,877.00,1939.00,341.00,659.00,626.00,1723.00,1242.00,1652.00,,,,,,,,,,,,0,0,0,,-576,15492,4452,-173,89,-168
14.106,13.93,1.16,-1.17,2.32,-23.68,35.09,11.34,-9.30,3.26,-2.52,811.00,1894.00,86.00,447.00,1122.00,1434.00,1393.00,1583.00,,,,,,,,,,,,0,0,0,,-668,15468,4684,-77,41,-106
14.146,13.98,0.92,4.38,-3.69,47.35,-25.60,-3.77,0.59,-2.27,0.93,1015.00,1787.00,631.00,137.00,865.00,2000.00,1278.00,1796.00,,,,,,,,,,,,0,0,0,,-492,15544,4496,-96,173,-104
14.208,14.04,0.51,-2.15,0.91,-15.35,4.47,-7.25,10.16,-1.07,1.98,891.00,2045.00,388.00,731.00,549.00,1776.00,1181.00,1665.00,,,,,,,,,,,,0,0,0,,-524,15328,4192,-191,118,-313
14.248,14.09,1.01,-3.28,5.59,-38.58,53.34,10.55,-8.21,5.50,-4.04,706.00,1886.00,42.00,494.00,1073.00,1437.00,1452.00,1509.00,,,,,,,,,,,,0,0,0,,-456,15420,4348,-69,77,-117
14.309,14.15,0.99,6.17,-4.44,30.56,-17.11,0.57,-2.07,-1.33,0.51,1023.00,1698.00,541.00,212.00,923.00,1809.00,1285.00,1750.00,,,,,,,,,,,,0,0,0,,-436,15552,4476,-82,83,-141
14.37,14.20,0.79,0.26,-0.09,-0.07,-3.16,-2.95,4.17,-0.48,1.72,900.00,1909.00,444.00,490.00,702.00,1759.00,1185.00,1638.00,,,,,,,,,,,,0,0,0,,-528,15464,4484,-15,136,-173
14.493,14.26,0.84,-1.00,3.29,-14.37,14.87,1.88,0.81,3.48,-1.67,767.00,1833.00,217.00,532.00,771.00,1590.00,1325.00,1534.00,,,,,,,,,,,,0,0,0,,-588,15508,4588,35,93,-210
14.513,14.31,1.20,1.41,0.34,-4.85,11.08,7.85,-5.68,1.83,-0.70,861.00,1803.00,224.00,404.00,983.00,1494.00,1295.00,1595.00,,,,,,,,,,,,0,0,0,,-456,15452,4424,-72,100,-191
14.554,14.37,1.02,2.77,-1.08,29.40,-16.27,-2.32,1.02,0.14,0.51,907.00,1775.00,528.00,217.00,823.00,1867.00,1251.00,1651.00,,,,,,,,,,,,0,0,0,,-528,15636,4388,-169,50,-176
14.595,14.42,0.75,-1.29,1.49,-16.46,7.50,-4.32,8.12,0.76,1.03,850.00,1946.00,336.00,704.00,581.00,1670.00,1203.00,1589.00,,,,,,,,,,,,0,0,0,,-508,15460,4464,-121,55,-211
14.636,14.48,1.37,-1.33,3.74,-43.86,65.45,13.07,-9.43,5.16,-3.02,753.00,1835.00,24.00,440.00,1095.00,1344.00,1382.00,1488.00,,,,,,,,,,,,0,0,0,,-600,15508,4596,-54,97,-129
14.698,14.53,1.17,5.69,-3.95,55.67,-28.31,-2.61,0.28,-1.42,1.06,1005.00,1708.00,628.00,106.00,861.00,1926.00,1249.00,1730.00,,,,,,,,,,,,0,0,0,,-532,15492,4380,-102,142,-181
14.759,14.59,0.75,-2.50,1.40,-15.07,4.57,-7.14,11.01,-1.19,3.15,873.00,2046.00,384.00,721.00,523.00,1728.00,1111.00,1621.00,,,,,,,,,,,,0,0,0,,-452,15556,4500,-69,139,-198
14.841,14.64,1.15,-3.09,5.39,-30.96,41.88,8.76,-6.06,5.97,-3.63,711.00,1882.00,68.00,497.00,987.00,1456.00,1408.00,1465.00,,,,,,,,,,,,0,0,0,,-492,15336,4472,-122,108,-186
14.862,14.70,1.22,4.17,-3.53,20.73,-10.93,2.42,-2.89,-0.05,-0.03,1010.00,1794.00,463.00,265.00,933.00,1719.00,1293.00,1688.00,,,,,,,,,,,,0,0,0,,-492,15408,4456,-141,70,-121
14.925,14.75,0.99,-0.53,0.12,3.01,-3.77,-3.36,3.89,-0.35,1.80,903.00,1959.00,434.00,441.00,718.00,1801.00,1177.00,1626.00,,,,,,,,,,,,0,0,0,,-524,15624,4452,-106,125,-190
14.985,14.81,0.89,-2.22,2.81,-13.45,10.87,-0.98,3.04,1.55,-0.43,805.00,1949.00,265.00,571.00,720.00,1677.00,1283.00,1601.00,,,,,,,,,,,,0,0,0,,-480,15612,4376,-74,181,-217
15.025,14.86,1.29,0.13,0.52,-10.40,17.30,8.79,-6.48,2.46,-1.34,873.00,1888.00,177.00,426.00,1009.00,1471.00,1326.00,1583.00,,,,,,,,,,,,0,0,0,,-524,15356,4492,-138,19,-231
15.086,14.92,1.06,2.83,-1.54,32.54,-18.42,-3.30,1.28,-0.96,1.06,929.00,1793.00,560.00,203.00,826.00,1927.00,1239.00,1699.00,,,,,,,,,,,,0,0,0,,-404,15540,4364,-25,103,-148
15.148,14.97,0.73,-1.05,1.00,-16.12,6.63,-5.41,9.70,0.79,1.26,869.00,1953.00,350.00,711.00,544.00,1671.00,1187.00,1577.00,,,,,,,,,,,,0,0,0,,-536,15624,4484,-111,157,-165
15.229,15.03,1.39,-1.38,4.15,-41.36,61.76,13.86,-9.69,5.68,-2.95,737.00,1818.00,28.00,440.00,1095.00,1312.00,1364.00,1455.00,,,,,,,,,,,,0,0,0,,-576,15352,4428,-87,156,-153
15.25,15.08,1.23,6.50,-4.17,57.70,-28.76,-1.70,-0.63,-1.60,1.38,1002.00,1664.00,620.00,99.00,890.00,1904.00,1232.00,1728.00,,,,,,,,,,,,0,0,0,,-456,15504,4496,-41,139,-105
15.312,15.14,0.91,-2.04,1.57,-12.77,3.79,-5.31,9.17,-0.08,2.93,858.00,2000.00,384.00,672.00,559.00,1689.00,1102.00,1561.00,,,,,,,,,,,,0,0,0,,-496,15380,4444,-179,109,-191
15.353,15.19,1.25,-3.60,7.08,-24.18,32.48,7.68,-4.46,5.23,-2.74,655.00,1835.00,100.00,489.00,923.00,1456.00,1360.00,1473.00,,,,,,,,,,,,0,0,0,,-628,15580,4512,-185,109,-153
15.415,15.25,1.38,4.31,-2.62,18.07,-7.01,3.89,-2.90,0.62,0.28,959.00,1741.00,393.00,265.00,909.00,1622.00,1256.00,1630.00,,,,,,,,,,,,0,0,0,,-492,15444,4552,-89,156,-167
15.476,15.30,1.21,0.38,0.29,9.31,-6.02,-2.06,3.05,0.31,1.80,880.00,1881.00,437.00,365.00,734.00,1750.00,1163.00,1584.00,,,,,,,,,,,,0,0,0,,-464,15404,4252,-63,142,-163
15.516,15.36,1.07,-0.50,1.55,-11.24,7.29,-1.54,5.09,2.27,0.08,835.00,1883.00,309.00,576.00,651.00,1623.00,1232.00,1535.00,,,,,,,,,,,,0,0,0,,-476,15600,4468,-111,156,-130
15.578,15.41,1.54,-0.17,1.66,-12.53,21.32,10.41,-7.24,3.39,-1.21,825.00,1853.00,148.00,416.00,1021.00,1408.00,1294.00,1520.00,,,,,,,,,,,,0,0,0,,-528,15416,4456,-150,202,-150
15.64,15.47,1.32,3.66,-2.82,40.18,-22.41,-2.86,1.20,-0.64,1.01,981.00,1796.00,605.00,167.00,823.00,1898.00,1235.00,1680.00,,,,,,,,,,,,0,0,0,,-416,15560,4392,-173,160,-149
15.724,15.52,0.96,-1.84,1.08,-15.66,6.21,-5.82,10.19,0.25,2.01,878.00,2011.00,355.00,706.00,534.00,1677.00,1151.00,1579.00,,,,,,,,,,,,0,0,0,,-484,15516,4612,-123,109,-31
15.744,15.58,1.56,-2.56,4.18,-41.82,61.27,12.91,-9.17,7.09,-3.57,752.00,1904.00,29.00,454.00,1083.00,1343.00,1375.00,1399.00,,,,,,,,,,,,0,0,0,,-412,15488,4524,-14,165,-140
15.805,15.63,1.38,5.90,-5.15,53.57,-27.93,-1.98,-0.33,-2.08,1.38,1068.00,1749.00,639.00,114.00,880.00,1910.00,1243.00,1761.00,,,,,,,,,,,,0,0,0,,-528,15668,4416,-109,235,-140
15.846,15.69,1.08,-2.10,0.85,-9.76,2.12,-4.70,7.47,-0.75,3.20,893.00,2044.00,398.00,624.00,606.00,1725.00,1099.00,1591.00,,,,,,,,,,,,0,0,0,,-516,15372,4544,-101,101,-41
15.951,15.74,1.33,-1.70,3.12,-16.45,19.44,6.12,-2.95,4.59,-2.16,784.00,1893.00,176.00,511.00,875.00,1487.00,1333.00,1487.00,,,,,,,,,,,,0,0,0,,-428,15584,4376,13,125,-67
15.971,15.80,1.50,4.27,-2.63,14.13,-3.91,4.74,-3.39,0.62,0.53,960.00,1744.00,357.00,285.00,919.00,1589.00,1239.00,1619.00,,,,,,,,,,,,0,0,0,,-540,15444,4408,-30,219,-136
16.012,15.85,1.36,1.04,-0.21,14.29,-8.80,-1.31,1.84,0.48,1.55,893.00,1857.00,464.00,323.00,773.00,1755.00,1175.00,1584.00,,,,,,,,,,,,0,0,0,,-468,15528,4448,-47,186,-103
16.073,15.91,1.20,0.19,0.95,-10.33,5.49,-1.83,5.70,2.08,0.38,852.00,1862.00,335.00,583.00,633.00,1615.00,1216.00,1534.00,,,,,,,,,,,,0,0,0,,-484,15564,4312,-3,129,-146
16.136,15.96,1.75,0.09,1.82,-16.80,28.07,12.23,-8.55,4.31,-1.77,814.00,1826.00,111.00,411.00,1060.00,1357.00,1312.00,1488.00,,,,,,,,,,,,0,0,0,,-468,15560,4384,-146,108,-171
16.197,16.02,1.55,4.51,-3.26,46.80,-25.06,-2.27,0.80,-0.45,1.16,989.00,1757.00,619.00,138.00,832.00,1874.00,1221.00,1661.00,,,,,,,,,,,,0,0,0,,-616,15504,4372,-60,139,-93
16.259,16.07,1.17,-1.57,1.35,-15.20,5.65,-5.95,11.04,0.66,2.46,861.00,1975.00,363.00,704.00,511.00,1647.00,1115.00,1535.00,,,,,,,,,,,,0,0,0,,-444,15380,4316,-9,188,-168
16.321,16.13,1.80,-2.43,4.94,-51.54,75.52,13.70,-9.57,6.69,-3.50,720.00,1856.00,16.00,455.00,1091.00,1316.00,1380.00,1419.00,,,,,,,,,,,,0,0,0,,-528,15480,4180,-65,108,-147
16.362,16.18,1.66,7.04,-5.72,51.90,-26.75,-0.95,-0.47,-1.53,1.34,1079.00,1698.00,618.00,118.00,870.00,1840.00,1233.00,1725.00,,,,,,,,,,,,0,0,0,,-420,15436,4468,-140,59,-157
16.404,16.24,1.38,-1.41,0.43,-6.35,0.20,-4.00,6.37,-0.43,2.55,902.00,2011.00,415.00,574.00,635.00,1728.00,1132.00,1599.00,,,,,,,,,,,,0,0,0,,-552,15556,4404,-216,78,-217
16.466,16.29,1.56,-1.95,2.90,-16.03,17.88,4.89,-1.63,4.76,-2.10,797.00,1923.00,190.00,524.00,833.00,1507.00,1325.00,1475.00,,,,,,,,,,,,0,0,0,,-508,15404,4328,-209,17,-88
16.507,16.35,1.75,2.66,-1.60,9.08,-0.19,5.45,-4.11,0.42,0.37,935.00,1808.00,320.00,315.00,943.00,1575.00,1254.00,1639.00,,,,,,,,,,,,0,0,0,,-484,15528,4536,-113,57,-104
16.57,16.40,1.58,0.67,-0.65,22.25,-14.95,-1.57,0.73,0.41,0.66,921.00,1907.00,560.00,278.00,825.00,1827.00,1235.00,1627.00,,,,,,,,,,,,0,0,0,,-520,15604,4356,-48,190,-133
16.693,16.46,1.36,-0.59,0.55,-12.40,6.19,-2.81,6.33,1.23,0.87,883.00,1941.00,335.00,621.00,623.00,1651.00,1203.00,1566.00,,,,,,,,,,,,0,0,0,,-480,15444,4408,-186,91,-41
16.713,16.51,1.92,-0.44,1.98,-19.76,31.36,12.47,-9.08,4.48,-2.34,815.00,1857.00,98.00,423.00,1086.00,1363.00,1349.00,1501.00,,,,,,,,,,,,0,0,0,,-504,15580,4368,-17,82,-99
16.733,16.57,1.69,4.66,-3.40,50.96,-26.61,-2.66,0.87,-0.61,1.08,994.00,1753.00,624.00,122.00,835.00,1900.00,1230.00,1675.00,,,,,,,,,,,,0,0,0,,-392,15544,4432,-109,84,-176
16.795,16.62,1.30,-1.27,1.05,-15.25,5.57,-6.16,11.33,0.58,2.57,870.00,1967.00,365.00,707.00,505.00,1648.00,1110.00,1535.00,,,,,,,,,,,,0,0,0,,-464,15592,4452,-132,63,-176
16.837,16.68,1.92,-2.35,5.14,-50.70,74.12,13.66,-9.49,7.22,-4.08,711.00,1840.00,17.00,457.00,1087.00,1315.00,1410.00,1411.00,,,,,,,,,,,,0,0,0,,-344,15556,4516,-95,104,-140
16.899,16.73,1.84,7.01,-5.27,44.76,-22.85,0.40,-1.13,-0.70,1.08,1054.00,1680.00,570.00,141.00,880.00,1776.00,1232.00,1681.00,,,,,,,,,,,,0,0,0,,-404,15456,4336,-111,92,-245
16.961,16.79,1.60,-0.46,0.01,-3.08,-1.08,-2.90,5.04,0.31,1.94,907.00,1959.00,419.00,522.00,669.00,1715.00,1154.00,1578.00,,,,,,,,,,,,0,0,0,,-548,15564,4468,-167,66,-203
17.002,16.84,1.73,-1.25,2.97,-14.55,17.00,4.22,-0.42,4.82,-1.82,784.00,1867.00,194.00,506.00,790.00,1498.00,1303.00,1460.00,,,,,,,,,,,,0,0,0,,-512,15532,4344,-47,54,-234
17.065,16.90,2.03,2.94,-1.55,4.53,4.00,7.54,-4.95,1.70,0.02,928.00,1786.00,277.00,337.00,950.00,1483.00,1249.00,1573.00,,,,,,,,,,,,0,0,0,,-456,15604,4432,-79,59,-228
17.127,16.95,1.84,1.65,-0.80,24.28,-13.40,-1.71,1.11,0.50,0.78,912.00,1842.00,496.00,246.00,810.00,1818.00,1225.00,1616.00,,,,,,,,,,,,0,0,0,,-524,15488,4468,-191,62,-240
17.188,17.01,1.57,-0.66,0.64,-13.10,6.04,-3.54,7.58,1.31,0.99,880.00,1942.00,342.00,641.00,590.00,1643.00,1193.00,1556.00,,,,,,,,,,,,0,0,0,,-540,15504,4308,-176,117,-141
17.229,17.06,2.13,-1.06,2.14,-23.59,36.40,12.78,-9.20,4.47,-2.35,817.00,1895.00,80.00,430.00,1087.00,1351.00,1350.00,1502.00,,,,,,,,,,,,0,0,0,,-524,15476,4616,-225,82,-188
17.289,17.12,1.88,4.45,-3.83,53.34,-27.59,-2.91,0.67,-1.26,1.22,1021.00,1788.00,630.00,114.00,848.00,1929.00,1235.00,1712.00,,,,,,,,,,,,0,0,0,,-472,15568,4636,-161,131,-127
17.352,17.17,1.40,-2.36,0.88,-15.26,5.27,-7.60,12.18,-0.74,3.00,896.00,2064.00,371.00,713.00,495.00,1705.00,1111.00,1599.00,,,,,,,,,,,,0,0,0,,-460,15668,4436,-92,150,-137
17.434,17.23,1.91,-3.54,5.29,-37.39,52.51,11.42,-8.26,6.25,-3.82,721.00,1921.00,43.00,482.00,1059.00,1390.00,1415.00,1456.00,,,,,,,,,,,,0,0,0,,-412,15348,4428,-242,60,-205
17.453,17.28,1.86,5.07,-3.58,31.75,-17.06,0.97,-1.78,-1.33,1.02,996.00,1733.00,528.00,202.00,902.00,1767.00,1250.00,1726.00,,,,,,,,,,,,0,0,0,,-476,15544,4476,-130,109,-120
17.494,17.34,1.63,-0.03,-0.30,0.41,-2.94,-2.70,4.51,0.39,1.71,915.00,1942.00,435.00,478.00,686.00,1726.00,1167.00,1583.00,,,,,,,,,,,,0,0,0,,-460,15608,4608,-80,127,-144
17.556,17.39,1.69,-1.22,3.05,-14.52,15.44,2.82,0.74,3.68,-1.16,780.00,1861.00,211.00,527.00,761.00,1535.00,1284.00,1501.00,,,,,,,,,,,,0,0,0,,-372,15508,4516,17,140,-164
17.617,17.45,2.02,1.46,-0.10,-3.15,10.19,8.36,-5.47,2.70,-0.56,881.00,1821.00,228.00,387.00,963.00,1456.00,1265.00,1535.00,,,,,,,,,,,,0,0,0,,-468,15460,4476,92,108,-173
17.657,17.50,1.84,2.20,-0.93,28.00,-15.05,-1.64,0.84,0.92,0.53,909.00,1808.00,507.00,222.00,821.00,1826.00,1232.00,1600.00,,,,,,,,,,,,0,0,0,,-592,15452,4156,-131,93,-229
17.718,17.56,1.54,-1.26,1.28,-15.61,7.21,-4.14,8.51,1.60,1.07,859.00,1954.00,336.00,686.00,567.00,1641.00,1182.00,1535.00,,,,,,,,,,,,0,0,0,,-528,15412,4440,-161,2,-166
17.781,17.61,2.15,-1.00,2.88,-30.66,47.09,13.74,-9.60,5.56,-2.77,784.00,1853.00,51.00,427.00,1092.00,1315.00,1354.00,1455.00,,,,,,,,,,,,0,0,0,,-508,15508,4412,-97,58,-158
17.844,17.67,1.92,5.33,-3.98,60.20,-29.72,-2.43,0.57,-1.06,1.21,1013.00,1734.00,624.00,92.00,845.00,1898.00,1231.00,1699.00,,,,,,,,,,,,0,0,0,,-560,15476,4452,-51,126,-152
17.907,17.72,1.51,-2.56,1.49,-15.58,5.43,-6.24,10.61,-0.41,3.12,870.00,2046.00,370.00,719.00,526.00,1686.00,1097.00,1573.00,,,,,,,,,,,,0,0,0,,-328,15504,4600,-20,154,-155
17.948,17.78,1.95,-3.47,5.42,-33.93,47.48,10.16,-6.85,6.26,-3.52,715.00,1909.00,53.00,481.00,1004.00,1407.00,1392.00,1444.00,,,,,,,,,,,,0,0,0,,-500,15408,4524,-21,131,-177
18.009,17.83,1.95,3.90,-3.42,22.52,-11.85,2.07,-2.33,-0.60,0.55,1009.00,1808.00,471.00,253.00,911.00,1717.00,1265.00,1698.00,,,,,,,,,,,,0,0,0,,-528,15600,4388,-124,73,-171
18.072,17.89,1.69,-0.90,0.08,2.30,-3.32,-3.36,4.52,-0.10,1.89,911.00,1990.00,429.00,448.00,694.00,1771.00,1166.00,1606.00,,,,,,,,,,,,0,0,0,,-536,15544,4372,-86,145,-80
18.154,17.94,1.60,-2.38,2.91,-14.35,12.93,-0.01,2.33,2.51,-0.93,803.00,1956.00,241.00,560.00,735.00,1645.00,1295.00,1562.00,,,,,,,,,,,,0,0,0,,-444,15560,4372,-205,172,-176
18.175,18.00,1.95,-0.68,0.88,-9.08,15.35,8.63,-6.37,1.88,-0.55,869.00,1931.00,192.00,426.00,1006.00,1476.00,1284.00,1586.00,,,,,,,,,,,,0,0,0,,-568,15532,4356,-217,64,-321
18.236,18.05,1.70,2.23,-1.53,30.78,-16.91,-3.07,1.30,-0.40,0.81,939.00,1836.00,533.00,209.00,822.00,1909.00,1243.00,1673.00,,,,,,,,,,,,0,0,0,,-492,15520,4580,-250,70,-44
18.278,18.11,1.37,-1.95,1.54,-16.45,7.33,-4.87,8.95,0.58,1.43,858.00,1995.00,339.00,707.00,561.00,1669.00,1181.00,1583.00,,,,,,,,,,,,0,0,0,,-416,15616,4648,-47,163,-95
18.339,18.16,1.98,-1.43,3.43,-37.77,56.97,13.42,-9.61,5.60,-2.99,767.00,1857.00,34.00,434.00,1099.00,1332.00,1369.00,1461.00,,,,,,,,,,,,0,0,0,,-424,15496,4404,29,190,-193
18.402,18.22,1.76,5.94,-4.07,59.15,-29.37,-2.42,0.37,-1.36,1.30,1007.00,1697.00,624.00,95.00,854.00,1907.00,1232.00,1715.00,,,,,,,,,,,,0,0,0,,-488,15408,4436,20,80,-173
18.443,18.27,1.36,-2.00,1.13,-13.99,4.45,-6.26,10.13,-0.69,3.30,878.00,2021.00,379.00,693.00,540.00,1709.00,1092.00,1583.00,,,,,,,,,,,,0,0,0,,-512,15568,4312,-79,69,-223
18.525,18.33,1.74,-3.17,5.52,-27.47,37.02,8.95,-5.54,5.52,-2.98,707.00,1881.00,83.00,493.00,956.00,1425.00,1370.00,1465.00,,,,,,,,,,,,0,0,0,,-472,15508,4456,-189,56,-175
18.546,18.38,1.79,4.04,-2.97,19.58,-9.09,2.93,-2.44,0.31,0.26,982.00,1776.00,428.00,264.00,902.00,1664.00,1264.00,1651.00,,,,,,,,,,,,0,0,0,,-592,15460,4404,-43,54,-154
18.607,18.44,1.57,0.00,0.10,6.28,-4.88,-2.63,3.72,-0.13,2.03,895.00,1919.00,434.00,399.00,715.00,1758.00,1158.00,1602.00,,,,,,,,,,,,0,0,0,,-540,15552,4508,-40,99,-196
18.648,18.49,1.42,-1.50,2.34,-11.92,9.27,-1.53,4.53,1.56,0.12,815.00,1918.00,281.00,561.00,671.00,1647.00,1245.00,1577.00,,,,,,,,,,,,0,0,0,,-524,15544,4312,-10,80,-217
18.711,18.55,1.82,-0.17,1.03,-11.22,19.21,9.40,-6.67,2.47,-0.84,854.00,1885.00,162.00,418.00,1008.00,1443.00,1290.00,1561.00,,,,,,,,,,,,0,0,0,,-508,15480,4620,2,149,-243
18.773,18.60,1.57,2.73,-2.17,37.45,-20.56,-3.10,1.15,-1.13,1.16,963.00,1831.00,575.00,177.00,829.00,1919.00,1236.00,1706.00,,,,,,,,,,,,0,0,0,,-600,15452,4316,-80,162,-205
18.835,18.66,1.20,-1.85,0.81,-15.84,6.38,-5.93,10.26,-0.04,2.06,891.00,2026.00,353.00,708.00,533.00,1681.00,1154.00,1595.00,,,,,,,,,,,,0,0,0,,-564,15468,4540,-113,94,-152
18.919,18.71,1.76,-2.97,4.29,-43.37,63.81,12.55,-9.19,5.02,-2.86,753.00,1929.00,26.00,451.00,1091.00,1363.00,1374.00,1490.00,,,,,,,,,,,,0,0,0,,-544,15496,4380,-102,100,-159
18.938,18.77,1.52,4.97,-4.34,54.53,-28.02,-3.05,0.26,-2.69,1.52,1040.00,1776.00,631.00,110.00,869.00,1961.00,1247.00,1797.00,,,,,,,,,,,,0,0,0,,-448,15500,4368,-18,218,-59
18.979,18.82,1.15,-2.78,1.08,-11.76,2.70,-6.02,8.70,-1.11,3.22,893.00,2087.00,400.00,665.00,581.00,1759.00,1105.00,1613.00,,,,,,,,,,,,0,0,0,,-604,15420,4408,-248,170,-180
19.039,18.88,1.39,-2.71,4.25,-22.31,27.29,6.11,-3.73,4.39,-2.65,751.00,1911.00,128.00,522.00,913.00,1519.00,1374.00,1519.00,,,,,,,,,,,,0,0,0,,-500,15516,4456,-33,118,-100
19.101,18.93,1.50,3.57,-2.30,15.23,-5.53,3.47,-2.82,-0.08,0.54,955.00,1777.00,382.00,285.00,912.00,1646.00,1254.00,1664.00,,,,,,,,,,,,0,0,0,,-480,15668,4460,-77,129,-164
19.163,18.99,1.31,0.06,0.25,9.68,-6.97,-2.24,2.61,-0.21,1.85,887.00,1907.00,457.00,369.00,754.00,1783.00,1171.00,1615.00,,,,,,,,,,,,0,0,0,,-436,15544,4416,-55,179,-182
19.205,19.04,1.14,-0.13,0.95,-10.80,5.88,-2.16,5.41,1.31,0.53,857.00,1886.00,331.00,588.00,647.00,1649.00,1223.00,1575.00,,,,,,,,,,,,0,0,0,,-480,15524,4312,36,140,-128
19.267,19.10,1.62,0.01,1.56,-14.50,23.95,10.80,-7.84,3.18,-1.26,827.00,1845.00,133.00,419.00,1047.00,1409.00,1303.00,1535.00,,,,,,,,,,,,0,0,0,,-588,15504,4272,-137,80,-147
19.328,19.15,1.42,4.15,-3.18,42.37,-23.57,-2.31,0.86,-0.95,1.36,991.00,1778.00,619.00,158.00,830.00,1874.00,1219.00,1685.00,,,,,,,,,,,,0,0,0,,-512,15564,4500,-133,114,-154
19.37,19.21,1.03,-1.74,1.30,-15.80,6.26,-6.42,11.20,0.07,2.30,866.00,1991.00,355.00,709.00,511.00,1671.00,1137.00,1578.00,,,,,,,,,,,,0,0,0,,-468,15464,4420,-25,147,-174
19.432,19.26,1.62,-2.55,4.65,-42.32,62.08,12.89,-9.21,5.75,-3.08,733.00,1879.00,28.00,453.00,1086.00,1346.00,1372.00,1456.00,,,,,,,,,,,,0,0,0,,-488,15512,4320,-16,111,-184
19.492,19.32,1.46,6.34,-5.36,69.96,-33.38,-1.68,-0.37,-2.12,1.32,1072.00,1729.00,637.00,69.00,877.00,1889.00,1248.00,1767.00,,,,,,,,,,,,0,0,0,,-552,15580,4440,-71,151,-116
19.574,19.37,1.15,-2.02,0.87,-8.95,1.71,-4.73,7.24,-0.86,2.92,891.00,2037.00,401.00,611.00,614.00,1738.00,1118.00,1610.00,,,,,,,,,,,,0,0,0,,-496,15368,4528,-50,167,-136
19.636,19.43,1.35,-2.06,2.89,-17.12,19.56,5.09,-2.39,3.86,-1.90,799.00,1932.00,177.00,523.00,865.00,1526.00,1332.00,1520.00,,,,,,,,,,,,0,0,0,,-440,15500,4316,-102,194,-164
19.657,19.48,1.49,2.88,-2.04,11.51,-2.45,4.28,-3.48,-0.08,0.54,954.00,1814.00,346.00,304.00,931.00,1622.00,1254.00,1664.00,,,,,,,,,,,,0,0,0,,-468,15616,4224,-67,95,-202
19.699,19.54,1.32,0.25,-0.59,16.15,-10.02,-2.00,1.10,-0.14,0.99,925.00,1936.00,479.00,310.00,815.00,1840.00,1225.00,1648.00,,,,,,,,,,,,0,0,0,,-508,15708,4384,-9,121,-154
19.759,19.59,1.10,-0.97,0.59,-12.65,6.39,-3.10,6.10,1.02,0.66,887.00,1968.00,333.00,624.00,634.00,1680.00,1221.00,1588.00,,,,,,,,,,,,0,0,0,,-496,15344,4456,-302,65,-245
19.821,19.65,1.61,-0.73,2.12,-17.74,27.25,11.40,-8.78,3.61,-1.90,813.00,1871.00,118.00,436.00,1090.00,1411.00,1338.00,1535.00,,,,,,,,,,,,0,0,0,,-500,15516,4368,-59,21,-206
19.884,19.70,1.38,4.40,-3.22,45.31,-24.71,-3.03,0.77,-1.14,1.19,989.00,1763.00,624.00,145.00,845.00,1933.00,1234.00,1705.00,,,,,,,,,,,,0,0,0,,-576,15532,4448,-97,82,-160
19.924,19.76,1.01,-1.76,1.67,-15.89,6.19,-6.05,10.47,-0.12,2.46,849.00,1973.00,357.00,713.00,528.00,1679.00,1131.00,1583.00,,,,,,,,,,,,0,0,0,,-568,15472,4308,-91,138,-201
20.007,19.81,1.62,-2.23,5.00,-46.01,66.96,13.12,-9.56,6.41,-3.69,715.00,1838.00,23.00,460.00,1102.00,1346.00,1401.00,1442.00,,,,,,,,,,,,0,0,0,,-508,15504,4392,9,155,-53
20.028,19.87,1.51,6.90,-5.19,45.45,-23.88,-0.45,-0.95,-1.58,1.28,1051.00,1683.00,595.00,141.00,885.00,1828.00,1238.00,1731.00,,,,,,,,,,,,0,0,0,,-524,15452,4292,-64,30,-224
20.089,19.92,1.26,-0.97,0.64,-5.25,-0.44,-3.55,5.57,-0.12,2.06,885.00,1966.00,421.00,559.00,658.00,1735.00,1156.00,1600.00,,,,,,,,,,,,0,0,0,,-500,15560,4408,-176,35,-182
20.152,19.98,1.43,-1.07,2.60,-15.00,17.44,4.65,-1.24,4.35,-1.70,797.00,1872.00,191.00,509.00,819.00,1505.00,1306.00,1483.00,,,,,,,,,,,,0,0,0,,-488,15584,4300,-129,38,-175
20.213,20.03,1.67,3.07,-1.48,7.34,1.10,6.33,-4.44,1.08,-0.10,922.00,1773.00,308.00,326.00,945.00,1535.00,1271.00,1617.00,,,,,,,,,,,,0,0,0,,-580,15452,4316,-117,62,-191
20.254,20.09,1.51,1.61,-0.81,21.04,-12.08,-1.52,0.91,0.37,0.67,913.00,1845.00,490.00,270.00,816.00,1814.00,1235.00,1629.00,,,,,,,,,,,,0,0,0,,-500,15532,4464,-167,101,-183
20.356,20.14,1.26,-0.60,0.85,-12.88,6.24,-3.56,7.18,0.86,1.04,869.00,1926.00,337.00,632.00,603.00,1662.00,1200.00,1582.00,,,,,,,,,,,,0,0,0,,-460,15560,4344,-185,150,-171
20.377,20.20,1.79,-1.08,2.42,-21.75,33.61,11.77,-8.87,3.78,-2.05,805.00,1882.00,90.00,431.00,1088.00,1394.00,1345.00,1531.00,,,,,,,,,,,,0,0,0,,-504,15364,4492,-177,99,-198
20.418,20.25,1.55,4.45,-3.59,54.08,-27.69,-2.97,0.62,-1.58,1.37,1008.00,1777.00,625.00,111.00,851.00,1936.00,1232.00,1727.00,,,,,,,,,,,,0,0,0,,-640,15608,4472,-114,100,-178
20.502,20.31,1.12,-2.43,1.29,-15.67,5.56,-6.92,10.91,-0.58,2.65,877.00,2046.00,368.00,719.00,524.00,1718.00,1129.00,1604.00,,,,,,,,,,,,0,0,0,,-356,15636,4344,2,172,-188
20.543,20.36,1.67,-3.22,5.20,-44.67,63.55,12.03,-8.69,6.39,-3.94,720.00,1901.00,27.00,478.00,1072.00,1373.00,1421.00,1453.00,,,,,,,,,,,,0,0,0,,-564,15520,4432,-161,66,-234
20.585,20.42,1.61,6.24,-4.81,37.59,-20.11,0.38,-1.44,-1.09,0.82,1042.00,1710.00,560.00,174.00,895.00,1792.00,1258.00,1719.00,,,,,,,,,,,,0,0,0,,-548,15504,4524,-60,81,-145
20.648,20.47,1.37,-0.57,0.25,-1.48,-2.35,-3.08,4.83,-0.05,2.00,897.00,1955.00,436.00,507.00,679.00,1737.00,1158.00,1598.00,,,,,,,,,,,,0,0,0,,-512,15580,4232,-71,133,-110
20.73,20.53,1.47,-1.00,3.26,-14.46,16.50,3.33,0.23,4.51,-1.68,768.00,1834.00,199.00,511.00,775.00,1525.00,1301.00,1473.00,,,,,,,,,,,,0,0,0,,-484,15604,4252,-81,137,-145
20.75,20.58,1.78,3.19,-1.32,1.23,5.79,7.77,-5.16,2.18,-0.41,912.00,1757.00,267.00,366.00,957.00,1478.00,1267.00,1561.00,,,,,,,,,,,,0,0,0,,-396,15532,4344,-19,130,-135
20.812,20.64,1.60,2.51,-0.99,25.49,-13.95,-1.91,1.41,0.71,0.81,907.00,1789.00,500.00,238.00,800.00,1818.00,1218.00,1601.00,,,,,,,,,,,,0,0,0,,-424,15532,4300,-43,54,-205
20.852,20.69,1.33,-0.58,1.32,-14.24,6.70,-3.76,8.00,1.27,1.15,847.00,1901.00,337.00,659.00,579.00,1639.00,1184.00,1552.00,,,,,,,,,,,,0,0,0,,-512,15508,4432,-142,38,-184
20.915,20.75,1.93,-0.38,2.35,-26.95,41.36,13.26,-9.41,5.15,-2.53,798.00,1834.00,65.00,430.00,1090.00,1333.00,1346.00,1469.00,,,,,,,,,,,,0,0,0,,-516,15556,4380,-143,101,-190
20.975,20.80,1.70,5.36,-3.77,57.50,-28.84,-2.54,0.61,-1.14,1.38,1001.00,1722.00,625.00,100.00,845.00,1904.00,1222.00,1697.00,,,,,,,,,,,,0,0,0,,-428,15492,4260,-97,108,-155
21.017,20.86,1.27,-1.79,1.14,-15.08,5.26,-6.96,11.38,-0.42,3.09,874.00,2003.00,370.00,708.00,511.00,1699.00,1099.00,1575.00,,,,,,,,,,,,0,0,0,,-504,15480,4560,-121,142,-132
21.097,20.91,1.75,-3.05,5.43,-35.27,49.76,10.94,-7.72,6.55,-3.62,709.00,1877.00,48.00,477.00,1038.00,1397.00,1392.00,1431.00,,,,,,,,,,,,0,0,0,,-572,15448,4316,-82,188,-165
21.138,20.97,1.73,5.22,-4.05,27.56,-14.90,1.31,-2.10,-0.95,0.88,1019.00,1745.00,507.00,225.00,912.00,1758.00,1251.00,1707.00,,,,,,,,,,,,0,0,0,,-400,15596,4440,-133,120,-158
21.179,21.02,1.49,-0.79,0.12,1.31,-3.16,-3.20,4.63,-0.25,2.07,907.00,1979.00,433.00,464.00,688.00,1755.00,1158.00,1608.00,,,,,,,,,,,,0,0,0,,-588,15540,4420,-88,92,-139
21.241,21.08,1.47,-2.21,3.17,-14.75,14.25,1.13,1.45,3.08,-1.09,789.00,1929.00,226.00,549.00,755.00,1610.00,1293.00,1534.00,,,,,,,,,,,,0,0,0,,-520,15580,4324,-42,166,-165
21.302,21.13,1.80,0.62,0.44,-6.93,13.15,8.08,-5.74,1.99,-0.46,869.00,1856.00,208.00,415.00,982.00,1483.00,1275.00,1575.00,,,,,,,,,,,,0,0,0,,-632,15320,4464,-204,80,-174
21.365,21.19,1.59,2.13,-0.96,27.83,-15.64,-2.34,0.85,-0.02,1.01,912.00,1815.00,525.00,227.00,831.00,1877.00,1221.00,1639.00,,,,,,,,,,,,0,0,0,,-388,15500,4508,-91,133,-120
21.509,21.24,1.28,-1.30,1.26,-16.50,7.35,-4.70,8.93,0.92,1.42,861.00,1959.00,339.00,708.00,560.00,1659.00,1174.00,1562.00,,,,,,,,,,,,0,0,0,,-536,15580,4336,-131,141,-126
21.529,21.30,1.90,-0.78,3.34,-32.08,47.57,13.69,-9.59,5.67,-2.96,762.00,1815.00,51.00,446.00,1092.00,1317.00,1365.00,1456.00,,,,,,,,,,,,0,0,0,,-508,15536,4364,-72,105,-129
21.55,21.35,1.69,6.04,-3.83,60.56,-29.84,-2.34,0.43,-0.84,1.26,992.00,1679.00,624.00,91.00,850.00,1898.00,1223.00,1682.00,,,,,,,,,,,,0,0,0,,-536,15444,4452,42,100,-109
21.57,21.41,1.30,-1.91,1.27,-15.72,5.57,-6.00,10.39,-0.15,3.22,870.00,2006.00,368.00,720.00,530.00,1680.00,1086.00,1553.00,,,,,,,,,,,,0,0,0,,-412,15520,4232,-130,110,-235
21.633,21.46,1.72,-2.46,5.44,-31.01,43.02,9.58,-6.07,6.30,-3.20,701.00,1833.00,64.00,483.00,973.00,1410.00,1367.00,1429.00,,,,,,,,,,,,0,0,0,,-540,15400,4568,-182,76,-167
21.694,21.52,1.77,4.51,-3.05,21.25,-10.70,2.76,-2.56,0.19,0.52,978.00,1747.00,453.00,258.00,911.00,1681.00,1249.00,1647.00,,,,,,,,,,,,0,0,0,,-520,15448,4340,-137,72,-165
21.756,21.57,1.54,-0.01,0.40,4.22,-4.01,-2.70,4.14,0.20,2.11,881.00,1905.00,430.00,423.00,700.00,1743.00,1146.00,1578.00,,,,,,,,,,,,0,0,0,,-476,15584,4388,-80,131,-161
21.878,21.63,1.45,-1.54,3.04,-13.87,12.01,-0.35,3.24,2.65,-0.45,785.00,1885.00,251.00,563.00,704.00,1627.00,1259.00,1534.00,,,,,,,,,,,,0,0,0,,-576,15572,4380,-138,188,-142
21.9,21.68,1.83,0.60,0.40,-10.15,17.64,9.04,-6.27,2.38,-0.53,871.00,1859.00,173.00,418.00,993.00,1448.00,1271.00,1554.00,,,,,,,,,,,,0,0,0,,-488,15464,4440,-124,146,-128
21.919,21.74,1.58,2.23,-1.28,32.99,-18.33,-3.19,1.16,-0.90,1.28,926.00,1823.00,553.00,199.00,830.00,1925.00,1223.00,1685.00,,,,,,,,,,,,0,0,0,,-492,15512,4496,-99,64,-148
21.959,21.79,1.24,-2.03,1.35,-16.07,6.41,-5.18,9.13,0.56,1.43,868.00,2011.00,354.00,714.00,559.00,1682.00,1181.00,1584.00,,,,,,,,,,,,0,0,0,,-448,15628,4488,-98,128,-146
22.019,21.85,1.82,-2.36,3.94,-42.76,62.91,12.82,-9.48,5.04,-2.81,759.00,1901.00,27.00,451.00,1103.00,1359.00,1370.00,1487.00,,,,,,,,,,,,0,0,0,,-436,15588,4264,-51,215,-211
22.082,21.90,1.59,5.32,-4.15,53.76,-27.55,-2.85,0.24,-1.88,1.38,1023.00,1743.00,624.00,112.00,867.00,1947.00,1238.00,1747.00,,,,,,,,,,,,0,0,0,,-548,15472,4332,-243,70,-229
22.123,21.96,1.21,-2.37,1.34,-13.72,3.78,-5.92,9.28,-0.76,3.36,874.00,2039.00,391.00,698.00,562.00,1725.00,1090.00,1585.00,,,,,,,,,,,,0,0,0,,-588,15472,4624,-63,125,-177
22.204,22.01,1.51,-2.89,5.51,-25.14,33.36,7.26,-4.67,4.99,-2.60,704.00,1861.00,97.00,496.00,941.00,1489.00,1355.00,1481.00,,,,,,,,,,,,0,0,0,,-548,15596,4524,-75,230,-142
22.224,22.07,1.61,4.21,-2.61,17.86,-7.94,3.41,-2.78,0.21,0.56,960.00,1747.00,415.00,274.00,911.00,1648.00,1246.00,1644.00,,,,,,,,,,,,0,0,0,,-468,15476,4436,-10,244,-170
22.286,22.12,1.40,0.66,0.23,7.42,-5.21,-2.58,3.45,0.17,1.91,878.00,1863.00,433.00,385.00,725.00,1767.00,1159.00,1588.00,,,,,,,,,,,,0,0,0,,-412,15448,4248,10,171,-103
22.347,22.18,1.25,-0.41,1.99,-11.78,8.08,-1.51,4.77,2.27,0.08,814.00,1854.00,299.00,576.00,662.00,1635.00,1232.00,1535.00,,,,,,,,,,,,0,0,0,,-576,15568,4336,-145,54,-217
22.409,22.23,1.69,0.48,1.51,-12.49,20.81,9.96,-6.87,3.24,-0.91,822.00,1813.00,152.00,421.00,1009.00,1419.00,1277.00,1517.00,,,,,,,,,,,,0,0,0,,-564,15588,4420,-90,74,-130
22.45,22.29,1.45,3.94,-2.42,37.98,-21.33,-3.02,1.26,-0.60,1.06,955.00,1757.00,594.00,177.00,823.00,1907.00,1231.00,1675.00,,,,,,,,,,,,0,0,0,,-500,15500,4456,-32,161,-162
22.51,22.34,1.08,-1.43,1.26,-16.03,6.55,-5.97,10.44,0.56,1.96,863.00,1969.00,351.00,710.00,528.00,1675.00,1148.00,1562.00,,,,,,,,,,,,0,0,0,,-600,15624,4324,-69,218,-151
22.572,22.40,1.69,-1.96,4.30,-51.46,75.49,13.33,-9.40,5.69,-2.97,739.00,1853.00,16.00,454.00,1088.00,1329.00,1365.00,1455.00,,,,,,,,,,,,0,0,0,,-480,15560,4296,-57,116,-161
22.651,22.45,1.49,6.06,-4.60,53.63,-27.68,-2.34,0.00,-1.96,1.50,1034.00,1713.00,630.00,113.00,870.00,1920.00,1232.00,1747.00,,,,,,,,,,,,0,0,0,,-528,15500,4256,-173,120,-127
22.691,22.51,1.13,-2.47,1.14,-11.28,2.49,-5.71,8.56,-0.86,3.16,885.00,2058.00,401.00,656.00,582.00,1744.00,1104.00,1600.00,,,,,,,,,,,,0,0,0,,-484,15568,4556,-202,196,-121
22.794,22.56,1.36,-2.49,3.81,-18.76,21.97,5.68,-3.38,4.24,-2.41,766.00,1917.00,160.00,523.00,903.00,1531.00,1360.00,1518.00,,,,,,,,,,,,0,0,0,,-532,15548,4296,-64,149,-215
22.814,22.62,1.46,2.82,-2.10,13.23,-4.12,3.39,-3.12,-0.02,0.57,958.00,1821.00,367.00,297.00,928.00,1664.00,1251.00,1659.00,,,,,,,,,,,,0,0,0,,-488,15636,4160,-7,149,-115
22.855,22.67,1.28,-0.06,-0.10,9.27,-6.88,-2.26,2.04,-0.23,1.61,906.00,1934.00,458.00,374.00,778.00,1812.00,1187.00,1627.00,,,,,,,,,,,,0,0,0,,-508,15444,4440,-179,99,-146
22.937,22.73,1.09,-0.38,1.10,-11.57,6.13,-2.46,5.46,0.59,0.64,854.00,1897.00,331.00,602.00,649.00,1667.00,1232.00,1616.00,,,,,,,,,,,,0,0,0,,-508,15456,4356,34,166,-107
22.959,22.78,1.56,0.25,1.61,-15.33,23.96,10.59,-7.70,3.56,-1.34,821.00,1825.00,135.00,433.00,1043.00,1415.00,1299.00,1515.00,,,,,,,,,,,,0,0,0,,-376,15580,4400,-87,160,-86
22.999,22.84,1.34,4.60,-3.14,41.15,-23.16,-2.87,0.98,-0.74,1.27,981.00,1745.00,619.00,164.00,833.00,1910.00,1220.00,1675.00,,,,,,,,,,,,0,0,0,,-392,15464,4264,-45,103,-101
23.06,22.89,0.96,-1.13,1.20,-15.89,6.14,-6.38,11.19,0.15,2.53,861.00,1949.00,358.00,714.00,511.00,1669.00,1121.00,1563.00,,,,,,,,,,,,0,0,0,,-460,15548,4184,15,121,-71
23.161,22.95,1.58,-1.86,4.72,-48.75,71.41,13.39,-9.45,6.45,-3.29,721.00,1825.00,19.00,455.00,1090.00,1328.00,1370.00,1424.00,,,,,,,,,,,,0,0,0,,-328,15520,4160,-156,120,-243
23.181,23.00,1.43,7.34,-5.40,52.72,-27.64,-1.29,-0.46,-1.64,1.30,1055.00,1664.00,639.00,117.00,875.00,1865.00,1238.00,1734.00,,,,,,,,,,,,0,0,0,,-456,15512,4184,-127,14,-209
23.221,23.06,1.15,-1.35,0.87,-7.95,1.10,-4.28,6.79,-0.05,2.45,880.00,1983.00,407.00,597.00,624.00,1728.00,1130.00,1579.00,,,,,,,,,,,,0,0,0,,-612,15536,4464,-12,22,-208
23.304,23.11,1.35,-1.65,3.27,-17.25,19.19,5.10,-2.11,4.46,-1.99,777.00,1882.00,181.00,531.00,852.00,1514.00,1324.00,1488.00,,,,,,,,,,,,0,0,0,,-556,15448,4440,-82,94,-184
23.324,23.17,1.52,3.61,-1.96,11.04,-1.75,4.74,-3.71,0.67,0.36,937.00,1758.00,336.00,304.00,935.00,1603.00,1249.00,1623.00,,,,,,,,,,,,0,0,0,,-572,15448,4204,-83,123,-113
23.406,23.22,1.37,0.99,-0.31,16.37,-9.86,-1.43,0.88,0.51,0.84,899.00,1866.00,473.00,306.00,816.00,1809.00,1221.00,1613.00,,,,,,,,,,,,0,0,0,,-540,15600,4296,-170,141,-73
23.447,23.28,1.15,-0.40,0.68,-12.40,6.14,-2.95,6.20,1.10,0.76,874.00,1920.00,336.00,622.00,629.00,1666.00,1213.00,1579.00,,,,,,,,,,,,0,0,0,,-528,15504,4384,-144,39,-140
23.506,23.33,1.65,-0.98,2.27,-18.28,28.40,11.16,-8.77,3.71,-2.04,810.00,1882.00,112.00,432.00,1094.00,1424.00,1346.00,1535.00,,,,,,,,,,,,0,0,0,,-472,15612,4392,-110,95,-141
23.568,23.39,1.40,3.77,-3.16,45.79,-24.90,-3.40,0.83,-1.44,1.26,997.00,1804.00,625.00,143.00,848.00,1958.00,1236.00,1722.00,,,,,,,,,,,,0,0,0,,-372,15584,4400,-12,136,-199
23.609,23.44,1.00,-1.96,1.26,-16.16,5.97,-6.58,10.58,-0.05,2.34,871.00,2010.00,363.00,725.00,530.00,1710.00,1137.00,1584.00,,,,,,,,,,,,0,0,0,,-568,15476,4356,-234,80,-162
23.67,23.50,1.59,-2.64,5.35,-52.18,75.73,12.78,-9.50,6.45,-3.78,707.00,1851.00,16.00,464.00,1105.00,1362.00,1407.00,1443.00,,,,,,,,,,,,0,0,0,,-396,15456,4472,-85,67,-118
23.73,23.55,1.48,7.40,-5.49,45.70,-24.24,-0.67,-0.90,-1.62,1.30,1059.00,1664.00,604.00,141.00,886.00,1841.00,1238.00,1733.00,,,,,,,,,,,,0,0,0,,-432,15604,4296,-90,131,-150
23.792,23.61,1.24,-0.65,0.65,-6.31,0.14,-3.36,5.42,0.10,2.05,879.00,1940.00,416.00,574.00,661.00,1729.00,1152.00,1587.00,,,,,,,,,,,,0,0,0,,-456,15432,4288,-90,118,-162
23.853,23.66,1.41,-0.28,2.95,-15.36,16.90,4.76,-1.52,4.68,-2.04,771.00,1798.00,198.00,524.00,830.00,1510.00,1322.00,1477.00,,,,,,,,,,,,0,0,0,,-504,15464,4308,31,112,-144
23.874,23.72,1.63,3.65,-1.43,7.89,0.98,5.85,-4.26,1.05,0.18,910.00,1731.00,307.00,320.00,944.00,1557.00,1253.00,1607.00,,,,,,,,,,,,0,0,0,,-316,15524,4204,-112,51,-232
23.936,23.77,1.49,2.22,-0.69,20.22,-11.42,-1.26,0.80,0.80,0.63,897.00,1795.00,480.00,274.00,817.00,1801.00,1228.00,1603.00,,,,,,,,,,,,0,0,0,,-512,15600,4356,-198,28,-159
24.036,23.83,1.24,-0.05,0.99,-12.81,6.38,-3.44,7.33,1.38,0.69,854.00,1878.00,334.00,628.00,597.00,1648.00,1211.00,1564.00,,,,,,,,,,,,0,0,0,,-608,15556,4360,-71,86,-245
24.077,23.88,1.79,-0.63,2.59,-21.63,33.77,12.19,-9.07,4.21,-2.32,791.00,1840.00,89.00,427.00,1091.00,1378.00,1354.00,1516.00,,,,,,,,,,,,0,0,0,,-448,15464,4272,-54,70,-251
24.098,23.94,1.55,4.83,-3.50,49.42,-26.12,-3.03,0.77,-1.20,1.25,996.00,1746.00,625.00,128.00,845.00,1933.00,1232.00,1707.00,,,,,,,,,,,,0,0,0,,-616,15544,4384,-85,61,-162
24.161,23.99,1.15,-1.79,1.33,-15.52,5.86,-6.47,10.72,-0.15,2.45,865.00,1993.00,361.00,709.00,525.00,1696.00,1132.00,1585.00,,,,,,,,,,,,0,0,0,,-516,15540,4372,-123,119,-142
24.221,24.05,1.71,-3.09,5.32,-51.82,74.50,12.44,-9.22,6.53,-3.95,714.00,1886.00,17.00,473.00,1095.00,1370.00,1418.00,1445.00,,,,,,,,,,,,0,0,0,,-480,15512,4272,-79,98,-193
24.284,24.10,1.60,6.15,-5.05,39.78,-21.37,-0.45,-1.18,-1.73,1.10,1058.00,1728.00,576.00,165.00,896.00,1839.00,1254.00,1750.00,,,,,,,,,,,,0,0,0,,-536,15568,4416,-108,65,-155
24.325,24.16,1.33,-1.33,0.33,-4.55,-0.93,-3.87,4.96,-0.49,1.90,906.00,2011.00,427.00,551.00,684.00,1786.00,1174.00,1631.00,,,,,,,,,,,,0,0,0,,-336,15688,4376,-73,177,-159
24.449,24.21,1.43,-1.70,3.09,-15.68,16.73,3.32,-0.63,4.01,-1.82,785.00,1894.00,201.00,533.00,812.00,1561.00,1323.00,1508.00,,,,,,,,,,,,0,0,0,,-620,15364,4372,-206,75,-203
24.469,24.27,1.69,3.03,-1.28,3.59,3.67,6.67,-4.85,1.54,-0.30,913.00,1767.00,287.00,353.00,960.00,1531.00,1274.00,1596.00,,,,,,,,,,,,0,0,0,,-524,15520,4420,-149,96,-113
24.489,24.32,1.53,2.15,-0.85,21.32,-12.36,-1.58,0.77,0.50,0.73,906.00,1808.00,495.00,269.00,823.00,1825.00,1228.00,1618.00,,,,,,,,,,,,0,0,0,,-520,15600,4484,-82,133,-166
24.55,24.38,1.27,0.15,1.07,-13.34,6.29,-3.62,7.54,1.89,0.65,847.00,1859.00,339.00,643.00,592.00,1650.00,1203.00,1535.00,,,,,,,,,,,,0,0,0,,-488,15488,4296,-45,111,-148
24.612,24.43,1.86,-0.09,2.79,-22.85,35.92,12.99,-9.32,5.07,-2.78,775.00,1792.00,81.00,423.00,1090.00,1344.00,1367.00,1484.00,,,,,,,,,,,,0,0,0,,-472,15388,4232,-2,160,-104
24.694,24.49,1.63,5.65,-3.51,57.47,-28.80,-2.64,0.64,-0.91,1.15,982.00,1691.00,624.00,100.00,845.00,1910.00,1232.00,1692.00,,,,,,,,,,,,0,0,0,,-444,15664,4316,-145,75,-179
24.715,24.54,1.21,-0.96,1.29,-15.16,5.58,-6.83,11.67,0.03,2.75,854.00,1931.00,364.00,704.00,502.00,1677.00,1110.00,1561.00,,,,,,,,,,,,0,0,0,,-660,15508,4452,-149,44,-175
24.777,24.60,1.76,-2.39,5.63,-47.91,69.28,12.20,-8.59,6.93,-3.97,693.00,1819.00,21.00,466.00,1063.00,1360.00,1409.00,1423.00,,,,,,,,,,,,0,0,0,,-544,15520,4308,-44,61,-210
24.839,24.65,1.70,6.46,-4.37,37.70,-19.85,0.64,-1.48,-0.94,0.82,1014.00,1676.00,551.00,172.00,893.00,1776.00,1255.00,1709.00,,,,,,,,,,,,0,0,0,,-500,15600,4312,-19,117,-196
24.88,24.71,1.44,0.00,0.08,-1.22,-2.23,-3.54,5.04,-0.05,1.89,896.00,1920.00,431.00,500.00,677.00,1759.00,1165.00,1603.00,,,,,,,,,,,,0,0,0,,-532,15448,4356,-125,112,-182
24.921,24.76,1.51,-1.35,3.24,-14.30,16.26,2.81,0.19,3.94,-1.62,774.00,1861.00,201.00,511.00,784.00,1558.00,1310.00,1504.00,,,,,,,,,,,,0,0,0,,-532,15472,4388,-169,133,-114
24.984,24.82,1.79,2.42,-1.06,1.29,5.50,7.04,-4.95,1.42,-0.21,912.00,1799.00,271.00,368.00,959.00,1513.00,1271.00,1600.00,,,,,,,,,,,,0,0,0,,-492,15516,4500,-197,128,-110
25.046,24.87,1.58,1.54,-0.50,24.58,-13.68,-2.25,1.00,0.03,0.83,899.00,1835.00,501.00,245.00,823.00,1863.00,1232.00,1644.00,,,,,,,,,,,,0,0,0,,-496,15604,4388,-92,108,-91
25.128,24.93,1.28,-1.09,1.08,-14.25,6.59,-4.46,7.83,-0.00,1.27,866.00,1952.00,339.00,661.00,592.00,1693.00,1204.00,1627.00,,,,,,,,,,,,0,0,0,,-420,15580,4372,-43,206,-181
25.169,24.98,1.83,-1.31,2.78,-16.52,25.20,12.23,-9.23,4.07,-2.35,793.00,1881.00,129.00,439.00,1100.00,1382.00,1360.00,1526.00,,,,,,,,,,,,0,0,0,,-572,15384,4224,-161,63,-272
25.211,25.04,1.59,5.42,-3.64,55.26,-28.06,-2.99,0.65,-1.49,1.34,993.00,1712.00,624.00,107.00,850.00,1936.00,1232.00,1722.00,,,,,,,,,,,,0,0,0,,-500,15544,4428,-92,99,-121
25.272,25.09,1.18,-1.25,1.22,-16.03,6.29,-6.63,10.84,-0.10,2.78,862.00,1957.00,356.00,715.00,523.00,1701.00,1111.00,1568.00,,,,,,,,,,,,0,0,0,,-460,15676,4388,-121,161,-181
25.335,25.15,1.70,-1.96,5.19,-44.60,63.52,11.67,-8.17,6.86,-3.95,704.00,1809.00,27.00,477.00,1049.00,1373.00,1409.00,1426.00,,,,,,,,,,,,0,0,0,,-496,15480,4348,-37,141,-190
25.377,25.20,1.67,6.97,-4.16,35.58,-18.42,1.04,-1.70,-0.88,0.89,993.00,1633.00,530.00,180.00,897.00,1758.00,1249.00,1702.00,,,,,,,,,,,,0,0,0,,-524,15440,4364,4,99,-109
25.438,25.26,1.43,0.60,0.05,0.57,-2.87,-3.13,4.79,-0.03,1.99,888.00,1877.00,432.00,474.00,681.00,1742.00,1158.00,1597.00,,,,,,,,,,,,0,0,0,,-484,15416,4312,-107,102,-208
25.521,25.31,1.48,-0.80,3.46,-14.14,16.02,2.52,0.72,4.02,-1.49,757.00,1810.00,203.00,511.00,766.00,1554.00,1299.00,1494.00,,,,,,,,,,,,0,0,0,,-668,15544,4324,-169,66,-195
25.542,25.37,1.80,2.60,-0.46,-1.64,8.73,7.89,-5.35,1.71,-0.27,880.00,1758.00,240.00,379.00,965.00,1479.00,1268.00,1584.00,,,,,,,,,,,,0,0,0,,-632,15472,4480,-25,60,-196
25.582,25.42,1.61,2.63,-0.90,26.83,-14.33,-2.15,1.01,0.60,0.65,901.00,1777.00,498.00,228.00,821.00,1855.00,1231.00,1615.00,,,,,,,,,,,,0,0,0,,-576,15468,4292,-112,166,-175
25.644,25.48,1.32,-0.74,1.17,-15.56,7.20,-4.16,8.23,0.72,1.36,856.00,1920.00,336.00,685.00,576.00,1655.00,1182.00,1577.00,,,,,,,,,,,,0,0,0,,-560,15480,4284,-197,165,-162
25.705,25.53,1.88,-0.98,3.26,-29.48,44.32,12.65,-9.25,4.65,-2.55,768.00,1833.00,58.00,439.00,1093.00,1360.00,1360.00,1499.00,,,,,,,,,,,,0,0,0,,-460,15440,4324,-192,160,-155
25.766,25.59,1.64,5.40,-3.80,56.88,-28.66,-3.00,0.63,-1.57,1.35,1002.00,1721.00,626.00,102.00,851.00,1938.00,1233.00,1727.00,,,,,,,,,,,,0,0,0,,-480,15548,4468,-152,158,-136
25.807,25.64,1.21,-2.05,1.40,-15.41,5.22,-7.03,10.94,-0.70,2.98,866.00,2010.00,373.00,718.00,524.00,1724.00,1111.00,1597.00,,,,,,,,,,,,0,0,0,,-504,15536,4380,-79,117,-92
25.889,25.70,1.66,-3.13,5.51,-38.64,53.80,10.36,-7.57,5.86,-3.57,707.00,1879.00,41.00,489.00,1040.00,1423.00,1406.00,1469.00,,,,,,,,,,,,0,0,0,,-516,15580,4484,-47,187,-156
25.91,25.75,1.62,5.32,-4.28,27.29,-14.67,0.70,-1.93,-1.55,0.79,1030.00,1749.00,503.00,226.00,914.00,1793.00,1271.00,1752.00,,,,,,,,,,,,0,0,0,,-484,15520,4244,-15,207,-223
25.972,25.81,1.36,-0.12,-0.25,0.96,-3.21,-3.49,4.48,-0.27,1.92,914.00,1946.00,437.00,471.00,697.00,1782.00,1168.00,1616.00,,,,,,,,,,,,0,0,0,,-548,15532,4520,-228,93,-161
26.033,25.86,1.37,-1.17,3.27,-14.67,14.89,1.48,1.16,3.55,-1.45,770.00,1846.00,218.00,538.00,762.00,1600.00,1307.00,1520.00,,,,,,,,,,,,0,0,0,,-460,15424,4420,-77,31,-122
26.096,25.92,1.69,1.43,0.55,-5.40,11.35,7.75,-5.65,1.87,-0.33,851.00,1792.00,223.00,410.00,983.00,1499.00,1269.00,1577.00,,,,,,,,,,,,0,0,0,,-432,15544,4556,-97,158,-156
26.136,25.97,1.49,2.94,-1.03,27.98,-15.69,-2.21,0.94,0.31,0.66,902.00,1761.00,525.00,226.00,825.00,1863.00,1237.00,1633.00,,,,,,,,,,,,0,0,0,,-496,15384,4300,-70,186,-175
26.219,26.03,1.21,-0.72,1.32,-15.99,7.51,-4.18,8.01,0.77,1.33,849.00,1911.00,333.00,691.00,583.00,1666.00,1183.00,1575.00,,,,,,,,,,,,0,0,0,,-480,15612,4176,-28,160,-151
26.261,26.08,1.80,-0.89,3.62,-32.40,48.79,13.16,-9.51,5.10,-2.75,752.00,1809.00,48.00,437.00,1098.00,1342.00,1364.00,1481.00,,,,,,,,,,,,0,0,0,,-488,15504,4260,-194,58,-225
26.322,26.14,1.57,6.01,-3.80,55.98,-28.42,-2.80,0.56,-1.30,1.28,991.00,1680.00,628.00,105.00,851.00,1926.00,1232.00,1712.00,,,,,,,,,,,,0,0,0,,-580,15456,4384,-168,26,-157
26.364,26.19,1.16,-1.57,1.35,-14.98,4.49,-6.74,10.78,-0.72,3.21,861.00,1975.00,385.00,720.00,526.00,1712.00,1098.00,1589.00,,,,,,,,,,,,0,0,0,,-524,15528,4308,-67,159,-162
26.428,26.25,1.62,-2.40,5.32,-34.78,49.60,10.30,-7.24,6.32,-3.59,705.00,1835.00,48.00,470.00,1023.00,1414.00,1396.00,1443.00,,,,,,,,,,,,0,0,0,,-536,15444,4288,-53,141,-216
26.509,26.30,1.61,5.45,-3.96,24.90,-13.08,1.56,-2.36,-0.78,0.73,1010.00,1725.00,482.00,238.00,921.00,1753.00,1257.00,1702.00,,,,,,,,,,,,0,0,0,,-588,15468,4324,-124,104,-85
26.529,26.36,1.36,-0.16,0.28,1.23,-3.05,-3.55,4.69,-0.34,2.03,889.00,1922.00,431.00,464.00,690.00,1776.00,1162.00,1615.00,,,,,,,,,,,,0,0,0,,-456,15536,4280,-81,158,-121
26.653,26.41,1.34,-1.41,3.07,-14.95,14.48,1.07,1.40,3.18,-1.26,782.00,1874.00,224.00,550.00,758.00,1616.00,1303.00,1535.00,,,,,,,,,,,,0,0,0,,-560,15528,4296,-144,127,-163
26.674,26.47,1.65,0.37,0.57,-7.40,12.87,7.49,-5.54,1.77,-0.52,867.00,1868.00,213.00,426.00,982.00,1510.00,1284.00,1591.00,,,,,,,,,,,,0,0,0,,-500,15644,4128,-67,58,-171
26.694,26.52,1.40,1.65,-0.90,26.26,-14.61,-3.27,1.01,-0.54,0.98,917.00,1847.00,511.00,235.00,838.00,1939.00,1235.00,1675.00,,,,,,,,,,,,0,0,0,,-492,15672,4236,-2,99,-151
26.755,26.58,1.09,-1.61,0.98,-16.76,7.17,-4.76,8.05,0.48,1.10,879.00,1998.00,344.00,719.00,588.00,1703.00,1204.00,1603.00,,,,,,,,,,,,0,0,0,,-512,15432,4544,-231,68,-195
26.796,26.63,1.70,-0.91,3.11,-30.93,45.79,13.26,-10.43,4.74,-2.58,773.00,1835.00,55.00,447.00,1152.00,1370.00,1360.00,1495.00,,,,,,,,,,,,0,0,0,,-532,15572,4468,40,75,-152
26.857,26.69,1.49,5.71,-3.74,54.34,-28.07,-2.54,-0.02,-1.33,1.11,993.00,1697.00,635.00,111.00,874.00,1936.00,1244.00,1722.00,,,,,,,,,,,,0,0,0,,-528,15540,4284,-91,64,-213
26.918,26.74,1.08,-1.81,1.49,-15.56,4.97,-6.72,10.63,-0.61,3.15,858.00,1986.00,379.00,727.00,530.00,1717.00,1099.00,1584.00,,,,,,,,,,,,0,0,0,,-556,15516,4424,-86,105,-141
26.979,26.80,1.53,-2.26,5.80,-35.47,49.83,9.98,-6.84,6.52,-3.78,685.00,1801.00,48.00,480.00,1007.00,1417.00,1405.00,1439.00,,,,,,,,,,,,0,0,0,,-500,15460,4200,-26,145,-146
27.062,26.85,1.55,5.06,-3.24,23.40,-13.58,1.97,-2.32,-0.32,0.48,978.00,1718.00,509.00,256.00,912.00,1723.00,1264.00,1683.00,,,,,,,,,,,,0,0,0,,-552,15460,4220,-92,38,-228
27.082,26.91,1.32,0.47,0.26,2.12,-3.22,-2.94,4.19,0.24,1.90,880.00,1876.00,428.00,450.00,701.00,1757.00,1158.00,1584.00,,,,,,,,,,,,0,0,0,,-540,15560,4296,-173,-53,-171
27.122,26.96,1.30,-1.07,3.03,-13.99,13.27,0.80,1.91,3.50,-1.27,779.00,1851.00,235.00,547.00,741.00,1611.00,1296.00,1516.00,,,,,,,,,,,,0,0,0,,-564,15612,4420,-116,13,-205
27.183,27.02,1.64,0.99,0.74,-8.72,15.52,8.08,-5.36,2.14,-0.40,849.00,1814.00,189.00,418.00,962.00,1468.00,1267.00,1563.00,,,,,,,,,,,,0,0,0,,-616,15432,4400,-41,159,-162
27.246,27.07,1.42,2.51,-0.99,31.21,-17.37,-2.62,0.97,0.56,0.18,907.00,1789.00,542.00,208.00,830.00,1892.00,1264.00,1638.00,,,,,,,,,,,,0,0,0,,-572,15528,4308,-106,121,-98
27.351,27.13,1.10,-1.54,1.38,-16.92,7.60,-5.10,8.97,0.48,1.57,859.00,1971.00,337.00,715.00,563.00,1684.00,1174.00,1583.00,,,,,,,,,,,,0,0,0,,-552,15544,4388,-204,165,-94
27.372,27.18,1.68,-1.48,3.42,-36.21,53.91,12.77,-9.46,4.92,-2.64,768.00,1861.00,39.00,443.00,1103.00,1361.00,1360.00,1487.00,,,,,,,,,,,,0,0,0,,-464,15532,4424,-170,134,-157
27.414,27.24,1.45,5.00,-3.57,54.43,-27.87,-3.04,0.34,-1.68,1.35,997.00,1738.00,627.00,110.00,865.00,1956.00,1236.00,1735.00,,,,,,,,,,,,0,0,0,,-412,15692,4436,-40,99,-164
27.476,27.29,1.02,-2.91,1.50,-15.74,4.84,-6.97,10.40,-1.21,3.27,875.00,2074.00,383.00,735.00,539.00,1745.00,1104.00,1617.00,,,,,,,,,,,,0,0,0,,-496,15596,4268,-72,138,-257
27.539,27.35,1.40,-3.41,5.27,-32.72,43.88,8.57,-6.13,5.84,-3.34,720.00,1912.00,63.00,505.00,994.00,1470.00,1389.00,1461.00,,,,,,,,,,,,0,0,0,,-516,15456,4324,-165,-21,-438
27.58,27.40,1.42,4.41,-3.24,20.15,-11.05,1.86,-2.30,-0.26,0.47,990.00,1763.00,471.00,272.00,913.00,1730.00,1263.00,1679.00,,,,,,,,,,,,0,0,0,,-704,15484,4532,-126,-32,-148
27.643,27.46,1.19,0.13,0.20,2.93,-3.83,-3.18,4.20,0.17,1.94,888.00,1904.00,436.00,443.00,704.00,1774.00,1157.00,1587.00,,,,,,,,,,,,0,0,0,,-608,15496,4500,-76,116,-61
27.725,27.51,1.08,-1.08,3.15,-14.13,12.40,-1.10,3.10,3.05,-0.85,774.00,1846.00,247.00,563.00,719.00,1682.00,1277.00,1526.00,,,,,,,,,,,,0,0,0,,-468,15520,4456,-77,242,-118
27.746,27.57,1.47,0.80,1.23,-9.63,17.04,8.82,-6.18,2.78,-0.57,830.00,1804.00,177.00,416.00,992.00,1457.00,1264.00,1531.00,,,,,,,,,,,,0,0,0,,-408,15488,4396,2,143,-81
27.788,27.62,1.25,2.99,-1.25,32.23,-17.78,-2.89,1.33,0.19,0.82,912.00,1768.00,544.00,202.00,818.00,1894.00,1229.00,1634.00,,,,,,,,,,,,0,0,0,,-484,15620,4188,-14,109,-217
27.889,27.68,0.93,-1.28,1.53,-16.50,7.40,-5.18,9.53,1.41,1.35,848.00,1943.00,338.00,707.00,547.00,1664.00,1168.00,1535.00,,,,,,,,,,,,0,0,0,,-536,15592,4220,-169,59,-251
27.91,27.73,1.55,-1.48,4.14,-47.05,70.84,13.39,-9.54,5.58,-2.84,739.00,1826.00,19.00,432.00,1095.00,1331.00,1358.00,1456.00,,,,,,,,,,,,0,0,0,,-548,15540,4288,-191,33,-213
27.95,27.79,1.34,5.90,-3.84,59.93,-29.72,-2.75,0.55,-1.27,1.28,995.00,1689.00,627.00,93.00,851.00,1923.00,1231.00,1710.00,,,,,,,,,,,,0,0,0,,-592,15488,4416,-168,68,-141
28.013,27.84,0.95,-2.48,1.59,-15.06,4.71,-6.30,10.04,-0.77,3.39,864.00,2034.00,381.00,718.00,543.00,1716.00,1088.00,1584.00,,,,,,,,,,,,0,0,0,,-540,15564,4496,-212,150,-97
28.095,27.90,1.32,-2.83,5.20,-28.88,38.88,8.30,-5.45,6.28,-3.47,715.00,1872.00,77.00,496.00,963.00,1459.00,1388.00,1441.00,,,,,,,,,,,,0,0,0,,-520,15604,4592,-81,169,-122
28.115,27.95,1.39,3.78,-2.94,19.79,-9.96,2.65,-2.93,-0.05,0.38,985.00,1793.00,447.00,268.00,931.00,1705.00,1264.00,1669.00,,,,,,,,,,,,0,0,0,,-448,15636,4340,-27,155,-105
28.177,28.01,1.20,-0.72,0.33,3.68,-3.92,-2.43,2.72,-0.17,2.14,896.00,1963.00,432.00,431.00,752.00,1791.00,1152.00,1600.00,,,,,,,,,,,,0,0,0,,-528,15572,4412,-5,89,-79
28.258,28.06,1.06,-2.10,2.74,-13.93,11.31,-1.50,3.76,1.78,-0.25,806.00,1943.00,261.00,575.00,699.00,1679.00,1265.00,1579.00,,,,,,,,,,,,0,0,0,,-408,15528,4364,-64,139,-182
28.278,28.12,1.41,-0.52,0.97,-10.56,16.84,8.11,-6.23,2.29,-0.69,862.00,1914.00,182.00,434.00,1008.00,1501.00,1284.00,1566.00,,,,,,,,,,,,0,0,0,,-576,15628,4228,-44,97,-277
28.36,28.17,1.16,2.71,-1.68,32.00,-18.53,-3.66,1.32,-0.84,1.20,938.00,1808.00,569.00,208.00,830.00,1953.00,1227.00,1685.00,,,,,,,,,,,,0,0,0,,-600,15420,4472,-116,49,-113
28.463,28.23,0.82,-1.64,1.31,-16.91,7.38,-5.70,9.50,0.37,2.07,864.00,1983.00,341.00,719.00,553.00,1700.00,1145.00,1569.00,,,,,,,,,,,,0,0,0,,-540,15512,4396,-30,144,-142
28.483,28.28,1.43,-1.53,3.78,-45.36,66.74,13.05,-9.46,5.55,-2.78,754.00,1847.00,23.00,451.00,1097.00,1346.00,1355.00,1456.00,,,,,,,,,,,,0,0,0,,-628,15508,4364,-73,138,-145
28.525,28.34,1.21,6.04,-3.85,57.30,-28.92,-2.88,0.50,-1.34,1.37,993.00,1680.00,630.00,101.00,855.00,1935.00,1227.00,1711.00,,,,,,,,,,,,0,0,0,,-540,15408,4276,2,107,-103
28.566,28.39,0.84,-1.97,1.40,-14.33,4.37,-6.21,9.94,-0.09,3.13,865.00,2004.00,383.00,704.00,545.00,1714.00,1090.00,1553.00,,,,,,,,,,,,0,0,0,,-468,15700,4388,-36,167,-164
28.608,28.45,1.20,-2.71,5.45,-27.54,36.61,7.93,-4.94,5.66,-2.90,704.00,1851.00,85.00,500.00,943.00,1460.00,1361.00,1454.00,,,,,,,,,,,,0,0,0,,-560,15556,4276,-101,61,-205
28.669,28.50,1.29,4.26,-2.86,18.77,-8.60,3.09,-2.75,0.46,0.40,972.00,1755.00,423.00,269.00,915.00,1668.00,1251.00,1635.00,,,,,,,,,,,,0,0,0,,-480,15528,4408,-111,78,-135
28.731,28.56,1.10,0.04,0.40,6.05,-4.63,-2.64,3.62,0.22,2.10,880.00,1901.00,430.00,400.00,719.00,1763.00,1146.00,1577.00,,,,,,,,,,,,0,0,0,,-476,15512,4416,-58,162,-143
28.834,28.61,0.97,-1.54,2.90,-13.97,11.19,-1.50,4.43,2.01,0.06,791.00,1892.00,263.00,578.00,674.00,1649.00,1239.00,1552.00,,,,,,,,,,,,0,0,0,,-500,15544,4524,-2,136,-111
28.855,28.67,1.37,-0.20,1.32,-11.94,19.91,9.09,-6.47,2.99,-0.78,841.00,1872.00,158.00,422.00,1003.00,1453.00,1274.00,1527.00,,,,,,,,,,,,0,0,0,,-568,15500,4332,44,158,-123
28.896,28.72,1.13,2.78,-1.82,34.65,-19.45,-3.42,1.30,-0.87,1.28,944.00,1810.00,570.00,192.00,827.00,1935.00,1222.00,1683.00,,,,,,,,,,,,0,0,0,,-468,15548,4360,1,207,-177
28.958,28.78,0.77,-1.98,1.21,-16.30,6.43,-6.07,10.06,0.28,1.78,874.00,2015.00,355.00,720.00,540.00,1699.00,1165.00,1587.00,,,,,,,,,,,,0,0,0,,-584,15524,4200,-64,183,-126
28.999,28.83,1.36,-2.60,4.09,-43.62,63.19,12.57,-9.29,5.41,-2.97,756.00,1911.00,27.00,463.00,1097.00,1366.00,1372.00,1471.00,,,,,,,,,,,,0,0,0,,-552,15528,4216,-20,155,-116
29.06,28.89,1.13,5.00,-4.16,54.51,-27.98,-3.33,0.34,-2.48,1.58,1029.00,1765.00,630.00,110.00,870.00,1979.00,1238.00,1779.00,,,,,,,,,,,,0,0,0,,-472,15656,4312,-55,158,-162
29.121,28.94,0.75,-3.32,1.43,-13.77,3.70,-6.38,9.20,-1.00,3.29,885.00,2112.00,393.00,701.00,569.00,1760.00,1099.00,1603.00,,,,,,,,,,,,0,0,0,,-592,15620,4204,-154,83,-329
29.224,29.00,1.05,-3.02,4.86,-24.52,31.34,6.68,-4.52,4.68,-2.61,731.00,1904.00,107.00,511.00,943.00,1517.00,1364.00,1500.00,,,,,,,,,,,,0,0,0,,-472,15556,4316,-212,119,-86
29.244,29.05,1.14,3.65,-2.53,15.87,-6.73,2.78,-2.61,0.23,0.33,966.00,1783.00,403.00,287.00,913.00,1682.00,1261.00,1653.00,,,,,,,,,,,,0,0,0,,-464,15600,4416,-143,165,-105
29.264,29.11,0.94,0.30,0.12,6.88,-5.29,-2.76,3.26,0.12,1.95,889.00,1895.00,439.00,394.00,735.00,1789.00,1158.00,1590.00,,,,,,,,,,,,0,0,0,,-556,15500,4368,-82,187,-140
29.327,29.16,0.80,-0.77,2.07,-12.62,8.18,-1.79,4.86,1.77,0.38,816.00,1877.00,302.00,594.00,662.00,1649.00,1223.00,1553.00,,,,,,,,,,,,0,0,0,,-588,15464,4256,-75,162,-169
29.389,29.22,1.26,0.08,1.56,-12.36,20.89,9.86,-6.93,2.82,-0.68,826.00,1840.00,151.00,418.00,1014.00,1427.00,1271.00,1533.00,,,,,,,,,,,,0,0,0,,-496,15564,4164,-23,179,-175
29.43,29.27,1.03,3.32,-1.90,37.68,-20.89,-3.23,1.28,-0.72,1.32,939.00,1776.00,583.00,177.00,825.00,1922.00,1216.00,1671.00,,,,,,,,,,,,0,0,0,,-452,15708,4200,-184,53,-165
29.493,29.33,0.69,-1.37,1.13,-16.25,6.52,-5.83,10.40,0.47,2.12,868.00,1971.00,353.00,717.00,528.00,1668.00,1140.00,1561.00,,,,,,,,,,,,0,0,0,,-444,15552,4500,-58,43,-174
29.553,29.38,1.32,-1.99,4.16,-42.24,62.06,13.23,-9.37,5.92,-2.98,745.00,1862.00,28.00,452.00,1088.00,1333.00,1360.00,1442.00,,,,,,,,,,,,0,0,0,,-460,15528,4268,-18,162,-191
29.656,29.44,1.12,5.71,-4.21,57.85,-28.99,-2.56,0.14,-1.96,1.50,1019.00,1719.00,626.00,99.00,867.00,1930.00,1232.00,1747.00,,,,,,,,,,,,0,0,0,,-484,15440,4200,-14,162,-170
29.677,29.49,0.77,-2.68,1.46,-12.51,3.14,-5.96,8.93,-0.75,3.20,873.00,2057.00,396.00,677.00,573.00,1744.00,1099.00,1591.00,,,,,,,,,,,,0,0,0,,-504,15368,4340,-113,129,-152
29.719,29.55,1.04,-3.09,4.60,-21.87,27.43,6.29,-3.99,3.27,-1.98,742.00,1922.00,126.00,511.00,923.00,1519.00,1352.00,1559.00,,,,,,,,,,,,0,0,0,,-452,15708,4356,-51,56,-169
29.801,29.60,1.14,2.95,-2.36,15.31,-5.65,2.89,-2.73,-0.33,0.67,969.00,1824.00,384.00,285.00,917.00,1680.00,1251.00,1675.00,,,,,,,,,,,,0,0,0,,-472,15528,4340,-36,88,-92
29.822,29.66,0.92,-0.89,0.11,8.07,-6.75,-3.20,2.98,-0.48,1.99,909.00,1987.00,465.00,391.00,752.00,1834.00,1168.00,1626.00,,,,,,,,,,,,0,0,0,,-420,15620,4268,-44,154,-126
29.924,29.71,0.74,-1.32,0.88,-11.59,6.54,-2.71,5.06,0.94,0.49,879.00,1980.00,324.00,596.00,666.00,1701.00,1234.00,1600.00,,,,,,,,,,,,0,0,0,,-508,15692,4120,-104,149,-288
29.945,29.77,1.18,-0.64,1.33,-14.40,22.58,9.58,-7.27,2.74,-1.01,847.00,1904.00,143.00,433.00,1038.00,1456.00,1296.00,1552.00,,,,,,,,,,,,0,0,0,,-524,15416,4220,-180,49,-222
29.986,29.82,0.95,3.52,-3.07,38.97,-22.58,-3.51,1.18,-1.09,1.30,997.00,1818.00,624.00,176.00,834.00,1949.00,1226.00,1697.00,,,,,,,,,,,,0,0,0,,-556,15488,4296,-42,82,-103
30.047,29.88,0.57,-1.36,0.87,-16.21,5.99,-6.49,10.69,0.25,2.17,880.00,1984.00,363.00,726.00,526.00,1699.00,1141.00,1572.00,,,,,,,,,,,,1,0,0,,-572,15520,4316,-146,169,-253
30.108,29.93,1.20,-2.13,4.51,-47.77,69.23,13.20,-9.37,6.02,-3.09,733.00,1855.00,21.00,464.00,1089.00,1335.00,1366.00,1441.00,,,,,,,,,,,,1,0,0,,-476,15448,4292,-104,96,-156
30.168,29.99,1.03,6.73,-4.93,54.69,-28.25,-2.29,0.05,-1.84,1.48,1040.00,1683.00,637.00,110.00,867.00,1914.00,1231.00,1740.00,,,,,,,,,,,,1,0,0,,-452,15780,4008,-24,12,-183
30.209,30.04,0.71,-2.09,1.33,-10.97,2.43,-5.37,8.38,-0.62,3.24,870.00,2017.00,400.00,649.00,584.00,1729.00,1094.00,1581.00,,,,,,,,,,,,1,0,0,,-564,15504,4260,-189,-34,-276
30.293,30.10,0.98,-2.25,4.02,-18.41,22.32,6.17,-3.46,4.50,-2.20,754.00,1888.00,156.00,511.00,899.00,1505.00,1338.00,1494.00,,,,,,,,,,,,1,0,0,,-540,15532,4324,-108,-5,-175
30.313,30.15,1.12,3.44,-2.04,13.87,-4.43,3.72,-2.93,0.00,0.74,944.00,1774.00,369.00,292.00,913.00,1634.00,1239.00,1650.00,,,,,,,,,,,,1,0,0,,-512,15596,4216,-46,41,-143
30.374,30.21,0.94,0.13,-0.08,10.64,-7.58,-2.38,2.39,0.04,1.59,902.00,1919.00,464.00,361.00,765.00,1804.00,1182.00,1610.00,,,,,,,,,,,,1,0,0,,-508,15592,4324,-79,48,-158
30.456,30.26,0.78,-0.40,0.61,-11.48,5.94,-2.38,5.40,1.38,0.44,877.00,1923.00,334.00,603.00,650.00,1664.00,1228.00,1575.00,,,,,,,,,,,,1,0,0,,-564,15464,4264,-90,62,-144
30.476,30.32,1.26,-0.79,1.92,-15.30,24.08,10.35,-7.86,3.30,-1.29,823.00,1886.00,134.00,431.00,1057.00,1435.00,1302.00,1529.00,,,,,,,,,,,,1,0,0,,-412,15540,4172,-150,85,-130
30.538,30.37,1.02,3.53,-3.19,40.68,-23.15,-3.46,1.09,-1.25,1.14,1003.00,1823.00,624.00,167.00,837.00,1949.00,1240.00,1715.00,,,,,,,,,,,,1,0,0,,-544,15516,4284,-148,16,-202
30.601,30.43,0.64,-2.36,1.23,-16.57,6.31,-6.63,10.46,-0.15,2.18,879.00,2044.00,359.00,730.00,534.00,1719.00,1149.00,1597.00,,,,,,,,,,,,1,0,0,,-520,15608,4296,-106,-9,-199
30.661,30.48,1.23,-3.07,4.33,-61.65,89.54,12.41,-9.36,5.40,-3.10,753.00,1935.00,9.00,466.00,1104.00,1377.00,1382.00,1477.00,,,,,,,,,,,,1,0,0,,-496,15680,4116,-120,32,-338
30.724,30.54,1.06,6.27,-5.34,49.93,-26.87,-2.19,-0.22,-2.15,1.31,1072.00,1733.00,645.00,128.00,878.00,1920.00,1249.00,1769.00,,,,,,,,,,,,1,0,0,,-620,15672,4388,-185,-20,-197
30.764,30.59,0.75,-1.73,0.87,-9.68,1.59,-5.08,7.42,-0.47,2.81,886.00,2013.00,409.00,631.00,612.00,1754.00,1117.00,1590.00,,,,,,,,,,,,1,0,0,,-500,15504,4100,174,-441,-146
30.826,30.65,0.98,-1.36,2.93,-17.95,19.94,5.33,-2.60,4.38,-2.20,787.00,1877.00,176.00,535.00,871.00,1520.00,1341.00,1501.00,,,,,,,,,,,,1,0,0,,-408,15624,4140,293,-862,-6
30.867,30.70,1.15,3.95,-2.11,12.44,-3.08,4.40,-3.40,0.78,0.21,939.00,1742.00,352.00,298.00,925.00,1611.00,1257.00,1623.00,,,,,,,,,,,,1,0,0,,-484,15564,3992,303,-1365,253
30.95,30.76,1.00,1.19,-0.46,14.52,-8.92,-1.87,1.53,0.09,1.31,903.00,1859.00,465.00,321.00,794.00,1809.00,1199.00,1619.00,,,,,,,,,,,,1,0,0,,-216,15744,4264,260,-1387,352
31.011,30.81,0.81,0.24,0.69,-11.51,5.72,-2.67,5.90,1.56,0.56,863.00,1871.00,338.00,607.00,636.00,1661.00,1216.00,1559.00,,,,,,,,,,,,1,0,0,,-176,15760,4640,-47,-322,-46
31.031,30.87,1.33,-0.16,2.11,-17.09,27.51,11.20,-8.41,3.36,-1.52,805.00,1830.00,115.00,422.00,1072.00,1408.00,1317.00,1535.00,,,,,,,,,,,,1,0,0,,-300,15576,4304,-385,801,-296
31.093,30.92,1.10,4.11,-3.05,44.70,-24.33,-3.32,1.16,-1.07,1.25,985.00,1775.00,618.00,147.00,832.00,1935.00,1229.00,1698.00,,,,,,,,,,,,1,0,0,,-152,15500,4008,-255,483,-184
31.157,30.98,0.73,-1.77,1.31,-16.21,6.25,-6.32,10.70,-0.14,2.47,866.00,1993.00,358.00,721.00,524.00,1687.00,1131.00,1584.00,,,,,,,,,,,,1,0,0,,-176,15612,4192,-114,0,-4
31.198,31.03,1.32,-2.81,5.04,-63.42,92.31,12.60,-9.42,6.06,-3.44,721.00,1879.00,8.00,464.00,1104.00,1369.00,1391.00,1452.00,,,,,,,,,,,,1,0,0,,-184,15632,4404,-160,270,-112
31.259,31.09,1.18,6.59,-5.36,49.47,-26.20,-1.63,-0.51,-2.08,1.36,1067.00,1712.00,627.00,128.00,883.00,1893.00,1244.00,1762.00,,,,,,,,,,,,1,0,0,,-244,15604,4400,-250,611,-212
31.32,31.14,0.87,-2.09,1.06,-8.21,1.41,-5.02,6.86,-1.08,2.77,883.00,2032.00,402.00,598.00,630.00,1776.00,1132.00,1631.00,,,,,,,,,,,,1,0,0,,-244,15568,4060,-197,508,-171
31.401,31.20,1.03,-1.93,2.80,-16.28,17.97,4.08,-1.71,3.69,-1.91,801.00,1927.00,190.00,528.00,849.00,1559.00,1337.00,1531.00,,,,,,,,,,,,1,0,0,,-184,15556,4240,-85,262,-58
31.421,31.25,1.18,2.51,-1.78,9.01,-0.79,4.07,-3.62,-0.05,0.38,947.00,1828.00,331.00,321.00,942.00,1642.00,1264.00,1669.00,,,,,,,,,,,,1,0,0,,-208,15872,4112,-60,201,-163
31.485,31.31,1.01,1.01,-0.59,16.84,-9.94,-2.12,1.04,0.29,0.67,912.00,1878.00,471.00,301.00,819.00,1851.00,1237.00,1634.00,,,,,,,,,,,,1,0,0,,-208,15536,4368,-212,269,-83
31.525,31.36,0.81,-0.28,0.89,-12.32,5.84,-3.12,6.14,1.09,0.66,862.00,1900.00,341.00,625.00,633.00,1680.00,1220.00,1584.00,,,,,,,,,,,,1,0,0,,-292,15532,4292,-116,292,-58
31.586,31.42,1.34,-0.28,2.11,-20.19,30.95,11.45,-8.80,3.76,-2.11,807.00,1839.00,101.00,435.00,1090.00,1409.00,1350.00,1535.00,,,,,,,,,,,,1,0,0,,-220,15636,4264,-119,232,-155
31.648,31.47,1.12,5.04,-3.23,49.34,-26.01,-3.00,0.76,-1.03,1.19,978.00,1719.00,622.00,128.00,845.00,1931.00,1232.00,1698.00,,,,,,,,,,,,1,0,0,,-332,15568,4220,-88,35,-270
31.79,31.53,0.72,-1.31,1.52,-15.71,5.92,-7.01,11.55,-0.03,2.51,849.00,1946.00,361.00,713.00,507.00,1695.00,1126.00,1575.00,,,,,,,,,,,,1,0,0,,-356,15544,4208,-16,160,-91
31.81,31.58,1.32,-2.27,5.14,-50.05,72.85,12.81,-9.49,6.36,-3.80,710.00,1834.00,18.00,461.00,1104.00,1360.00,1411.00,1449.00,,,,,,,,,,,,1,0,0,,-272,15492,4136,-244,214,-141
31.831,31.64,1.21,7.20,-5.09,45.92,-24.04,-0.83,-0.78,-1.65,1.23,1040.00,1659.00,595.00,139.00,883.00,1847.00,1243.00,1738.00,,,,,,,,,,,,1,0,0,,-160,15504,4236,-207,206,-99
31.871,31.69,0.96,-0.75,0.46,-5.50,-0.13,-3.77,5.45,-0.48,2.18,890.00,1958.00,416.00,560.00,665.00,1756.00,1156.00,1618.00,,,,,,,,,,,,1,0,0,,-292,15600,4444,-138,222,-23
31.912,31.75,1.12,-1.38,3.06,-15.04,17.36,4.13,-1.19,4.13,-1.92,782.00,1872.00,192.00,511.00,825.00,1535.00,1327.00,1505.00,,,,,,,,,,,,1,0,0,,-328,15664,4276,-75,279,-134
31.974,31.80,1.32,2.86,-1.21,7.04,1.20,5.09,-4.04,0.39,0.24,912.00,1775.00,308.00,329.00,946.00,1595.00,1264.00,1647.00,,,,,,,,,,,,1,0,0,,-196,15600,4208,-41,365,-173
32.037,31.86,1.15,1.13,-0.30,20.12,-11.00,-2.11,0.90,-0.00,0.81,896.00,1855.00,470.00,272.00,825.00,1857.00,1234.00,1647.00,,,,,,,,,,,,1,0,0,,-316,15508,4284,-155,319,-216
32.141,31.91,0.91,-0.58,0.80,-12.66,6.28,-3.72,6.60,0.66,0.86,871.00,1927.00,335.00,626.00,624.00,1699.00,1216.00,1602.00,,,,,,,,,,,,1,0,0,,-284,15548,4072,-210,254,-48
32.161,31.97,1.42,-1.00,2.17,-21.01,32.16,11.15,-8.93,3.56,-2.25,815.00,1889.00,96.00,435.00,1104.00,1431.00,1365.00,1553.00,,,,,,,,,,,,1,0,0,,-236,15600,4256,-192,204,-124
32.201,32.02,1.16,4.13,-3.41,49.78,-26.36,-3.64,0.89,-1.85,1.26,1004.00,1791.00,629.00,127.00,849.00,1974.00,1246.00,1751.00,,,,,,,,,,,,1,0,0,,-228,15780,4304,-206,184,-179
32.262,32.08,0.73,-1.76,1.01,-15.72,5.57,-7.48,11.56,-0.50,2.51,880.00,2008.00,368.00,720.00,511.00,1726.00,1136.00,1605.00,,,,,,,,,,,,1,0,0,,-276,15456,4428,-111,138,-71
32.303,32.13,1.28,-2.45,5.10,-46.64,67.17,11.74,-8.86,6.35,-3.97,714.00,1849.00,23.00,469.00,1088.00,1395.00,1424.00,1456.00,,,,,,,,,,,,1,0,0,,-212,15628,4376,-29,125,-150
32.364,32.19,1.21,6.78,-4.93,39.00,-21.11,-0.16,-1.29,-1.36,0.91,1039.00,1680.00,576.00,169.00,897.00,1824.00,1258.00,1733.00,,,,,,,,,,,,1,0,0,,-164,15552,4252,-91,71,-220
32.426,32.24,0.97,-0.56,0.37,-3.73,-1.03,-3.60,5.00,0.03,1.72,891.00,1948.00,423.00,535.00,679.00,1765.00,1174.00,1605.00,,,,,,,,,,,,1,0,0,,-232,15524,4480,-63,15,-154
32.488,32.30,1.08,-1.02,3.03,-14.62,16.74,3.16,-0.35,3.98,-1.70,778.00,1847.00,197.00,511.00,802.00,1559.00,1315.00,1505.00,,,,,,,,,,,,1,0,0,,-140,15628,4224,-19,85,-143
32.508,32.35,1.36,3.14,-1.30,4.21,3.40,6.63,-4.89,1.43,-0.27,912.00,1760.00,288.00,347.00,963.00,1535.00,1275.00,1602.00,,,,,,,,,,,,1,0,0,,-220,15520,4308,-52,90,-173
32.57,32.41,1.17,2.15,-0.76,23.01,-12.86,-2.34,1.21,0.18,0.72,902.00,1804.00,493.00,255.00,815.00,1859.00,1236.00,1639.00,,,,,,,,,,,,1,0,0,,-272,15492,4216,-106,140,-34
32.631,32.46,0.91,-0.32,0.92,-13.69,6.57,-4.06,7.41,0.31,1.64,861.00,1901.00,336.00,647.00,601.00,1685.00,1173.00,1591.00,,,,,,,,,,,,1,0,0,,-200,15488,4160,-112,114,-108
32.692,32.52,1.45,-0.65,2.51,-23.74,36.45,11.75,-9.04,4.08,-2.34,795.00,1846.00,80.00,432.00,1098.00,1401.00,1359.00,1525.00,,,,,,,,,,,,1,0,0,,-164,15572,4260,-194,115,-72
32.753,32.57,1.21,4.80,-3.54,53.76,-27.55,-3.38,0.80,-1.28,0.84,999.00,1750.00,624.00,112.00,849.00,1958.00,1261.00,1731.00,,,,,,,,,,,,1,0,0,,-240,15720,4560,-145,110,-90
32.794,32.63,0.79,-1.77,0.97,-15.58,5.52,-7.21,10.86,-0.70,2.58,882.00,2011.00,368.00,717.00,528.00,1740.00,1136.00,1615.00,,,,,,,,,,,,1,0,0,,-220,15576,4296,-170,53,-169
32.875,32.68,1.29,-3.48,5.55,-44.60,63.52,10.82,-8.31,5.90,-3.93,710.00,1903.00,27.00,477.00,1074.00,1426.00,1433.00,1481.00,,,,,,,,,,,,1,0,0,,-276,15620,4504,-77,84,-35
32.896,32.74,1.23,5.28,-4.57,34.00,-18.30,0.09,-1.73,-1.51,0.77,1047.00,1765.00,542.00,191.00,914.00,1827.00,1271.00,1750.00,,,,,,,,,,,,1,0,0,,-156,15612,4508,-104,158,-47
32.957,32.79,0.97,-0.93,-0.17,-0.97,-2.73,-3.94,4.61,-0.63,1.75,924.00,2006.00,441.00,502.00,698.00,1808.00,1186.00,1646.00,,,,,,,,,,,,1,0,0,,-144,15644,4248,-141,193,-142
33.018,32.85,1.01,-1.78,3.12,-15.64,15.90,1.72,0.54,2.86,-1.23,785.00,1899.00,210.00,544.00,785.00,1612.00,1308.00,1553.00,,,,,,,,,,,,1,0,0,,-128,15596,4296,-71,186,-77
33.08,32.90,1.31,2.02,-0.78,-2.61,8.16,6.98,-5.27,1.48,-0.28,905.00,1814.00,252.00,400.00,977.00,1530.00,1274.00,1599.00,,,,,,,,,,,,1,0,0,,-88,15672,4280,31,107,-184
33.122,32.96,1.13,2.24,-0.98,26.16,-14.94,-2.23,0.72,-0.02,0.82,911.00,1808.00,521.00,238.00,835.00,1875.00,1234.00,1648.00,,,,,,,,,,,,1,0,0,,-168,15532,4232,-64,56,-198
33.245,33.01,0.85,-0.68,1.09,-16.14,7.90,-4.40,7.81,0.76,1.12,859.00,1920.00,327.00,688.00,592.00,1690.00,1197.00,1585.00,,,,,,,,,,,,1,0,0,,-232,15528,4344,-15,56,-182
33.265,33.07,1.43,-0.60,2.68,-24.95,37.80,12.43,-9.28,4.79,-2.59,787.00,1834.00,76.00,437.00,1099.00,1373.00,1360.00,1493.00,,,,,,,,,,,,1,0,0,,-212,15600,4272,-44,131,-181
33.306,33.12,1.21,5.67,-3.98,54.00,-27.90,-3.07,0.48,-1.34,1.19,1007.00,1711.00,633.00,112.00,859.00,1951.00,1239.00,1719.00,,,,,,,,,,,,1,0,0,,-268,15508,4328,-199,120,-150
33.347,33.18,0.79,-1.83,1.26,-15.85,5.62,-7.22,10.94,-0.78,3.01,869.00,2000.00,368.00,723.00,526.00,1737.00,1111.00,1601.00,,,,,,,,,,,,1,0,0,,-148,15540,4332,-159,84,-132
33.407,33.23,1.24,-3.00,5.60,-36.21,50.08,9.83,-7.28,6.06,-3.66,702.00,1865.00,48.00,491.00,1034.00,1442.00,1408.00,1461.00,,,,,,,,,,,,1,0,0,,-196,15580,4328,-58,63,-175
33.468,33.29,1.23,4.87,-3.59,25.47,-13.76,1.07,-2.15,-0.86,0.63,1000.00,1747.00,495.00,237.00,919.00,1778.00,1266.00,1712.00,,,,,,,,,,,,1,0,0,,-184,15528,4104,-35,110,-163
33.53,33.34,0.98,-0.74,0.31,1.27,-3.10,-3.87,4.56,-0.60,2.01,897.00,1965.00,432.00,464.00,699.00,1805.00,1169.00,1633.00,,,,,,,,,,,,1,0,0,,-160,15492,4352,-197,101,-154
33.655,33.40,0.96,-2.25,3.30,-15.00,14.41,0.66,1.27,2.97,-1.53,784.00,1925.00,225.00,552.00,769.00,1648.00,1327.00,1559.00,,,,,,,,,,,,1,0,0,,-248,15544,4408,-219,175,-226
33.675,33.45,1.26,-0.09,0.51,-8.10,13.72,7.03,-5.48,1.48,-0.80,877.00,1905.00,206.00,428.00,987.00,1535.00,1311.00,1622.00,,,,,,,,,,,,1,0,0,,-188,15668,4504,53,279,-5
33.696,33.51,1.04,1.03,-0.85,27.45,-15.72,-3.26,0.92,-0.61,0.67,925.00,1890.00,531.00,231.00,842.00,1943.00,1257.00,1693.00,,,,,,,,,,,,1,0,0,,-252,15508,4328,104,587,56
33.716,33.56,0.71,-2.76,1.62,-16.90,7.05,-5.53,8.40,-0.03,1.31,867.00,2055.00,347.00,725.00,585.00,1739.00,1202.00,1627.00,,,,,,,,,,,,1,0,0,,-124,15624,4092,-63,637,110
33.778,33.62,1.27,-1.66,3.18,-31.65,45.70,11.88,-9.25,4.43,-2.87,781.00,1887.00,56.00,461.00,1108.00,1402.00,1389.00,1525.00,,,,,,,,,,,,1,0,0,,-96,15608,4132,-98,339,196
33.84,33.67,1.04,5.17,-3.83,51.93,-27.11,-3.23,0.35,-1.74,1.03,1008.00,1738.00,630.00,119.00,868.00,1971.00,1259.00,1754.00,,,,,,,,,,,,1,0,0,,-68,15612,4184,-143,201,58
33.901,33.73,0.66,-2.60,1.59,-15.82,5.16,-6.69,10.07,-0.81,2.82,866.00,2044.00,377.00,731.00,546.00,1741.00,1123.00,1611.00,,,,,,,,,,,,1,0,0,,44,15696,4464,-125,287,-64
33.962,33.78,1.06,-2.88,5.56,-31.81,43.29,8.65,-6.17,5.86,-3.57,702.00,1858.00,64.00,495.00,995.00,1467.00,1406.00,1469.00,,,,,,,,,,,,1,0,0,,-88,15608,4308,-118,201,-165
34.023,33.84,1.11,4.23,-3.20,21.16,-12.53,2.10,-2.66,-0.30,0.09,991.00,1774.00,501.00,272.00,927.00,1730.00,1290.00,1699.00,,,,,,,,,,,,1,0,0,,-96,15688,4132,-89,184,-100
34.064,33.89,0.89,-0.07,0.21,2.63,-3.39,-3.29,4.13,-0.28,1.86,891.00,1919.00,428.00,443.00,708.00,1785.00,1172.00,1619.00,,,,,,,,,,,,1,0,0,,-64,15684,4280,-208,152,-213
34.125,33.95,0.81,-1.60,3.08,-13.67,12.32,-0.72,2.95,2.24,-0.80,784.00,1887.00,246.00,554.00,720.00,1664.00,1293.00,1574.00,,,,,,,,,,,,1,0,0,,-144,15552,4384,-189,155,-227
34.187,34.00,1.17,0.20,1.10,-9.71,16.45,8.11,-6.08,2.01,-0.91,845.00,1854.00,183.00,424.00,1000.00,1495.00,1306.00,1593.00,,,,,,,,,,,,1,0,0,,-184,15436,4196,-117,187,-11
34.249,34.06,0.94,2.11,-1.10,31.59,-17.56,-3.42,1.17,-1.01,0.96,919.00,1823.00,544.00,206.00,833.00,1942.00,1247.00,1707.00,,,,,,,,,,,,1,0,0,,-200,15920,4344,-285,338,270
34.332,34.11,0.61,-1.66,0.99,-16.49,7.18,-5.66,9.03,0.19,1.26,879.00,2001.00,342.00,711.00,567.00,1719.00,1200.00,1615.00,,,,,,,,,,,,1,0,0,,-144,16004,4136,34,337,149
34.354,34.17,1.17,-2.19,3.57,-37.72,55.39,11.75,-9.22,4.04,-2.17,772.00,1907.00,37.00,452.00,1109.00,1408.00,1347.00,1520.00,,,,,,,,,,,,1,0,0,,-200,15804,4028,-192,281,-24
34.395,34.22,0.94,4.55,-3.70,50.77,-26.64,-3.46,0.23,-2.03,1.01,1012.00,1775.00,627.00,123.00,877.00,1995.00,1267.00,1775.00,,,,,,,,,,,,1,0,0,,-232,15576,3736,162,59,116
34.457,34.28,0.56,-3.26,1.24,-14.77,4.18,-6.55,9.03,-0.90,2.43,893.00,2118.00,390.00,720.00,576.00,1780.00,1149.00,1634.00,,,,,,,,,,,,1,0,0,,-88,14952,4016,348,42,410
34.498,34.33,0.84,-3.44,4.60,-25.00,30.82,6.18,-4.80,4.44,-3.04,747.00,1949.00,111.00,528.00,966.00,1559.00,1402.00,1532.00,,,,,,,,,,,,1,0,0,,176,15100,4480,-411,225,533
34.56,34.39,0.90,3.38,-2.77,15.33,-7.83,1.92,-2.50,-0.36,0.28,983.00,1813.00,432.00,302.00,922.00,1735.00,1278.00,1694.00,,,,,,,,,,,,1,0,0,,360,15180,5056,-418,398,1161
34.62,34.44,0.70,-0.27,0.51,4.61,-4.23,-3.08,3.34,-0.09,1.65,880.00,1919.00,432.00,419.00,736.00,1808.00,1181.00,1616.00,,,,,,,,,,,,1,0,0,,280,16288,5116,226,231,1474
34.704,34.50,0.58,-1.23,2.57,-12.21,9.31,-1.77,4.15,1.68,-0.20,801.00,1886.00,282.00,567.00,688.00,1680.00,1264.00,1583.00,,,,,,,,,,,,1,0,0,,520,15812,4288,1699,352,1478
34.723,34.55,0.98,0.25,1.30,-11.44,18.83,8.73,-6.49,2.44,-0.89,835.00,1840.00,166.00,426.00,1011.00,1475.00,1294.00,1565.00,,,,,,,,,,,,1,0,0,,1092,15628,3060,2571,690,1268
34.763,34.61,0.76,2.74,-1.43,32.85,-18.88,-3.39,1.05,-0.78,0.97,925.00,1794.00,571.00,203.00,838.00,1946.00,1241.00,1691.00,,,,,,,,,,,,1,0,0,,1288,15660,2096,982,883,459
34.845,34.66,0.45,-1.61,1.40,-16.21,6.30,-5.61,9.24,0.46,1.47,859.00,1975.00,357.00,720.00,560.00,1706.00,1181.00,1589.00,,,,,,,,,,,,1,0,0,,1284,15468,2544,-1567,772,-109
34.885,34.72,1.04,-1.92,4.04,-36.55,55.00,12.42,-9.34,5.59,-3.17,749.00,1863.00,37.00,436.00,1103.00,1376.00,1383.00,1469.00,,,,,,,,,,,,1,0,0,,972,15580,3820,-2170,75,-286
34.945,34.77,0.85,5.41,-3.97,53.24,-27.43,-2.89,0.10,-2.03,1.18,1011.00,1728.00,626.00,114.00,874.00,1957.00,1255.00,1767.00,,,,,,,,,,,,1,0,0,,828,16128,4572,-1349,-129,-459
35.008,34.83,0.52,-2.37,1.23,-12.61,3.45,-5.79,8.56,-0.58,2.75,879.00,2045.00,390.00,674.00,583.00,1750.00,1123.00,1600.00,,,,,,,,,,,,1,0,0,,732,15756,4824,-698,-125,-608
35.069,34.88,0.79,-2.69,4.27,-22.40,28.36,6.04,-3.99,4.57,-2.60,750.00,1909.00,121.00,509.00,927.00,1534.00,1366.00,1506.00,,,,,,,,,,,,1,0,0,,752,15432,4632,-260,-408,-574
35.13,34.94,0.89,2.94,-2.01,15.51,-5.82,2.80,-2.60,-0.21,0.44,951.00,1808.00,386.00,284.00,912.00,1680.00,1264.00,1677.00,,,,,,,,,,,,1,0,0,,564,15428,4556,-257,-656,-390
35.171,34.99,0.70,-0.64,0.38,7.77,-5.55,-2.95,2.78,-0.25,1.61,892.00,1954.00,438.00,383.00,757.00,1826.00,1187.00,1628.00,,,,,,,,,,,,1,0,0,,488,15676,4720,-173,-564,-411
35.213,35.05,0.52,-1.17,1.21,-11.58,6.70,-2.81,5.35,1.26,0.03,861.00,1951.00,321.00,593.00,657.00,1695.00,1258.00,1600.00,,,,,,,,,,,,1,0,0,,492,15588,4560,-143,-551,-384
35.276,35.10,0.97,-0.81,1.64,-14.10,22.22,9.48,-7.27,2.68,-1.09,836.00,1902.00,145.00,432.00,1040.00,1462.00,1303.00,1559.00,,,,,,,,,,,,1,0,0,,440,15884,4496,-263,-873,-541
35.317,35.16,0.76,3.67,-2.86,40.53,-22.92,-3.25,1.02,-0.72,0.98,983.00,1797.00,618.00,167.00,837.00,1937.00,1239.00,1687.00,,,,,,,,,,,,1,0,0,,728,15244,4944,59,-736,-474
35.379,35.21,0.38,-1.47,1.29,-16.86,7.25,-6.86,11.49,0.46,1.96,862.00,1970.00,343.00,720.00,507.00,1687.00,1150.00,1568.00,,,,,,,,,,,,1,0,0,,752,15596,4860,34,-70,-291
35.44,35.27,1.04,-1.84,4.51,-84.89,125.14,13.59,-9.59,6.52,-3.40,729.00,1834.00,2.00,450.00,1094.00,1322.00,1376.00,1424.00,,,,,,,,,,,,1,0,0,,728,15532,4768,76,170,-418
35.503,35.32,0.86,6.93,-5.00,64.10,-31.18,-2.58,-0.25,-1.05,1.19,1040.00,1673.00,629.00,82.00,886.00,1952.00,1232.00,1699.00,,,,,,,,,,,,1,0,0,,628,15296,5068,813,321,-220
35.564,35.38,0.53,-1.87,0.90,-9.82,3.24,-5.75,7.17,0.57,2.96,887.00,2023.00,375.00,607.00,628.00,1813.00,1087.00,1520.00,,,,,,,,,,,,1,0,0,,768,15560,4604,944,1059,323
35.605,35.43,0.75,-1.67,2.90,-18.74,24.30,4.97,-3.77,5.78,-2.32,793.00,1902.00,141.00,491.00,934.00,1591.00,1316.00,1425.00,,,,,,,,,,,,1,0,0,,1024,15488,3964,961,1036,570
35.667,35.49,0.88,3.25,-2.11,16.60,-3.84,3.39,-4.10,1.45,0.50,951.00,1791.00,340.00,258.00,979.00,1709.00,1222.00,1568.00,,,,,,,,,,,,1,0,0,,1216,16048,3404,1295,274,611
35.728,35.54,0.71,0.07,-0.41,15.09,-8.22,-2.56,0.83,1.35,1.43,919.00,1940.00,443.00,308.00,835.00,1894.00,1164.00,1535.00,,,,,,,,,,,,1,0,0,,1336,15912,3448,2172,-88,57
35.811,35.60,0.52,-0.69,0.63,-10.85,6.51,-3.19,4.43,2.40,0.43,881.00,1945.00,320.00,579.00,695.00,1763.00,1206.00,1513.00,,,,,,,,,,,,1,0,0,,1156,15656,2644,974,149,-693
35.831,35.65,0.98,-0.74,1.35,-18.33,30.14,9.72,-9.03,4.36,-1.82,848.00,1911.00,102.00,413.00,1139.00,1518.00,1314.00,1487.00,,,,,,,,,,,,1,0,0,,664,15108,2572,-1285,289,-872
35.872,35.71,0.73,3.16,-3.43,45.51,-24.75,-3.87,-0.09,-0.53,0.91,1023.00,1862.00,623.00,144.00,899.00,2045.00,1239.00,1677.00,,,,,,,,,,,,1,0,0,,412,15116,3212,-3059,439,-834
35.934,35.76,0.33,-2.48,0.67,-16.66,6.40,-7.29,9.90,0.40,2.29,908.00,2085.00,358.00,731.00,557.00,1791.00,1131.00,1558.00,,,,,,,,,,,,1,0,0,,376,16276,4780,-2202,949,-534
35.975,35.82,0.91,-2.72,3.84,-71.04,103.56,11.90,-9.73,6.92,-3.74,768.00,1933.00,5.00,464.00,1137.00,1419.00,1392.00,1415.00,,,,,,,,,,,,1,0,0,,448,15836,4596,-381,646,60
36.035,35.87,0.76,6.26,-5.61,48.54,-25.97,-2.05,-0.84,-1.44,1.16,1088.00,1746.00,630.00,132.00,906.00,1942.00,1243.00,1727.00,,,,,,,,,,,,1,0,0,,780,15788,4232,33,-328,0
36.097,35.93,0.47,-1.52,0.68,-8.51,0.88,-5.01,6.37,0.35,2.38,892.00,2007.00,416.00,614.00,647.00,1799.00,1126.00,1557.00,,,,,,,,,,,,1,0,0,,660,15876,4120,-265,-806,-690
36.159,35.98,0.69,-1.23,2.96,-16.49,18.14,4.76,-2.13,4.86,-1.46,784.00,1866.00,189.00,530.00,858.00,1535.00,1277.00,1444.00,,,,,,,,,,,,1,0,0,,460,15256,4488,-453,-703,-940
36.241,36.04,0.90,4.02,-1.90,9.73,-1.03,4.97,-3.97,1.47,0.30,927.00,1727.00,331.00,314.00,944.00,1599.00,1235.00,1575.00,,,,,,,,,,,,1,0,0,,624,15912,3764,-587,-600,-924
36.262,36.09,0.78,2.06,-0.61,18.53,-11.05,-1.53,0.78,1.61,0.53,896.00,1803.00,485.00,290.00,822.00,1821.00,1217.00,1557.00,,,,,,,,,,,,1,0,0,,72,15568,4044,-401,-1140,-996
36.303,36.15,0.61,0.22,0.70,-12.26,5.87,-2.55,6.00,2.29,0.59,863.00,1872.00,340.00,623.00,631.00,1648.00,1198.00,1513.00,,,,,,,,,,,,1,0,0,,108,15620,3860,-236,-1288,-591
36.365,36.20,1.19,-0.06,2.31,-19.66,30.96,12.03,-9.14,5.08,-2.38,795.00,1813.00,100.00,426.00,1099.00,1390.00,1337.00,1467.00,,,,,,,,,,,,1,0,0,,256,15840,3916,-290,-1042,-641
36.426,36.26,0.99,4.91,-3.20,51.04,-26.73,-2.77,0.64,-0.24,1.03,979.00,1727.00,627.00,122.00,847.00,1920.00,1225.00,1653.00,,,,,,,,,,,,1,0,0,,200,15756,4464,-244,-931,-782
36.488,36.31,0.63,-1.37,1.32,-15.98,6.32,-6.18,10.62,0.82,2.24,859.00,1961.00,355.00,713.00,525.00,1681.00,1125.00,1534.00,,,,,,,,,,,,1,0,0,,-32,16592,4976,-31,-357,-819
36.551,36.37,1.25,-2.10,4.93,-51.61,75.54,13.01,-9.59,7.07,-3.96,716.00,1832.00,16.00,456.00,1106.00,1353.00,1405.00,1415.00,,,,,,,,,,,,1,0,0,,-288,15352,4460,88,422,-1416
36.592,36.42,1.16,6.60,-4.89,45.58,-23.80,-0.49,-1.10,-1.04,0.80,1040.00,1690.00,591.00,140.00,893.00,1838.00,1258.00,1716.00,,,,,,,,,,,,1,0,0,,-444,15100,3700,-549,1343,-404
36.653,36.48,0.91,-1.00,0.36,-5.25,-0.44,-3.77,5.17,0.38,1.65,899.00,1983.00,421.00,559.00,675.00,1769.00,1171.00,1586.00,,,,,,,,,,,,1,0,0,,-352,14984,3836,-1030,1091,292
36.714,36.53,1.08,-1.47,2.79,-15.90,17.55,4.24,-1.37,4.55,-2.12,795.00,1893.00,193.00,526.00,831.00,1535.00,1331.00,1488.00,,,,,,,,,,,,1,0,0,,-168,15428,4192,-1125,774,1664
36.775,36.59,1.33,2.36,-1.18,6.24,1.59,6.11,-5.06,1.47,-0.60,919.00,1809.00,306.00,336.00,981.00,1574.00,1297.00,1614.00,,,,,,,,,,,,1,0,0,,976,16484,4184,1183,-436,1823
36.856,36.64,1.19,1.75,-0.61,20.44,-11.88,-1.58,0.57,1.05,0.18,901.00,1825.00,490.00,275.00,832.00,1835.00,1253.00,1607.00,,,,,,,,,,,,1,0,0,,2068,17340,4308,2426,-1463,-410
36.898,36.70,0.97,0.11,0.87,-12.81,6.44,-3.08,6.39,1.70,0.51,857.00,1872.00,333.00,627.00,624.00,1666.00,1216.00,1552.00,,,,,,,,,,,,1,0,0,,1788,16572,3348,2385,-1650,-3070
36.918,36.75,1.53,-0.29,2.72,-21.17,33.61,12.10,-9.20,4.89,-2.60,781.00,1810.00,89.00,421.00,1101.00,1388.00,1358.00,1487.00,,,,,,,,,,,,1,0,0,,624,14628,2712,230,-1564,-3958
36.98,36.81,1.33,5.56,-3.41,52.90,-27.26,-2.50,0.55,-0.07,0.86,978.00,1692.00,624.00,115.00,847.00,1904.00,1232.00,1649.00,,,,,,,,,,,,1,0,0,,-1188,14028,3664,-1195,25,-1230
37.041,36.86,0.94,-0.59,0.93,-14.69,5.38,-6.42,11.38,1.08,2.20,865.00,1921.00,365.00,695.00,506.00,1663.00,1122.00,1520.00,,,,,,,,,,,,1,0,0,,-1076,15568,4016,-442,436,1265
37.082,36.92,1.55,-2.90,6.82,-48.68,71.38,13.07,-9.04,7.84,-4.20,656.00,1798.00,19.00,454.00,1072.00,1330.00,1403.00,1381.00,,,,,,,,,,,,1,0,0,,-140,15956,3956,63,945,1680
37.143,36.97,1.52,6.87,-4.51,39.52,-20.76,0.99,-1.60,0.12,0.61,1014.00,1655.00,560.00,164.00,893.00,1757.00,1245.00,1648.00,,,,,,,,,,,,1,0,0,,704,16192,3788,404,1343,1316
37.205,37.03,1.29,-0.16,0.37,-1.26,-1.56,-3.09,4.81,1.41,1.35,885.00,1918.00,416.00,492.00,680.00,1739.00,1168.00,1535.00,,,,,,,,,,,,1,0,0,,872,15964,3856,1424,2045,483
37.288,37.08,1.48,-1.24,3.08,-14.36,17.62,5.15,-4.92,5.77,-3.18,779.00,1861.00,187.00,494.00,991.00,1629.00,1379.00,1459.00,,,,,,,,,,,,1,0,1,,372,16296,2404,1164,1646,-374
37.309,37.14,1.67,2.22,-1.29,3.40,4.59,5.14,-4.77,2.92,-0.56,927.00,1825.00,274.00,347.00,983.00,1623.00,1260.00,1522.00,,,,,,,,,,,,1,0,1,,-36,14864,3152,1159,-718,1578
37.349,37.19,1.47,2.03,-1.33,29.68,-15.10,-2.20,-0.25,1.60,0.39,932.00,1840.00,493.00,208.00,880.00,1923.00,1226.00,1563.00,,,,,,,,,,,,1,0,1,,772,15732,2664,3336,-2281,3154
37.412,37.25,1.21,-0.90,0.59,-14.49,8.26,-3.70,5.59,1.99,0.98,886.00,1963.00,311.00,638.00,659.00,1744.00,1179.00,1515.00,,,,,,,,,,,,1,0,1,,1008,15776,3644,3251,-2130,4016
37.516,37.30,1.75,-1.28,2.31,-31.29,50.45,11.90,-10.23,5.60,-2.85,813.00,1903.00,43.00,400.00,1168.00,1438.00,1359.00,1456.00,,,,,,,,,,,,1,0,1,,1712,16588,3292,3083,-1563,3616
37.536,37.36,1.50,4.67,-4.20,67.72,-32.19,-3.23,-0.69,-0.37,0.87,1038.00,1791.00,622.00,73.00,918.00,2026.00,1238.00,1668.00,,,,,,,,,,,,1,0,1,,2344,16568,3208,1797,247,1578
37.578,37.41,1.08,-1.83,0.93,-15.06,5.60,-6.87,9.53,0.90,2.60,885.00,2018.00,363.00,701.00,564.00,1779.00,1102.00,1515.00,,,,,,,,,,,,1,0,1,,2416,16480,3000,559,1886,-194
37.639,37.47,1.57,-2.42,4.93,-52.22,76.94,10.78,-8.81,8.24,-4.26,720.00,1855.00,15.00,450.00,1104.00,1447.00,1398.00,1362.00,,,,,,,,,,,,1,0,1,,1980,16408,1936,-138,1364,-1904
37.699,37.52,1.56,6.31,-4.49,35.53,-17.29,1.50,-3.11,0.76,0.48,1023.00,1691.00,499.00,175.00,960.00,1793.00,1239.00,1612.00,,,,,,,,,,,,1,0,1,,1088,15832,2368,-67,613,-1082
37.76,37.58,1.36,0.69,-0.17,3.00,-3.25,-2.53,3.51,1.81,1.57,897.00,1881.00,422.00,435.00,722.00,1761.00,1146.00,1502.00,,,,,,,,,,,,1,0,1,,1260,16628,2700,711,-205,-861
37.823,37.63,1.41,-0.71,3.17,-14.20,16.41,2.35,0.04,5.51,-1.69,768.00,1818.00,199.00,507.00,797.00,1593.00,1278.00,1416.00,,,,,,,,,,,,1,0,1,,1400,16632,2228,1521,-619,-1574
37.864,37.69,1.76,1.75,0.10,-5.26,13.88,8.49,-6.41,3.95,-0.96,867.00,1791.00,194.00,381.00,1011.00,1486.00,1264.00,1477.00,,,,,,,,,,,,1,0,1,,960,16232,1452,1348,54,-2240
37.926,37.74,1.57,2.88,-1.19,32.40,-17.28,-2.13,0.29,2.08,0.37,911.00,1773.00,528.00,198.00,853.00,1889.00,1217.00,1535.00,,,,,,,,,,,,1,0,1,,280,15096,728,20,527,-1814
38.007,37.80,1.28,-1.14,1.03,-16.53,8.14,-4.08,7.67,2.50,0.91,869.00,1958.00,325.00,694.00,593.00,1675.00,1173.00,1488.00,,,,,,,,,,,,1,0,1,,508,15132,852,21,223,-135
38.028,37.85,1.90,-1.08,3.01,-33.50,51.63,13.51,-10.27,5.85,-2.99,780.00,1853.00,42.00,423.00,1137.00,1351.00,1363.00,1447.00,,,,,,,,,,,,1,0,1,,1108,16204,1008,-211,-99,899
38.068,37.91,1.69,5.42,-4.04,65.01,-31.60,-2.29,-0.70,-0.41,0.87,1015.00,1731.00,633.00,80.00,903.00,1953.00,1239.00,1671.00,,,,,,,,,,,,1,0,1,,1644,16644,1316,-143,5,458
38.129,37.96,1.30,-2.61,1.15,-15.68,5.26,-5.96,8.93,0.50,2.70,887.00,2069.00,374.00,725.00,573.00,1744.00,1104.00,1535.00,,,,,,,,,,,,1,0,1,,1612,16160,1404,-686,284,-87
38.189,38.02,1.72,-3.20,5.04,-33.81,46.75,9.62,-7.47,7.02,-4.11,726.00,1908.00,55.00,488.00,1049.00,1462.00,1417.00,1423.00,,,,,,,,,,,,1,0,1,,1288,16164,1124,-1724,-125,-497
38.23,38.07,1.73,3.96,-3.98,21.26,-11.42,1.85,-3.40,0.34,-0.05,1039.00,1831.00,471.00,263.00,969.00,1782.00,1285.00,1663.00,,,,,,,,,,,,1,0,1,,940,15376,1884,-5023,1189,-494
38.292,38.13,1.49,-0.31,-0.38,3.82,-4.55,-2.94,3.22,1.08,1.30,924.00,1968.00,446.00,436.00,739.00,1804.00,1178.00,1557.00,,,,,,,,,,,,1,0,1,,1312,16992,3068,-3355,2453,-1484
38.375,38.18,1.44,-1.13,2.55,-13.65,12.77,0.40,1.75,4.00,-1.31,800.00,1879.00,240.00,547.00,753.00,1644.00,1287.00,1488.00,,,,,,,,,,,,1,0,1,,1072,16660,3396,-1245,2066,-2142
38.396,38.24,1.82,0.75,0.85,-8.51,16.66,8.99,-6.66,3.82,-1.05,848.00,1826.00,177.00,402.00,1015.00,1466.00,1273.00,1488.00,,,,,,,,,,,,1,0,1,,624,15900,2464,-352,932,-1808
38.458,38.29,1.61,3.60,-1.64,36.95,-19.60,-2.35,0.61,1.27,0.41,921.00,1744.00,551.00,176.00,842.00,1890.00,1232.00,1583.00,,,,,,,,,,,,1,0,1,,284,15192,2008,-906,-606,-1193
38.52,38.35,1.32,-0.89,1.40,-15.65,7.18,-4.10,8.56,2.71,0.99,848.00,1920.00,337.00,688.00,565.00,1636.00,1163.00,1472.00,,,,,,,,,,,,1,0,1,,256,15516,2776,-743,-1506,-558
38.561,38.40,1.98,-0.88,3.69,-46.13,70.53,14.48,-10.15,6.48,-3.10,749.00,1805.00,19.00,420.00,1110.00,1296.00,1355.00,1415.00,,,,,,,,,,,,1,0,1,,324,16360,3104,-674,-1262,-468
38.623,38.46,1.78,6.42,-4.18,71.08,-33.38,-2.02,0.17,-0.02,0.88,1004.00,1670.00,624.00,66.00,857.00,1887.00,1230.00,1645.00,,,,,,,,,,,,1,0,1,,352,16732,3000,-417,-1312,-1286
38.686,38.51,1.44,-1.74,1.13,-13.21,3.85,-5.07,9.12,1.27,2.59,874.00,2000.00,386.00,683.00,558.00,1675.00,1095.00,1493.00,,,,,,,,,,,,1,0,1,,428,16492,2764,-218,-1968,-2429
38.789,38.57,1.82,-1.84,4.48,-26.64,37.20,9.01,-5.65,7.08,-3.39,730.00,1835.00,81.00,475.00,961.00,1426.00,1362.00,1393.00,,,,,,,,,,,,1,0,1,,-376,15792,3696,-550,-1279,-2881
38.81,38.62,1.92,4.62,-3.18,21.52,-9.18,3.81,-3.38,1.72,-0.14,983.00,1746.00,415.00,245.00,934.00,1648.00,1259.00,1578.00,,,,,,,,,,,,1,0,1,,-1356,15188,3684,-412,-26,-1810
38.852,38.68,1.72,0.21,-0.01,7.79,-5.08,-2.11,2.99,1.42,1.73,897.00,1909.00,427.00,378.00,737.00,1756.00,1144.00,1519.00,,,,,,,,,,,,1,0,1,,-1308,15196,2960,309,-1582,1088
38.914,38.73,1.60,-1.04,1.94,-12.05,10.54,-0.66,3.43,3.23,-0.24,826.00,1904.00,263.00,545.00,701.00,1639.00,1232.00,1491.00,,,,,,,,,,,,1,0,1,,-244,15536,3412,1277,-2423,3255
38.975,38.79,2.03,-0.18,1.12,-10.54,20.04,10.32,-7.71,3.99,-1.22,850.00,1881.00,153.00,398.00,1049.00,1431.00,1281.00,1485.00,,,,,,,,,,,,1,0,1,,344,16024,3376,1666,-1868,3961
39.038,38.84,1.78,2.64,-2.08,40.50,-21.52,-3.04,0.73,-0.04,0.84,960.00,1833.00,573.00,161.00,847.00,1936.00,1233.00,1648.00,,,,,,,,,,,,1,0,1,,1616,16736,3164,1815,-865,2902
39.12,38.90,1.43,-1.24,0.56,-16.03,6.71,-5.15,9.08,1.79,1.26,893.00,1991.00,348.00,707.00,560.00,1682.00,1166.00,1516.00,,,,,,,,,,,,1,0,1,,1872,16804,2660,360,662,303
39.14,38.95,2.06,-1.13,3.41,-47.05,70.84,14.05,-10.06,7.08,-3.50,764.00,1837.00,19.00,432.00,1113.00,1315.00,1370.00,1397.00,,,,,,,,,,,,1,0,1,,1548,15852,1984,-302,1087,-927
39.182,39.01,1.87,6.86,-4.47,65.01,-31.60,-1.84,-0.10,-0.41,0.98,1012.00,1654.00,633.00,80.00,867.00,1888.00,1232.00,1666.00,,,,,,,,,,,,1,0,1,,1120,15804,1668,-206,-43,-512
39.224,39.06,1.54,-1.19,0.92,-11.30,3.16,-4.68,8.79,1.78,2.32,875.00,1968.00,387.00,645.00,564.00,1664.00,1101.00,1474.00,,,,,,,,,,,,1,0,1,,1024,15860,2780,-28,-285,321
39.287,39.12,1.86,-1.50,4.63,-15.61,20.69,7.99,-4.48,6.77,-3.04,720.00,1804.00,162.00,478.00,919.00,1439.00,1344.00,1397.00,,,,,,,,,,,,1,0,1,,1360,16352,2148,-258,-16,-318
39.349,39.17,2.02,4.84,-2.41,19.91,-7.10,4.93,-3.29,2.30,0.04,939.00,1695.00,382.00,247.00,911.00,1573.00,1234.00,1535.00,,,,,,,,,,,,1,0,2,,1084,16164,2504,-101,-203,-196
39.411,39.23,1.86,1.30,-0.02,11.23,-6.54,-1.19,2.46,1.87,1.39,880.00,1829.00,434.00,343.00,746.00,1718.00,1156.00,1506.00,,,,,,,,,,,,1,0,2,,1244,15900,2204,-101,-316,201
39.472,39.28,1.72,0.61,0.92,-9.48,6.34,-0.84,4.97,3.63,-0.18,847.00,1833.00,315.00,551.00,647.00,1584.00,1219.00,1465.00,,,,,,,,,,,,1,0,2,,1356,16096,2628,-166,-577,103
39.492,39.34,2.22,0.57,1.50,-12.29,22.80,11.80,-7.74,4.78,-1.47,821.00,1807.00,136.00,396.00,1023.00,1351.00,1280.00,1449.00,,,,,,,,,,,,1,0,2,,1316,16264,2640,15,-580,-99
39.574,39.39,2.00,4.73,-3.33,45.76,-24.59,-2.19,1.02,0.66,0.85,989.00,1745.00,615.00,142.00,821.00,1857.00,1217.00,1603.00,,,,,,,,,,,,1,0,2,,1100,16000,2948,175,-606,92
39.614,39.45,1.63,-0.93,0.73,-15.23,6.54,-5.51,10.89,1.93,1.69,880.00,1958.00,346.00,688.00,511.00,1625.00,1136.00,1490.00,,,,,,,,,,,,1,0,2,,1472,16288,2340,392,-616,-97
