Time_Host,Time_Arduino,easingdata,CH1_Oxy,CH1_Deoxy,CH2_Oxy,CH2_Deoxy,CH3_Oxy,CH3_Deoxy,CH4_Oxy,CH4_Deoxy,CH1_PD730,CH1_PD850,CH2_PD730,CH2_PD850,CH3_PD730,CH3_PD850,CH4_PD730,CH4_PD850,Answers,airplane_playstate,trail_times,frameRate,Airplane X,Airplane Y,Correct,Wrong,Slow,AnswerRate,CorrectRate,VFTstates,VFTchoose,VFTCount,Culfstates,ax,ay,az,gx,gy,gz
1.096,0.04,0.00,0.00,0.00,0.00,0.00,0.00,0.00,0.00,0.00,271.00,496.00,89.00,309.00,178.00,294.00,511.00,403.00,,,,,,,,,,,,0,1,0,,-5308,15300,80,47,21,-55
1.117,0.10,0.00,0.00,0.00,0.00,0.00,0.00,0.00,0.00,0.00,301.00,498.00,112.00,305.00,170.00,308.00,499.00,474.00,,,,,,,,,,,,0,1,0,,-5268,15336,-164,69,95,-83
1.138,0.15,0.00,0.00,0.00,0.00,0.00,0.00,0.00,0.00,0.00,272.00,553.00,94.00,323.00,165.00,298.00,464.00,442.00,,,,,,,,,,,,0,1,0,,-5208,15200,-176,177,128,-2
1.159,0.21,0.00,0.00,0.00,0.00,0.00,0.00,0.00,0.00,0.00,261.00,527.00,87.00,314.00,186.00,291.00,542.00,419.00,,,,,,,,,,,,0,1,0,,-5224,15424,-168,77,38,49
1.179,0.26,0.00,0.00,0.00,0.00,0.00,0.00,0.00,0.00,0.00,305.00,511.00,109.00,310.00,176.00,307.00,480.00,483.00,,,,,,,,,,,,0,1,0,,-5204,15460,-144,28,34,-75
1.201,1.05,0.00,0.00,0.00,0.00,0.00,0.00,0.00,0.00,0.00,279.00,549.00,100.00,333.00,161.00,301.00,482.00,432.00,,,,,,,,,,,,0,1,0,,-4468,15792,-944,1447,-263,715
1.221,1.11,0.00,0.00,0.00,0.00,0.00,0.00,0.00,0.00,0.00,255.00,507.00,83.00,309.00,176.00,289.00,533.00,437.00,,,,,,,,,,,,0,1,0,,-4372,15836,-976,1749,-367,227
1.263,1.16,0.00,0.00,0.00,0.00,0.00,0.00,0.00,0.00,0.00,273.00,487.00,97.00,297.00,174.00,295.00,465.00,459.00,,,,,,,,,,,,0,1,0,,-4300,15652,-1328,1807,-429,-312
1.304,1.22,0.00,0.00,0.00,0.00,0.00,0.00,0.00,0.00,0.00,274.00,511.00,105.00,314.00,152.00,304.00,496.00,422.00,,,,,,,,,,,,0,1,0,,-4416,15544,-1884,2092,-927,-563
1.408,1.27,0.00,0.00,0.00,0.00,0.00,0.00,0.00,0.00,0.00,246.00,524.00,82.00,309.00,167.00,288.00,496.00,450.00,,,,,,,,,,,,0,1,0,,-4444,15360,-1816,1977,-1643,-399
1.471,1.33,0.02,1.95,-0.54,2.07,-1.30,0.43,-0.20,0.86,-0.15,272.00,485.00,99.00,298.00,171.00,294.00,493.00,429.00,,,,,,,,,,,,0,1,0,,-4468,15468,-1956,1910,-2293,-580
1.491,1.38,-0.06,1.16,-1.33,2.46,-2.87,-1.68,0.95,-0.98,-0.19,288.00,511.00,107.00,306.00,167.00,310.00,511.00,462.00,,,,,,,,,,,,0,1,0,,-4636,15672,-2076,1389,-2487,-783
1.533,1.44,-0.11,-1.57,0.58,-0.85,-0.69,-0.98,0.28,-2.69,2.17,273.00,541.00,101.00,329.00,171.00,307.00,464.00,464.00,,,,,,,,,,,,0,1,0,,-4724,15364,-1788,1555,-2225,-474
1.595,1.49,-0.04,0.30,-0.05,-1.14,0.54,1.22,-2.60,3.01,-2.79,273.00,511.00,95.00,322.00,192.00,304.00,547.00,423.00,,,,,,,,,,,,0,1,0,,-4760,15444,-1916,1096,-1927,-388
1.656,1.55,-0.14,1.38,-2.58,3.02,-5.48,-1.95,0.28,-4.15,1.32,307.00,524.00,122.00,321.00,174.00,319.00,499.00,503.00,,,,,,,,,,,,0,1,0,,-4680,15072,-1624,374,-1124,123
1.697,1.60,-0.17,-2.47,0.41,-0.97,-2.39,-0.76,0.31,-0.92,0.94,280.00,563.00,111.00,346.00,170.00,304.00,480.00,447.00,,,,,,,,,,,,0,1,0,,-4800,15404,-1472,-678,-182,196
1.759,1.66,-0.09,-0.37,0.93,-0.17,0.41,1.47,-2.10,1.52,-2.15,262.00,511.00,94.00,311.00,186.00,297.00,543.00,441.00,,,,,,,,,,,,0,1,0,,-4524,15620,-1532,-647,762,505
1.822,1.71,-0.10,2.68,-1.78,3.67,-3.79,-0.26,-0.18,-2.31,1.53,287.00,487.00,110.00,299.00,173.00,302.00,477.00,465.00,,,,,,,,,,,,0,1,0,,-4536,15300,-1640,-466,1567,798
1.883,1.77,-0.18,0.30,-0.05,0.67,-0.83,-1.84,1.91,1.48,-0.54,273.00,511.00,99.00,311.00,159.00,304.00,498.00,423.00,,,,,,,,,,,,0,1,0,,-4324,15508,-2148,-598,1652,631
1.925,1.82,-0.13,-1.20,2.15,-1.29,1.59,0.79,-0.21,-1.30,0.28,249.00,511.00,90.00,315.00,170.00,290.00,501.00,462.00,,,,,,,,,,,,0,1,0,,-4328,15404,-2212,-1005,1568,353
2.009,1.88,-0.14,2.99,-1.23,2.01,-1.83,-0.29,-0.39,-0.82,1.98,277.00,474.00,102.00,303.00,175.00,304.00,453.00,433.00,,,,,,,,,,,,0,1,0,,-4152,15500,-2164,-1345,1099,527
2.135,1.93,-0.21,1.02,-0.89,1.93,-2.69,-1.54,1.35,-1.13,-0.14,282.00,508.00,107.00,311.00,163.00,305.00,511.00,464.00,,,,,,,,,,,,0,1,0,,-4144,15832,-1772,-1211,757,771
2.156,1.99,-0.26,-0.88,0.82,-0.39,-1.03,-1.24,1.02,-2.48,1.86,266.00,523.00,102.00,326.00,165.00,304.00,470.00,464.00,,,,,,,,,,,,0,1,0,,-4048,16336,-1808,-797,796,619
2.177,2.04,-0.23,0.42,-0.10,-0.26,-0.52,0.44,-1.45,3.38,-2.98,273.00,509.00,99.00,320.00,183.00,304.00,549.00,419.00,,,,,,,,,,,,0,1,0,,-3664,16196,-1908,-447,380,-226
2.198,2.10,-0.31,2.30,-2.71,2.82,-4.95,-1.87,0.04,-4.15,1.24,304.00,507.00,119.00,319.00,176.00,320.00,501.00,504.00,,,,,,,,,,,,0,1,0,,-3860,15808,-1664,-204,-116,-630
2.26,2.15,-0.35,-2.41,0.86,-0.78,-2.46,-1.17,0.56,-0.94,1.15,273.00,555.00,111.00,344.00,169.00,307.00,475.00,445.00,,,,,,,,,,,,0,1,0,,-4000,16052,-1908,-61,-447,-834
2.322,2.21,-0.23,-0.37,1.07,-0.80,0.62,2.02,-2.29,2.32,-2.56,260.00,509.00,94.00,317.00,186.00,292.00,547.00,432.00,,,,,,,,,,,,0,1,0,,-4176,15744,-1508,-309,-523,-718
2.363,2.26,-0.23,3.92,-2.83,3.52,-4.07,-0.21,0.13,-2.45,1.81,297.00,477.00,112.00,303.00,170.00,299.00,471.00,464.00,,,,,,,,,,,,0,1,0,,-4204,15584,-1396,-149,-485,-724
2.424,2.32,-0.28,1.03,-0.09,0.58,-1.17,-1.18,1.80,2.20,-0.71,270.00,497.00,101.00,315.00,158.00,297.00,496.00,413.00,,,,,,,,,,,,0,1,0,,-4372,15436,-1364,-227,-381,-609
2.506,2.37,-0.23,-0.82,2.70,-1.29,1.59,0.73,0.14,-0.29,0.02,240.00,496.00,90.00,315.00,167.00,288.00,499.00,447.00,,,,,,,,,,,,0,1,0,,-4548,15572,-1368,-285,-142,-482
2.527,2.43,-0.19,3.28,-0.85,0.92,-0.35,0.51,-0.44,0.23,0.52,270.00,464.00,96.00,304.00,173.00,295.00,481.00,432.00,,,,,,,,,,,,0,1,0,,-4540,15512,-1232,-290,62,-293
2.59,2.48,-0.25,1.34,-0.34,1.90,-3.36,-1.41,1.76,0.27,-0.39,272.00,494.00,111.00,317.00,159.00,300.00,505.00,442.00,,,,,,,,,,,,0,1,0,,-4392,15600,-1248,-286,137,-161
2.651,2.54,-0.27,-0.62,1.59,-1.34,0.03,-0.56,1.02,-2.19,1.92,254.00,507.00,98.00,329.00,163.00,296.00,466.00,458.00,,,,,,,,,,,,0,1,0,,-4404,15728,-1252,-275,248,-48
2.734,2.59,-0.19,1.54,-0.40,-0.43,-0.27,1.38,-1.97,3.91,-2.68,272.00,491.00,98.00,320.00,185.00,297.00,535.00,407.00,,,,,,,,,,,,0,1,0,,-4424,15692,-1412,-71,406,-210
2.755,2.65,-0.25,3.02,-2.95,3.41,-6.06,-1.49,0.66,-3.43,0.93,304.00,496.00,125.00,321.00,169.00,310.00,503.00,494.00,,,,,,,,,,,,0,1,0,,-4364,15596,-1484,29,261,-211
2.859,2.70,-0.28,-1.38,0.79,-1.86,-0.53,-0.72,0.62,-0.33,1.17,269.00,534.00,102.00,341.00,167.00,301.00,469.00,434.00,,,,,,,,,,,,0,1,0,,-4460,15904,-1604,128,229,-266
2.88,2.76,-0.13,0.36,0.97,-0.39,-0.10,2.58,-2.07,3.04,-2.22,258.00,496.00,97.00,318.00,182.00,284.00,530.00,416.00,,,,,,,,,,,,0,1,0,,-4460,15428,-1580,-38,200,-315
2.92,2.81,-0.12,4.24,-2.43,4.48,-4.23,0.12,0.90,-2.48,2.09,289.00,466.00,111.00,293.00,162.00,289.00,464.00,461.00,,,,,,,,,,,,0,1,0,,-4484,15532,-1340,-113,178,-180
2.982,2.87,-0.10,2.04,-0.37,1.41,-1.08,0.19,1.58,3.03,-0.65,269.00,481.00,99.00,304.00,156.00,283.00,487.00,399.00,,,,,,,,,,,,0,1,0,,-4376,15424,-1372,-87,257,-154
3.023,2.92,0.05,0.46,2.42,-2.04,4.01,3.01,-0.41,0.57,0.03,238.00,475.00,80.00,304.00,165.00,267.00,491.00,432.00,,,,,,,,,,,,0,1,0,,-4352,15580,-1540,-138,188,-192
3.065,2.98,0.11,4.10,-0.92,2.63,-0.73,1.20,0.09,0.32,0.92,267.00,450.00,95.00,287.00,166.00,283.00,470.00,426.00,,,,,,,,,,,,0,1,0,,-4396,15632,-1536,-186,-68,-308
3.126,3.03,0.06,2.42,-0.70,1.73,-0.43,-0.81,2.27,1.11,-0.34,272.00,478.00,95.00,295.00,153.00,289.00,496.00,427.00,,,,,,,,,,,,0,1,0,,-4404,15512,-1332,-142,-37,-156
3.229,3.09,0.11,-0.49,2.59,-1.77,3.24,1.09,0.92,-1.50,1.89,240.00,491.00,83.00,307.00,159.00,278.00,461.00,446.00,,,,,,,,,,,,0,1,0,,-4440,15600,-1532,-135,138,-193
3.249,3.14,0.24,1.70,0.45,0.16,0.90,2.62,-1.47,4.28,-2.50,259.00,477.00,91.00,303.00,176.00,279.00,526.00,399.00,,,,,,,,,,,,0,1,0,,-4504,15588,-1448,-115,131,-145
3.29,3.20,0.16,3.26,-2.48,3.78,-4.32,-1.43,1.43,-2.55,0.92,295.00,485.00,113.00,302.00,162.00,303.00,495.00,477.00,,,,,,,,,,,,0,1,0,,-4400,15488,-1552,-187,-53,-156
3.372,3.25,0.13,-1.26,1.02,5.18,-3.44,-0.28,1.62,-0.46,1.53,265.00,528.00,105.00,279.00,157.00,288.00,461.00,432.00,,,,,,,,,,,,0,1,0,,-4528,15644,-1220,-83,89,-22
3.393,3.31,0.30,0.87,0.58,-0.13,1.20,3.45,-1.75,3.69,-2.82,261.00,491.00,90.00,304.00,176.00,272.00,541.00,412.00,,,,,,,,,,,,0,1,0,,-4404,15480,-1392,-324,-15,-335
3.456,3.36,0.33,4.82,-3.13,4.83,-2.78,0.97,0.17,-1.90,1.90,297.00,464.00,102.00,278.00,166.00,285.00,464.00,453.00,,,,,,,,,,,,0,1,0,,-4484,15580,-1380,-309,-10,-145
3.516,3.42,0.32,2.50,-0.10,1.80,0.75,0.05,2.72,3.31,-0.40,263.00,469.00,89.00,285.00,147.00,276.00,478.00,392.00,,,,,,,,,,,,0,1,0,,-4416,15644,-1084,-52,140,-28
3.598,3.47,0.48,0.95,2.42,-0.51,4.69,3.48,-0.11,1.40,-0.33,236.00,466.00,75.00,281.00,161.00,260.00,493.00,422.00,,,,,,,,,,,,0,1,0,,-4460,15564,-1356,-19,264,-133
3.619,3.53,0.55,4.75,-0.79,2.04,2.41,1.90,-0.15,0.81,0.99,262.00,437.00,81.00,270.00,166.00,277.00,464.00,417.00,,,,,,,,,,,,0,1,0,,-4408,15712,-1468,14,89,-284
3.681,3.58,0.54,2.97,-0.89,2.85,0.40,0.37,2.12,1.73,-0.55,272.00,470.00,89.00,276.00,151.00,277.00,496.00,419.00,,,,,,,,,,,,0,1,0,,-4492,15624,-1424,-72,64,-158
3.743,3.64,0.61,0.39,2.22,-0.45,3.95,2.00,0.38,-1.38,2.13,241.00,479.00,78.00,286.00,161.00,272.00,454.00,441.00,,,,,,,,,,,,0,1,0,,-4320,15696,-1324,-113,20,-239
3.785,3.69,0.75,2.33,0.31,0.89,3.03,3.36,-1.61,4.14,-1.91,258.00,467.00,80.00,278.00,175.00,272.00,511.00,395.00,,,,,,,,,,,,0,1,0,,-4416,15512,-1380,-118,-46,-214
3.848,3.75,0.69,4.25,-2.69,4.83,-2.78,-0.43,1.20,-2.40,1.02,293.00,469.00,102.00,278.00,161.00,293.00,491.00,473.00,,,,,,,,,,,,0,1,0,,-4600,15656,-1408,-61,-46,-202
3.909,3.80,0.72,-0.43,1.02,-0.53,1.54,1.19,0.77,0.18,1.56,261.00,511.00,89.00,306.00,160.00,278.00,455.00,421.00,,,,,,,,,,,,0,1,0,,-4424,15516,-1260,-146,-20,-171
3.97,3.86,0.86,0.90,1.00,0.34,1.88,3.51,-1.98,3.84,-2.76,255.00,485.00,86.00,293.00,178.00,273.00,538.00,409.00,,,,,,,,,,,,0,1,0,,-4512,15516,-1308,-182,95,-94
4.011,3.91,0.81,4.36,-2.85,5.40,-4.03,-0.05,0.51,-2.87,2.03,295.00,469.00,108.00,281.00,166.00,294.00,469.00,469.00,,,,,,,,,,,,0,1,0,,-4468,15648,-1216,-175,70,-180
4.092,3.97,0.79,1.89,0.24,2.22,1.46,0.39,2.36,3.23,-0.37,261.00,476.00,85.00,275.00,149.00,275.00,478.00,393.00,,,,,,,,,,,,0,1,0,,-4560,15716,-1128,-282,189,-92
4.114,4.02,0.94,0.95,2.26,-0.09,5.56,3.89,-0.13,2.43,-1.94,238.00,468.00,71.00,270.00,160.00,256.00,528.00,423.00,,,,,,,,,,,,0,1,0,,-4380,15596,-1176,-95,384,40
4.175,4.08,1.04,4.84,-0.75,3.43,2.64,2.81,-0.67,0.67,1.28,261.00,435.00,78.00,254.00,168.00,271.00,458.00,416.00,,,,,,,,,,,,0,1,0,,-4428,15576,-1300,-62,312,-103
4.237,4.13,0.97,3.28,-0.85,2.33,2.54,-0.41,3.00,1.91,-0.46,270.00,464.00,80.00,266.00,146.00,279.00,492.00,415.00,,,,,,,,,,,,0,1,0,,-4356,15744,-1564,-77,111,-190
4.321,4.19,1.03,0.60,2.38,2.77,1.06,2.31,0.63,-0.57,1.53,238.00,473.00,86.00,272.00,158.00,267.00,462.00,434.00,,,,,,,,,,,,0,1,0,,-4508,15672,-1180,-268,-41,-95
4.343,4.24,1.14,2.94,-0.11,1.59,3.50,3.26,-1.47,4.69,-1.95,261.00,461.00,77.00,267.00,174.00,272.00,507.00,387.00,,,,,,,,,,,,0,1,0,,-4520,15700,-1068,-171,80,-167
4.385,4.30,1.07,4.11,-2.32,5.70,-2.15,-0.26,1.73,-1.77,0.81,288.00,467.00,97.00,264.00,156.00,287.00,491.00,464.00,,,,,,,,,,,,0,1,0,,-4512,15664,-1184,74,170,-219
4.447,4.35,1.08,-0.10,1.20,-0.15,2.48,1.15,1.37,-0.43,1.93,257.00,502.00,84.00,294.00,155.00,274.00,451.00,427.00,,,,,,,,,,,,0,1,0,,-4472,15548,-1268,54,15,-160
4.508,4.41,1.20,0.80,1.78,-0.32,4.14,3.51,-1.98,4.47,-3.15,245.00,477.00,77.00,283.00,178.00,273.00,543.00,403.00,,,,,,,,,,,,0,1,0,,-4416,15512,-1148,-93,80,-208
4.57,4.46,1.16,3.10,-2.55,5.70,-3.26,0.40,0.36,-3.01,2.15,297.00,489.00,103.00,272.00,166.00,290.00,467.00,470.00,,,,,,,,,,,,0,1,0,,-4480,15408,-1112,-121,216,-245
4.716,4.52,1.08,1.21,-0.29,0.41,1.64,-0.39,1.65,2.41,-0.29,272.00,496.00,87.00,294.00,157.00,289.00,483.00,405.00,,,,,,,,,,,,0,1,0,,-4404,15452,-1272,-42,245,-25
4.737,4.57,1.16,-0.62,2.63,-0.43,4.18,2.72,-0.53,0.42,-0.19,240.00,493.00,77.00,284.00,167.00,271.00,498.00,437.00,,,,,,,,,,,,0,1,0,,-4468,15568,-940,-223,16,-303
4.758,4.63,1.19,4.30,-1.06,3.15,2.04,1.63,0.40,0.30,1.20,268.00,448.00,81.00,261.00,162.00,276.00,463.00,423.00,,,,,,,,,,,,0,1,0,,-4412,15516,-1056,-191,107,-243
4.779,4.68,1.15,2.62,-0.83,3.20,0.70,0.45,1.73,1.30,-0.18,273.00,476.00,87.00,270.00,154.00,279.00,490.00,422.00,,,,,,,,,,,,0,1,0,,-4424,15704,-1300,4,189,-244
4.842,4.74,1.17,0.05,2.41,0.74,3.78,1.49,1.14,-0.43,1.40,240.00,483.00,77.00,274.00,156.00,272.00,464.00,433.00,,,,,,,,,,,,0,1,0,,-4460,15568,-1316,40,121,-212
4.905,4.79,1.28,2.64,-0.15,1.40,3.09,3.45,-1.75,3.89,-1.54,263.00,467.00,79.00,272.00,176.00,272.00,503.00,395.00,,,,,,,,,,,,0,1,0,,-4548,15600,-1372,-165,-84,-252
4.947,4.85,1.18,3.83,-2.23,-3.37,10.40,-0.78,1.09,-1.61,0.57,288.00,471.00,58.00,270.00,163.00,298.00,496.00,464.00,,,,,,,,,,,,0,1,0,,-4508,15592,-1076,-291,18,-242
5.009,4.90,1.19,-0.24,0.96,-0.21,2.94,1.49,0.33,-0.36,1.83,261.00,508.00,82.00,291.00,163.00,278.00,453.00,427.00,,,,,,,,,,,,0,1,0,,-4580,15632,-1012,-99,104,-258
5.072,4.96,1.29,1.56,0.49,-0.28,4.61,3.18,-1.76,4.08,-2.84,259.00,479.00,75.00,279.00,177.00,275.00,538.00,406.00,,,,,,,,,,,,0,1,0,,-4552,15580,-1180,-27,85,-246
5.134,5.01,1.21,4.68,-3.08,4.50,-2.31,-0.31,1.28,-3.08,2.18,297.00,466.00,100.00,278.00,160.00,291.00,467.00,471.00,,,,,,,,,,,,0,1,0,,-4544,15532,-1156,59,12,-164
5.155,5.07,1.12,0.70,0.08,0.89,1.06,-0.71,2.00,2.40,-0.36,269.00,501.00,89.00,293.00,155.00,290.00,485.00,406.00,,,,,,,,,,,,0,1,0,,-4652,15408,-1060,-37,119,-185
5.217,5.12,1.05,-0.22,1.82,-1.32,3.31,-0.21,2.44,0.56,-0.56,249.00,496.00,82.00,301.00,150.00,281.00,507.00,439.00,,,,,,,,,,,,0,1,0,,-4652,15512,-1176,-109,233,-186
5.3,5.18,1.05,2.70,-0.79,1.46,0.87,1.09,-0.53,-0.44,1.25,272.00,474.00,89.00,288.00,172.00,289.00,468.00,435.00,,,,,,,,,,,,0,1,0,,-4552,15764,-1452,-42,141,-213
5.342,5.23,0.92,1.71,-0.80,2.92,-0.63,-1.69,2.81,1.11,-0.34,277.00,493.00,94.00,283.00,151.00,295.00,496.00,427.00,,,,,,,,,,,,0,1,0,,-4520,15788,-1252,-45,288,-60
5.447,5.29,0.97,-0.75,2.83,-0.66,4.26,2.10,0.24,-1.03,1.61,238.00,493.00,77.00,286.00,162.00,272.00,464.00,441.00,,,,,,,,,,,,0,1,0,,-4412,15532,-1184,5,326,-68
5.468,5.34,1.06,1.63,0.47,1.52,2.36,2.73,-1.51,3.61,-1.59,259.00,478.00,82.00,276.00,176.00,278.00,507.00,400.00,,,,,,,,,,,,0,1,0,,-4428,15540,-1344,30,226,-194
5.489,5.40,0.95,3.24,-2.22,5.02,-2.67,-1.24,1.02,-1.75,0.62,291.00,482.00,101.00,275.00,165.00,304.00,496.00,466.00,,,,,,,,,,,,0,1,0,,-4492,15744,-1512,-34,50,-169
5.55,5.45,0.90,-1.01,0.87,-1.06,2.56,0.07,1.50,-0.46,1.53,266.00,525.00,85.00,304.00,157.00,285.00,461.00,432.00,,,,,,,,,,,,0,1,0,,-4484,15536,-1308,-193,70,-139
5.613,5.51,1.04,0.23,1.16,0.83,1.93,3.54,-2.30,4.31,-3.09,256.00,496.00,85.00,287.00,181.00,275.00,543.00,405.00,,,,,,,,,,,,0,1,0,,-4568,15612,-1044,-152,123,-161
5.655,5.56,0.96,3.92,-2.83,4.36,-2.62,-0.55,0.13,-3.46,2.34,297.00,477.00,102.00,282.00,171.00,303.00,466.00,476.00,,,,,,,,,,,,0,1,0,,-4568,15668,-1288,-31,103,-186
5.717,5.62,0.85,0.70,0.02,0.92,-0.35,-1.08,1.65,1.42,0.08,270.00,502.00,96.00,304.00,159.00,297.00,482.00,417.00,,,,,,,,,,,,0,1,0,,-4580,15524,-1216,47,27,-128
5.799,5.67,0.88,-0.61,2.18,-1.06,2.56,1.36,-0.40,0.26,-0.46,246.00,499.00,85.00,304.00,170.00,285.00,507.00,443.00,,,,,,,,,,,,0,1,0,,-4576,15580,-1328,-89,143,-150
5.82,5.73,0.85,2.60,-0.96,1.40,-0.32,0.23,-0.02,-0.86,1.20,275.00,478.00,95.00,298.00,170.00,295.00,473.00,443.00,,,,,,,,,,,,0,1,0,,-4488,15500,-1276,-172,152,-236
5.882,5.78,0.71,0.94,-1.00,1.31,-1.78,-1.94,2.06,0.23,-0.42,284.00,511.00,103.00,311.00,158.00,304.00,506.00,443.00,,,,,,,,,,,,0,1,0,,-4496,15468,-1272,-85,53,-94
5.944,5.84,0.66,-2.34,2.83,-1.64,2.33,-0.26,0.69,-1.82,1.36,245.00,525.00,87.00,313.00,165.00,295.00,477.00,458.00,,,,,,,,,,,,0,1,0,,-4560,15608,-1080,-164,-13,-250
6.005,5.89,0.77,1.21,-0.29,0.52,0.98,2.77,-1.83,3.42,-1.60,272.00,496.00,90.00,298.00,179.00,280.00,509.00,403.00,,,,,,,,,,,,0,1,0,,-4548,15548,-1028,-269,167,-208
6.067,5.95,0.70,2.77,-2.06,4.89,-4.20,-0.61,-0.28,-2.18,0.61,291.00,489.00,110.00,288.00,175.00,307.00,500.00,474.00,,,,,,,,,,,,0,1,0,,-4556,15628,-1164,54,261,-57
6.108,6.00,0.66,-1.50,1.38,-0.24,0.63,-0.01,0.83,-0.67,1.85,261.00,528.00,93.00,310.00,163.00,291.00,455.00,432.00,,,,,,,,,,,,0,1,0,,-4504,15624,-1224,60,221,-145
6.17,6.06,0.77,1.12,0.15,-1.39,3.80,2.78,-2.24,3.76,-3.01,266.00,492.00,80.00,298.00,183.00,283.00,546.00,413.00,,,,,,,,,,,,0,1,0,,-4524,15584,-1444,-48,122,-224
6.233,6.11,0.64,3.82,-2.92,4.70,-4.30,-1.86,1.57,-3.46,2.27,299.00,480.00,111.00,291.00,162.00,307.00,468.00,477.00,,,,,,,,,,,,0,1,0,,-4552,15520,-1192,-205,86,-151
6.275,6.17,0.61,0.24,0.10,-0.55,0.73,0.13,1.01,2.08,-0.26,271.00,510.00,93.00,313.00,161.00,288.00,485.00,410.00,,,,,,,,,,,,0,1,0,,-4520,15612,-1144,-103,101,-182
6.337,6.22,0.68,-1.01,2.69,-1.08,2.36,2.06,-1.17,0.41,-0.51,241.00,500.00,86.00,306.00,175.00,283.00,507.00,441.00,,,,,,,,,,,,0,1,0,,-4608,15644,-1268,-14,119,-174
6.379,6.28,0.66,2.63,-0.77,2.99,-2.17,0.18,-0.33,-1.08,1.35,272.00,475.00,102.00,294.00,173.00,298.00,471.00,445.00,,,,,,,,,,,,0,1,0,,-4508,15616,-1136,-21,26,-139
6.442,6.33,0.56,1.14,-0.94,1.51,-2.55,-1.32,1.39,0.63,-0.59,282.00,506.00,107.00,315.00,162.00,302.00,507.00,438.00,,,,,,,,,,,,0,1,0,,-4564,15600,-1032,-165,108,-196
6.565,6.39,0.57,-2.40,2.70,-1.97,0.62,0.74,-0.52,-1.57,1.24,247.00,528.00,96.00,332.00,173.00,293.00,478.00,455.00,,,,,,,,,,,,0,1,0,,-4500,15524,-1308,-123,174,-154
6.586,6.44,0.55,0.47,-0.31,0.08,-1.72,0.30,-1.00,2.65,-1.91,276.00,511.00,105.00,326.00,179.00,302.00,525.00,419.00,,,,,,,,,,,,0,1,0,,-4500,15724,-1288,-132,100,29
6.608,6.50,0.44,1.99,-2.55,2.29,-3.82,-1.68,0.95,-2.52,0.66,303.00,511.00,113.00,316.00,167.00,310.00,502.00,480.00,,,,,,,,,,,,0,1,0,,-4612,15484,-900,-268,186,-137
6.647,6.55,0.42,-1.45,0.81,-0.80,0.04,-0.05,0.51,-0.74,1.87,269.00,535.00,97.00,322.00,166.00,294.00,455.00,433.00,,,,,,,,,,,,0,1,0,,-4552,15576,-1040,-160,161,-126
6.708,6.61,0.52,0.42,0.95,-0.79,2.04,2.47,-2.44,3.94,-3.00,258.00,495.00,87.00,305.00,186.00,288.00,544.00,410.00,,,,,,,,,,,,0,1,0,,-4444,15712,-1172,51,149,-164
6.771,6.66,0.42,3.96,-2.96,3.42,-4.03,-1.44,1.31,-3.35,2.11,299.00,478.00,112.00,304.00,163.00,304.00,471.00,477.00,,,,,,,,,,,,0,1,0,,-4464,15540,-1308,-11,113,-190
6.834,6.72,0.32,0.68,-0.25,-0.60,-0.03,-1.60,2.30,1.99,-0.03,274.00,506.00,97.00,320.00,155.00,298.00,480.00,409.00,,,,,,,,,,,,0,1,0,,-4544,15500,-1116,-217,-11,-212
6.918,6.77,0.38,-0.42,1.89,-2.14,2.71,1.57,-0.58,0.51,-0.65,249.00,499.00,86.00,316.00,171.00,284.00,510.00,441.00,,,,,,,,,,,,0,1,0,,-4632,15540,-1028,-231,55,-191
6.939,6.83,0.39,3.32,-1.00,1.90,-1.80,0.53,-0.34,-1.14,1.53,272.00,465.00,102.00,304.00,172.00,294.00,467.00,444.00,,,,,,,,,,,,0,1,0,,-4532,15560,-1108,-104,26,-218
6.981,6.88,0.29,1.35,-0.88,0.33,-1.63,-1.72,2.10,-3.03,0.94,280.00,501.00,104.00,322.00,157.00,301.00,499.00,486.00,,,,,,,,,,,,0,1,0,,-4608,15508,-1144,-41,-31,-195
7.044,6.94,0.29,-1.33,2.34,-3.59,2.57,0.36,0.04,-1.74,1.41,247.00,511.00,89.00,336.00,169.00,293.00,475.00,456.00,,,,,,,,,,,,0,1,0,,-4700,15652,-1156,-89,93,-143
7.085,6.99,0.39,0.94,-0.34,-1.22,-0.93,2.34,-2.88,2.45,-1.34,274.00,502.00,103.00,336.00,191.00,293.00,511.00,416.00,,,,,,,,,,,,0,1,0,,-4596,15468,-1148,-169,125,-221
7.147,7.05,0.28,2.04,-2.63,1.66,-5.17,-1.87,0.04,-3.10,0.67,304.00,511.00,123.00,336.00,176.00,320.00,507.00,491.00,,,,,,,,,,,,0,1,0,,-4616,15488,-1080,-111,89,-112
7.21,7.10,0.23,-2.47,0.95,-1.74,-2.63,-0.76,0.31,-1.40,1.57,272.00,555.00,114.00,359.00,170.00,304.00,468.00,448.00,,,,,,,,,,,,0,1,0,,-4672,16020,-1240,-52,122,-202
7.273,7.16,0.32,0.57,0.13,-0.39,-1.03,2.07,-2.10,3.70,-2.92,269.00,503.00,102.00,326.00,184.00,290.00,544.00,413.00,,,,,,,,,,,,0,1,0,,-4508,15584,-1148,-202,198,-80
7.336,7.21,0.27,4.02,-3.29,1.90,-3.36,-0.66,0.17,-3.28,1.93,304.00,481.00,111.00,317.00,171.00,304.00,475.00,478.00,,,,,,,,,,,,0,1,0,,-4588,15576,-888,-92,304,17
7.377,7.27,0.23,0.31,0.08,-0.69,-0.93,-0.51,1.58,2.43,-0.22,271.00,509.00,102.00,329.00,158.00,291.00,481.00,404.00,,,,,,,,,,,,0,1,0,,-4452,15624,-1112,-64,328,-143
7.44,7.32,0.35,-0.16,1.72,-1.28,0.98,2.55,-1.23,0.73,-0.47,250.00,496.00,93.00,320.00,174.00,278.00,503.00,435.00,,,,,,,,,,,,0,1,0,,-4504,15668,-1288,-47,114,-69
7.501,7.38,0.37,3.34,-0.94,1.74,-1.92,0.88,-0.35,-0.59,1.22,271.00,464.00,103.00,307.00,171.00,290.00,470.00,438.00,,,,,,,,,,,,0,1,0,,-4616,15504,-1068,-171,46,-118
7.521,7.43,0.28,1.39,-0.56,3.42,-4.03,-1.48,2.62,0.92,-0.32,275.00,496.00,112.00,304.00,152.00,294.00,497.00,430.00,,,,,,,,,,,,0,1,0,,-4624,15592,-1084,-105,221,-133
7.583,7.49,0.34,-1.13,2.28,-3.05,1.77,1.49,-0.34,-1.40,1.57,247.00,508.00,92.00,336.00,169.00,283.00,468.00,448.00,,,,,,,,,,,,0,1,0,,-4432,15636,-1284,12,185,-143
7.646,7.54,0.39,1.28,-0.25,-0.16,-1.81,1.24,-1.00,3.90,-2.29,271.00,494.00,106.00,330.00,176.00,291.00,524.00,403.00,,,,,,,,,,,,0,1,0,,-4608,15556,-1280,-13,-28,-128
7.709,7.60,0.32,1.78,-2.17,2.34,-5.85,-0.90,0.03,-2.70,0.68,298.00,510.00,126.00,333.00,173.00,308.00,503.00,483.00,,,,,,,,,,,,0,1,0,,-4460,15612,-1044,-48,210,-153
7.749,7.65,0.29,-2.11,0.83,-0.82,-3.57,-0.26,0.69,-1.54,1.78,272.00,549.00,118.00,355.00,165.00,295.00,464.00,448.00,,,,,,,,,,,,0,1,0,,-4648,15392,-1152,-203,249,-168
7.811,7.71,0.37,0.24,0.04,-1.28,-1.61,1.91,-2.25,2.88,-2.95,272.00,511.00,107.00,343.00,186.00,293.00,553.00,427.00,,,,,,,,,,,,0,1,0,,-4344,15500,-1152,-109,141,9
7.852,7.76,0.27,2.81,-2.94,2.58,-6.65,-1.72,0.52,-4.16,2.07,305.00,500.00,131.00,337.00,171.00,314.00,479.00,493.00,,,,,,,,,,,,0,1,0,,-4536,15684,-1016,-167,67,-281
7.915,7.82,0.21,2.51,-3.32,0.24,-2.96,-0.86,1.58,1.93,-0.13,313.00,511.00,112.00,335.00,159.00,295.00,483.00,411.00,,,,,,,,,,,,0,1,0,,-4532,15636,-1112,-242,131,-212
8.019,7.87,0.35,-1.14,2.43,-3.00,2.37,2.86,-1.02,1.05,-0.69,245.00,506.00,89.00,330.00,171.00,273.00,506.00,432.00,,,,,,,,,,,,0,1,0,,-4388,15700,-1020,15,254,-77
8.04,7.93,0.52,3.40,-1.03,1.31,-1.78,3.81,-4.41,-0.47,1.38,272.00,464.00,103.00,311.00,202.00,288.00,465.00,434.00,,,,,,,,,,,,0,1,0,,-4412,15572,-1204,46,201,-196
8.102,7.98,0.43,1.21,-0.29,0.64,-2.43,-1.27,2.19,0.92,-0.32,272.00,496.00,108.00,325.00,155.00,295.00,497.00,430.00,,,,,,,,,,,,0,1,0,,-4620,15676,-1280,-55,-48,-279
8.144,8.04,0.47,-1.28,2.86,-3.31,2.27,1.34,0.16,-1.37,1.52,240.00,503.00,90.00,335.00,165.00,281.00,469.00,448.00,,,,,,,,,,,,0,1,0,,-4608,15600,-984,-147,81,-191
8.206,8.09,0.54,1.37,-0.07,0.34,-1.98,1.81,-1.19,2.84,-1.48,268.00,490.00,106.00,325.00,176.00,286.00,511.00,411.00,,,,,,,,,,,,0,1,0,,-4524,15600,-1136,-84,155,-228
8.268,8.15,0.47,2.49,-2.03,1.00,-3.87,-0.85,0.45,-2.63,0.65,292.00,494.00,116.00,333.00,169.00,304.00,503.00,482.00,,,,,,,,,,,,0,1,0,,-4584,15596,-1268,-21,22,-196
8.31,8.20,0.41,-1.08,0.55,-2.84,-0.38,-0.78,1.09,-0.88,1.56,271.00,531.00,103.00,353.00,163.00,298.00,464.00,439.00,,,,,,,,,,,,0,1,0,,-4632,15592,-1052,3,34,-135
8.371,8.26,0.50,0.63,0.04,-0.30,-2.28,2.22,-2.45,3.12,-2.96,270.00,503.00,109.00,336.00,187.00,291.00,551.00,423.00,,,,,,,,,,,,0,1,0,,-4588,15504,-1224,-80,175,-268
8.431,8.31,0.40,3.19,-3.13,2.01,-6.03,-1.49,0.66,-3.99,1.98,306.00,495.00,128.00,339.00,169.00,310.00,480.00,491.00,,,,,,,,,,,,0,1,0,,-4728,15588,-1244,-98,141,-109
8.494,8.37,0.31,-0.91,0.15,-1.65,-2.66,-1.33,1.28,1.05,-0.25,276.00,533.00,114.00,358.00,163.00,303.00,494.00,427.00,,,,,,,,,,,,0,1,0,,-4596,15752,-1204,-186,181,23
8.514,8.42,0.39,-1.51,1.74,-1.96,0.05,1.89,-0.80,0.39,-0.65,256.00,523.00,99.00,337.00,172.00,282.00,511.00,443.00,,,,,,,,,,,,0,1,0,,-4516,15468,-1112,-266,144,-133
8.577,8.48,0.40,3.38,-1.09,2.02,-3.06,0.45,-0.10,-1.00,1.48,273.00,465.00,109.00,313.00,170.00,293.00,467.00,442.00,,,,,,,,,,,,0,1,0,,-4656,15512,-920,-66,212,-86
8.639,8.53,0.33,1.33,-0.47,1.14,-2.94,-0.84,1.81,0.96,-0.55,274.00,496.00,110.00,323.00,157.00,293.00,503.00,432.00,,,,,,,,,,,,0,1,0,,-4564,15528,-976,70,313,-121
8.681,8.59,0.61,-1.01,2.77,-1.87,0.59,5.83,-6.07,-1.23,1.32,240.00,499.00,96.00,331.00,213.00,278.00,473.00,448.00,,,,,,,,,,,,0,1,0,,-4444,15408,-1156,97,60,-142
8.743,8.64,0.66,1.56,-0.27,0.08,-1.72,1.65,-1.35,3.06,-1.98,270.00,489.00,105.00,326.00,178.00,289.00,523.00,413.00,,,,,,,,,,,,0,1,0,,-4564,15512,-1012,-115,-24,-122
8.805,8.70,0.67,2.89,-2.54,3.54,-6.25,0.90,-2.49,-2.50,0.54,298.00,493.00,126.00,321.00,192.00,307.00,505.00,481.00,,,,,,,,,,,,0,1,0,,-4492,15516,-1024,-194,170,-164
8.866,8.75,0.65,-1.38,0.85,-0.92,-2.58,0.23,0.87,-1.28,1.73,268.00,533.00,112.00,347.00,162.00,288.00,463.00,444.00,,,,,,,,,,,,0,1,0,,-4544,15576,-1080,-119,145,-161
8.908,8.81,0.72,0.90,0.02,-0.45,-2.06,2.03,-1.79,3.36,-3.04,269.00,498.00,108.00,336.00,181.00,288.00,551.00,420.00,,,,,,,,,,,,0,1,0,,-4652,15640,-1224,-8,-6,-118
8.968,8.86,0.61,3.77,-3.39,2.82,-6.44,-1.40,0.52,-3.92,1.88,307.00,487.00,129.00,332.00,170.00,310.00,482.00,491.00,,,,,,,,,,,,0,1,0,,-4608,15612,-1044,-28,95,-124
9.03,8.92,0.50,0.75,-2.01,-1.48,-2.39,-1.73,1.99,0.91,-0.05,301.00,529.00,112.00,353.00,158.00,302.00,490.00,427.00,,,,,,,,,,,,0,1,0,,-4540,15584,-956,-100,262,-159
9.132,8.97,0.51,-1.38,1.63,-2.24,-0.94,0.69,-0.07,-0.31,-1.02,257.00,522.00,105.00,350.00,169.00,290.00,528.00,460.00,,,,,,,,,,,,0,1,0,,-4448,15496,-1312,-92,187,-21
9.153,9.03,0.46,2.13,-1.27,0.33,-3.00,-0.34,0.06,-1.39,1.14,282.00,491.00,112.00,334.00,171.00,301.00,479.00,453.00,,,,,,,,,,,,0,1,0,,-4620,15552,-888,-252,63,-130
9.174,9.08,0.38,1.44,-0.71,1.03,-3.23,-1.28,2.07,0.83,-0.62,277.00,497.00,112.00,327.00,156.00,296.00,506.00,435.00,,,,,,,,,,,,0,1,0,,-4484,15616,-820,-174,224,-222
9.236,9.14,0.40,-0.95,2.75,-2.29,1.32,0.79,0.56,-1.81,1.59,240.00,498.00,93.00,330.00,163.00,284.00,471.00,455.00,,,,,,,,,,,,0,1,0,,-4452,15632,-1040,40,251,-127
9.278,9.19,0.47,1.31,0.02,-0.23,-1.26,1.81,-1.19,2.69,-1.42,267.00,490.00,103.00,326.00,176.00,286.00,511.00,413.00,,,,,,,,,,,,0,1,0,,-4492,15604,-1096,0,160,-138
9.338,9.25,0.39,2.46,-2.21,2.41,-5.28,-1.04,-0.24,-2.44,0.30,295.00,497.00,122.00,327.00,176.00,312.00,511.00,483.00,,,,,,,,,,,,0,1,0,,-4472,15556,-988,-133,79,-202
9.421,9.30,0.36,-1.75,1.05,-2.03,-1.36,-0.22,1.02,-1.58,1.83,267.00,538.00,107.00,351.00,162.00,292.00,463.00,448.00,,,,,,,,,,,,0,1,0,,-4492,15572,-1068,-209,126,-186
9.484,9.36,0.45,0.72,0.35,-1.54,-0.46,2.17,-1.73,3.20,-2.99,265.00,497.00,101.00,336.00,180.00,286.00,551.00,422.00,,,,,,,,,,,,0,1,0,,-4612,15692,-1020,-84,69,-204
9.505,9.41,0.39,3.08,-2.98,2.81,-5.86,-0.77,0.20,-4.09,1.97,304.00,495.00,125.00,327.00,171.00,305.00,481.00,493.00,,,,,,,,,,,,0,1,0,,-4628,15736,-1168,-28,60,-242
9.568,9.47,0.31,-0.77,0.37,-1.38,-2.42,-1.18,1.80,1.00,-0.27,272.00,527.00,112.00,352.00,158.00,297.00,495.00,428.00,,,,,,,,,,,,0,1,0,,-4628,15632,-1048,-54,0,-262
9.63,9.52,0.38,-0.94,1.77,-2.97,0.02,1.69,-1.16,-0.63,-0.31,253.00,511.00,101.00,351.00,176.00,287.00,511.00,457.00,,,,,,,,,,,,0,1,0,,-4724,15492,-1244,-31,131,-140
9.671,9.58,0.33,2.11,-0.93,0.09,-3.08,-0.57,0.03,-2.21,1.46,277.00,487.00,113.00,338.00,172.00,304.00,478.00,464.00,,,,,,,,,,,,0,1,0,,-4672,15648,-1332,-167,228,-109
9.733,9.63,0.24,0.99,-1.08,-0.01,-2.72,-1.54,1.46,0.18,-0.51,285.00,511.00,111.00,336.00,162.00,304.00,509.00,445.00,,,,,,,,,,,,0,1,0,,-4588,15396,-824,-302,253,-67
9.776,9.69,0.26,-1.14,2.50,-1.90,0.41,0.56,0.64,-1.82,1.29,244.00,505.00,97.00,333.00,163.00,286.00,479.00,459.00,,,,,,,,,,,,0,1,0,,-4556,15460,-960,-135,241,-80
9.837,9.74,0.31,1.77,-0.27,0.07,-1.36,1.24,-1.00,2.51,-1.79,269.00,485.00,103.00,323.00,176.00,291.00,523.00,420.00,,,,,,,,,,,,0,1,0,,-4560,15612,-996,-57,258,-124
9.899,9.80,0.22,2.36,-1.99,2.20,-4.27,-1.46,0.99,-2.54,0.44,292.00,496.00,116.00,321.00,166.00,307.00,508.00,483.00,,,,,,,,,,,,0,1,0,,-4480,15580,-1220,-84,160,-87
9.962,9.85,0.22,-1.50,1.03,-1.64,-1.83,0.30,0.50,-1.61,1.80,266.00,533.00,109.00,350.00,165.00,290.00,464.00,449.00,,,,,,,,,,,,0,1,0,,-4540,15460,-840,-112,-9,-168
10.024,9.91,0.32,0.73,0.49,-1.27,0.39,2.26,-1.86,2.71,-2.79,263.00,495.00,96.00,325.00,181.00,286.00,550.00,428.00,,,,,,,,,,,,0,1,0,,-4596,15660,-884,-102,110,-142
10.084,9.96,0.23,3.62,-2.85,2.92,-5.45,-1.46,0.99,-4.22,1.94,299.00,483.00,122.00,322.00,166.00,307.00,483.00,496.00,,,,,,,,,,,,0,1,0,,-4556,15636,-1136,27,172,-155
10.105,10.02,0.16,-0.89,0.55,-0.50,-2.22,-1.20,1.58,0.66,0.15,270.00,527.00,109.00,338.00,160.00,299.00,487.00,429.00,,,,,,,,,,,,0,1,0,,-4600,15560,-1004,61,50,-151
10.209,10.07,0.21,-0.75,1.49,-1.63,-0.43,1.13,-0.33,-0.26,-0.93,256.00,511.00,101.00,337.00,170.00,287.00,525.00,458.00,,,,,,,,,,,,0,1,0,,-4644,15420,-816,-117,133,-136
10.229,10.13,0.17,2.44,-1.04,1.27,-3.48,-0.54,0.24,-2.00,1.38,277.00,482.00,113.00,326.00,170.00,302.00,478.00,461.00,,,,,,,,,,,,0,1,0,,-4620,15508,-1084,-104,289,-137
10.271,10.18,0.07,-0.01,-0.68,-0.58,-2.85,-1.95,1.94,-0.12,-0.48,284.00,526.00,113.00,345.00,159.00,305.00,511.00,450.00,,,,,,,,,,,,0,1,0,,-4588,15872,-1188,-148,116,-231
10.352,10.24,0.13,-2.27,2.66,-3.23,2.04,1.34,-0.50,-2.04,1.28,247.00,526.00,91.00,336.00,171.00,286.00,481.00,463.00,,,,,,,,,,,,0,1,0,,-4612,15608,-1056,-219,148,-9
10.415,10.29,0.20,1.82,-0.43,0.25,-0.69,1.58,-1.12,2.29,-1.29,271.00,486.00,99.00,315.00,176.00,288.00,511.00,418.00,,,,,,,,,,,,0,1,0,,-4508,15556,-872,-42,269,-37
10.435,10.35,0.13,2.32,-1.85,2.64,-4.10,-1.36,0.95,-2.70,0.53,290.00,495.00,114.00,314.00,166.00,306.00,507.00,485.00,,,,,,,,,,,,0,1,0,,-4448,15676,-1080,-21,252,-173
10.497,10.40,0.10,-1.14,0.84,-1.38,-0.69,-0.45,0.98,-1.32,1.71,267.00,528.00,102.00,336.00,163.00,295.00,464.00,445.00,,,,,,,,,,,,0,1,0,,-4496,15720,-1320,-6,55,-135
10.579,10.46,0.21,0.54,0.69,-1.38,1.01,2.39,-2.31,2.82,-2.86,261.00,496.00,93.00,321.00,185.00,288.00,551.00,427.00,,,,,,,,,,,,0,1,0,,-4648,15564,-792,-178,73,-157
10.6,10.51,0.14,3.79,-3.03,3.70,-4.93,-1.25,0.91,-4.19,2.05,301.00,482.00,117.00,308.00,166.00,305.00,480.00,494.00,,,,,,,,,,,,0,1,0,,-4544,15596,-1044,-186,192,-176
10.662,10.57,0.06,-1.01,0.80,-1.06,-1.16,-1.41,1.65,0.66,0.15,267.00,526.00,104.00,336.00,160.00,301.00,487.00,429.00,,,,,,,,,,,,0,1,0,,-4492,15664,-1180,-74,82,-184
10.725,10.62,0.15,-0.62,1.73,-1.97,0.62,1.77,-0.21,-0.34,-0.41,252.00,505.00,96.00,332.00,167.00,279.00,511.00,453.00,,,,,,,,,,,,0,1,0,,-4668,15556,-972,0,-7,-209
10.766,10.68,0.14,2.40,-0.83,1.74,-3.47,0.10,-0.09,-2.31,1.61,274.00,480.00,112.00,320.00,171.00,297.00,475.00,464.00,,,,,,,,,,,,0,1,0,,-4556,15584,-856,-47,132,-263
10.829,10.73,0.06,0.24,-0.76,0.04,-2.90,-1.54,1.46,0.32,-0.63,284.00,522.00,112.00,337.00,162.00,304.00,511.00,444.00,,,,,,,,,,,,0,1,0,,-4620,15424,-1024,-105,184,-192
10.891,10.79,0.05,-2.60,2.99,-3.04,0.98,-0.05,0.51,-2.29,1.10,244.00,528.00,96.00,343.00,166.00,294.00,488.00,470.00,,,,,,,,,,,,0,1,0,,-4588,15852,-1280,-141,109,-308
10.953,10.84,0.10,1.34,-0.34,-3.42,4.25,0.90,-0.89,2.21,-1.27,272.00,494.00,81.00,319.00,176.00,294.00,511.00,419.00,,,,,,,,,,,,0,1,0,,-4632,15720,-1032,-153,122,-119
10.994,10.90,0.04,4.00,-4.17,2.36,-3.68,-1.04,0.73,-2.50,0.39,319.00,493.00,112.00,314.00,167.00,304.00,509.00,483.00,,,,,,,,,,,,0,1,0,,-4512,15580,-892,23,235,-17
11.058,10.95,0.01,-1.38,1.20,-1.76,-0.01,-0.60,1.96,-1.32,1.71,263.00,528.00,99.00,335.00,155.00,289.00,464.00,445.00,,,,,,,,,,,,0,1,0,,-4540,15632,-1032,16,245,-175
11.119,11.01,0.12,0.48,0.79,-1.89,1.99,2.26,-1.86,3.28,-3.02,260.00,496.00,89.00,319.00,181.00,286.00,551.00,421.00,,,,,,,,,,,,0,1,0,,-4584,15684,-1144,-36,102,-134
11.162,11.06,0.04,3.74,-2.95,3.20,-4.93,-1.45,1.09,-4.10,2.21,300.00,482.00,118.00,314.00,165.00,306.00,475.00,490.00,,,,,,,,,,,,0,1,0,,-4568,15468,-964,-178,43,-143
11.224,11.12,0.01,-1.20,0.93,-1.34,0.03,-0.64,1.39,0.72,0.31,266.00,528.00,98.00,329.00,160.00,294.00,482.00,426.00,,,,,,,,,,,,0,1,0,,-4556,15596,-932,-164,151,-127
11.328,11.17,0.08,-0.81,2.47,-0.57,-0.41,1.45,-0.54,0.39,-1.15,243.00,499.00,99.00,323.00,171.00,285.00,525.00,449.00,,,,,,,,,,,,0,1,0,,-4568,15672,-1036,-2,144,-133
11.348,11.23,0.10,3.17,-1.02,1.36,-1.62,0.43,-0.20,-1.11,0.40,273.00,468.00,102.00,309.00,171.00,294.00,496.00,457.00,,,,,,,,,,,,0,1,0,,-4540,15660,-972,73,-9,-128
11.369,11.28,-0.05,1.17,-0.75,0.89,-2.34,-2.79,2.70,0.03,-0.46,279.00,503.00,107.00,321.00,155.00,309.00,509.00,447.00,,,,,,,,,,,,0,1,0,,-4724,15508,-936,-25,64,-178
11.432,11.34,-0.03,-2.55,3.28,-2.82,1.10,0.22,0.76,-2.04,1.21,240.00,523.00,95.00,339.00,163.00,289.00,483.00,464.00,,,,,,,,,,,,0,1,0,,-4624,15472,-1196,-116,249,-114
11.494,11.39,0.00,1.15,-0.27,0.48,-2.88,0.64,-1.01,1.29,-0.95,272.00,497.00,111.00,331.00,178.00,298.00,511.00,431.00,,,,,,,,,,,,0,1,0,,-4624,15520,-1080,-123,235,39
11.555,11.45,-0.07,2.35,-2.42,1.88,-3.68,-1.31,0.28,-2.98,0.48,299.00,502.00,113.00,320.00,172.00,311.00,511.00,491.00,,,,,,,,,,,,0,1,0,,-4664,15448,-908,-256,62,-151
11.596,11.50,-0.06,-1.38,0.99,-1.60,0.31,0.13,1.01,-1.79,1.98,266.00,531.00,97.00,330.00,161.00,288.00,461.00,450.00,,,,,,,,,,,,0,1,0,,-4536,15396,-800,-185,199,-139
11.688,11.56,0.05,0.80,0.54,-0.55,0.73,2.15,-1.83,3.80,-3.16,262.00,493.00,93.00,313.00,181.00,287.00,550.00,414.00,,,,,,,,,,,,0,1,0,,-4596,15572,-1080,-16,325,-142
11.748,11.61,-0.04,3.56,-2.77,3.31,-4.00,-1.83,2.02,-3.99,2.06,298.00,483.00,112.00,305.00,158.00,303.00,478.00,490.00,,,,,,,,,,,,0,1,0,,-4516,15680,-1260,48,132,-166
11.768,11.67,-0.06,-0.65,0.40,-0.43,-0.27,-0.38,1.77,1.29,0.01,271.00,524.00,98.00,320.00,156.00,288.00,485.00,420.00,,,,,,,,,,,,0,1,0,,-4496,15532,-848,-33,-76,-238
11.81,11.72,0.04,-0.22,1.82,-2.26,2.54,1.96,-0.50,0.81,-1.19,249.00,496.00,87.00,319.00,169.00,279.00,522.00,442.00,,,,,,,,,,,,0,1,0,,-4576,15544,-980,-175,82,-214
11.871,11.78,0.07,3.43,-1.24,1.25,-0.84,0.62,-0.48,-1.52,1.50,275.00,466.00,98.00,304.00,173.00,294.00,471.00,451.00,,,,,,,,,,,,0,1,0,,-4604,15600,-836,-104,117,-235
11.932,11.83,-0.00,0.88,-0.18,0.59,-1.89,-1.47,2.74,0.89,-0.71,272.00,501.00,105.00,321.00,151.00,293.00,508.00,435.00,,,,,,,,,,,,0,1,0,,-4668,15600,-1024,-80,-40,-174
11.995,11.89,0.05,-1.66,2.83,-3.08,2.61,1.10,0.23,-1.86,1.18,242.00,511.00,88.00,329.00,165.00,283.00,482.00,461.00,,,,,,,,,,,,0,1,0,,-4780,15528,-908,-109,74,-144
12.08,11.94,0.11,1.81,-0.49,-0.57,-0.41,1.17,-0.77,9.44,-3.70,272.00,487.00,99.00,323.00,174.00,290.00,511.00,336.00,,,,,,,,,,,,0,1,0,,-4656,15540,-992,-117,286,-136
12.1,12.00,0.02,1.90,-1.84,2.14,-4.41,-1.68,0.95,-2.44,0.30,292.00,503.00,117.00,323.00,167.00,310.00,511.00,483.00,,,,,,,,,,,,0,1,0,,-4624,15568,-1020,-57,318,34
12.141,12.05,-0.02,-1.81,0.86,-1.80,-0.73,-0.74,1.54,-1.90,1.90,270.00,542.00,103.00,342.00,159.00,294.00,464.00,453.00,,,,,,,,,,,,0,1,0,,-4584,15396,-656,-173,220,-46
12.204,12.11,0.14,1.00,0.47,0.11,0.12,3.10,-2.04,3.76,-3.01,262.00,490.00,95.00,310.00,180.00,278.00,546.00,413.00,,,,,,,,,,,,0,1,0,,-4448,15524,-796,-85,278,-110
12.265,12.16,0.07,4.32,-3.27,3.52,-4.07,-1.24,1.02,-3.76,1.94,302.00,475.00,112.00,303.00,165.00,304.00,479.00,487.00,,,,,,,,,,,,0,1,0,,-4384,15504,-1076,26,291,-141
12.327,12.22,0.03,-0.52,0.43,8.56,-14.11,-0.70,2.12,1.29,0.28,270.00,521.00,176.00,325.00,154.00,289.00,478.00,417.00,,,,,,,,,,,,0,1,0,,-4512,15508,-1148,-22,69,-130
12.409,12.27,0.10,-0.28,2.29,-2.41,3.24,1.55,-0.03,0.46,-0.68,243.00,491.00,84.00,315.00,166.00,280.00,511.00,442.00,,,,,,,,,,,,0,1,0,,-4624,15472,-912,-129,8,-241
12.43,12.33,0.14,3.34,-0.94,2.11,-1.87,0.74,0.24,-1.54,1.78,271.00,464.00,102.00,302.00,166.00,287.00,464.00,448.00,,,,,,,,,,,,0,1,0,,-4612,15668,-992,-182,162,-139
12.493,12.38,0.06,1.22,-0.23,0.42,-1.30,-1.37,2.34,1.12,-0.53,271.00,495.00,102.00,318.00,154.00,295.00,501.00,429.00,,,,,,,,,,,,0,1,0,,-4496,15684,-980,-13,121,-171
12.534,12.44,0.12,-0.88,2.65,-2.17,2.30,1.26,0.41,-1.46,1.17,241.00,498.00,88.00,320.00,163.00,280.00,479.00,454.00,,,,,,,,,,,,0,1,0,,-4640,15628,-1072,67,50,-211
12.595,12.49,0.19,2.92,-0.80,0.46,-0.76,1.46,-1.08,2.00,-0.87,271.00,470.00,99.00,313.00,176.00,289.00,502.00,418.00,,,,,,,,,,,,0,1,0,,-4616,15508,-772,10,60,-195
12.658,12.55,0.13,1.72,-1.20,1.53,-3.40,-0.98,0.28,-2.30,0.25,283.00,498.00,112.00,322.00,171.00,307.00,511.00,481.00,,,,,,,,,,,,0,1,0,,-4536,15476,-944,-151,132,-230
12.699,12.60,0.10,-1.75,0.98,3.24,-8.49,-0.55,1.13,-1.90,1.90,268.00,539.00,143.00,345.00,162.00,295.00,464.00,453.00,,,,,,,,,,,,0,1,0,,-4464,15392,-1016,-204,175,-96
12.781,12.66,0.22,0.07,0.57,-0.65,-0.76,2.56,-2.57,3.29,-3.12,265.00,507.00,101.00,327.00,187.00,288.00,554.00,422.00,,,,,,,,,,,,0,1,0,,-4528,15556,-936,-226,-24,-299
12.802,12.71,0.14,4.05,-3.18,3.48,-4.86,-1.44,1.31,1.48,0.18,302.00,479.00,117.00,310.00,163.00,304.00,479.00,415.00,,,,,,,,,,,,0,1,0,,-4592,15724,-832,-223,58,-203
12.863,12.77,0.12,-3.59,5.75,-1.04,-0.07,-0.13,1.92,1.58,0.30,214.00,510.00,98.00,326.00,154.00,284.00,475.00,412.00,,,,,,,,,,,,0,1,0,,-4576,15596,-844,17,279,-98
12.925,12.82,0.24,0.52,1.72,-1.08,2.36,2.40,-0.20,1.37,-0.98,247.00,483.00,86.00,306.00,165.00,272.00,511.00,430.00,,,,,,,,,,,,0,1,0,,-4512,15600,-1124,43,264,-234
12.988,12.88,0.28,3.94,-0.94,2.72,-1.89,1.14,0.45,-1.17,1.66,268.00,453.00,101.00,295.00,163.00,281.00,464.00,443.00,,,,,,,,,,,,0,1,0,,-4652,15540,-1120,16,6,-182
13.049,12.93,0.23,1.96,-0.41,0.78,-1.24,-0.81,2.27,1.72,-0.62,270.00,483.00,101.00,313.00,153.00,289.00,498.00,420.00,,,,,,,,,,,,0,1,0,,-4632,15508,-872,-119,53,-149
13.091,12.99,0.30,-0.49,2.59,-1.12,1.32,1.70,0.83,-0.91,1.02,240.00,491.00,91.00,315.00,158.00,272.00,478.00,446.00,,,,,,,,,,,,0,1,0,,-4572,15540,-924,-114,203,-167
13.152,13.04,0.42,3.63,-0.97,1.14,-0.80,2.62,-1.47,2.46,-0.91,270.00,459.00,98.00,305.00,176.00,279.00,499.00,411.00,,,,,,,,,,,,0,1,0,,-4608,15696,-1140,-23,50,-187
13.215,13.10,0.37,1.87,-0.58,3.20,-3.96,-0.48,0.77,-1.20,-0.12,273.00,487.00,112.00,306.00,165.00,297.00,511.00,465.00,,,,,,,,,,,,0,1,0,,-4724,15592,-884,-26,-49,-174
13.276,13.15,0.46,0.46,0.37,-0.55,-0.79,2.15,-1.31,-1.61,1.88,266.00,502.00,101.00,326.00,176.00,283.00,462.00,448.00,,,,,,,,,,,,0,1,0,,-4628,15540,-844,-71,187,-216
13.317,13.21,0.59,2.23,-1.95,-0.14,0.01,3.09,-1.63,3.79,-3.05,292.00,498.00,96.00,314.00,176.00,275.00,547.00,413.00,,,,,,,,,,,,0,1,0,,-4644,15440,-1064,-141,201,-118
13.399,13.26,0.50,3.68,-3.18,2.16,-4.10,-1.23,1.13,-3.36,1.35,304.00,486.00,115.00,320.00,164.00,303.00,491.00,487.00,,,,,,,,,,,,0,1,0,,-4544,15456,-1028,-128,153,27
13.42,13.32,0.49,-0.90,0.35,-0.97,-1.19,0.29,1.31,1.15,0.48,273.00,530.00,104.00,335.00,158.00,284.00,474.00,417.00,,,,,,,,,,,,0,1,0,,-4628,15396,-888,-180,164,-243
13.522,13.37,0.62,0.65,1.68,-0.17,1.01,3.03,-0.86,1.30,-0.89,247.00,481.00,91.00,306.00,169.00,270.00,509.00,430.00,,,,,,,,,,,,0,1,0,,-4640,15504,-952,-169,103,-137
13.542,13.43,0.66,4.41,-1.30,1.67,-0.21,1.49,0.33,-1.21,1.79,271.00,449.00,94.00,294.00,163.00,278.00,461.00,442.00,,,,,,,,,,,,0,1,0,,-4628,15668,-952,22,226,-110
13.604,13.48,0.58,2.20,-0.21,1.41,-1.08,-0.88,3.29,1.95,-0.51,266.00,476.00,99.00,304.00,145.00,282.00,493.00,415.00,,,,,,,,,,,,0,1,0,,-4528,15632,-1256,-51,146,-178
13.625,13.54,0.65,-0.84,3.49,-1.40,2.46,1.94,0.75,-0.62,0.92,230.00,486.00,86.00,309.00,158.00,270.00,478.00,442.00,,,,,,,,,,,,0,1,0,,-4524,15628,-1044,-100,-44,-225
13.687,13.59,0.75,2.92,0.99,1.38,0.08,2.60,-0.49,3.00,-0.79,246.00,448.00,93.00,295.00,167.00,272.00,491.00,401.00,,,,,,,,,,,,0,1,0,,-4560,15556,-936,-187,112,-183
13.749,13.65,0.73,3.05,-1.31,2.78,-2.98,0.46,0.79,-0.73,0.09,278.00,474.00,107.00,303.00,162.00,286.00,501.00,454.00,,,,,,,,,,,,0,1,0,,-4592,15596,-936,-100,139,-130
13.79,13.70,0.74,-0.68,1.39,-1.24,0.57,0.79,1.49,-1.12,1.92,257.00,511.00,95.00,323.00,155.00,277.00,457.00,439.00,,,,,,,,,,,,0,1,0,,-4580,15672,-1060,0,73,-205
13.892,13.76,0.90,1.66,0.04,-0.38,0.48,3.90,-2.00,4.31,-3.09,265.00,483.00,94.00,313.00,177.00,269.00,543.00,405.00,,,,,,,,,,,,0,1,0,,-4624,15464,-864,-53,58,-141
13.933,13.81,0.82,4.39,-3.30,3.59,-4.90,-0.60,0.70,-3.28,1.70,302.00,474.00,117.00,309.00,166.00,299.00,481.00,481.00,,,,,,,,,,,,0,1,0,,-4656,15528,-948,-184,168,-190
13.995,13.87,0.78,-0.88,0.82,-1.05,-0.62,0.07,1.50,1.24,0.26,266.00,523.00,101.00,331.00,157.00,285.00,479.00,418.00,,,,,,,,,,,,0,1,0,,-4496,15560,-1000,-205,125,-173
14.016,13.92,0.82,0.04,1.58,-0.66,0.18,1.58,0.87,0.91,-1.26,251.00,494.00,96.00,319.00,158.00,273.00,523.00,441.00,,,,,,,,,,,,0,1,0,,-4596,15444,-864,-21,99,-31
14.078,13.98,0.85,3.11,-0.93,1.58,-1.69,1.42,-0.09,-1.80,1.90,272.00,468.00,102.00,307.00,167.00,282.00,463.00,451.00,,,,,,,,,,,,0,1,0,,-4612,15436,-912,-119,13,-313
14.119,14.03,0.78,1.54,0.22,0.76,-0.49,-0.54,2.92,1.79,-0.46,263.00,483.00,97.00,307.00,147.00,281.00,493.00,417.00,,,,,,,,,,,,0,1,0,,-4712,15528,-792,-119,138,-237
14.182,14.09,0.88,0.05,2.72,-2.46,4.39,2.63,0.29,-0.42,0.97,236.00,479.00,79.00,306.00,160.00,266.00,475.00,438.00,,,,,,,,,,,,0,1,0,,-4480,15572,-892,77,253,-125
14.306,14.14,0.98,4.19,-0.81,1.83,-0.07,2.96,-0.05,2.45,-0.34,265.00,447.00,93.00,291.00,162.00,265.00,484.00,405.00,,,,,,,,,,,,0,1,0,,-4628,15568,-1136,4,86,-209
14.327,14.20,1.00,3.10,-1.00,3.04,-2.36,1.31,0.73,0.13,-0.34,273.00,469.00,103.00,295.00,160.00,277.00,505.00,444.00,,,,,,,,,,,,0,1,0,,-4652,15544,-1092,-145,-31,-200
14.348,14.25,0.98,-0.24,1.03,0.81,-0.31,0.58,1.80,-1.22,2.24,260.00,507.00,96.00,305.00,153.00,277.00,450.00,437.00,,,,,,,,,,,,0,1,0,,-4556,15548,-848,-299,142,-92
14.411,14.31,1.10,2.45,0.12,-3.62,2.17,3.45,-1.75,4.89,-3.01,260.00,467.00,91.00,340.00,176.00,272.00,535.00,395.00,,,,,,,,,,,,0,1,0,,-4560,15600,-888,-189,60,-178
14.473,14.36,1.05,3.06,-0.78,3.49,-3.89,0.12,0.90,-3.04,1.74,270.00,467.00,111.00,302.00,162.00,289.00,478.00,476.00,,,,,,,,,,,,0,1,0,,-4640,15544,-892,-24,-33,-173
14.515,14.42,1.07,0.12,0.35,-1.56,1.27,1.48,1.03,2.09,0.56,268.00,509.00,92.00,321.00,157.00,273.00,464.00,401.00,,,,,,,,,,,,0,1,0,,-4620,15544,-864,-65,-2,-179
14.617,14.47,1.15,0.98,1.20,-1.99,3.10,2.60,-0.49,1.65,-1.58,252.00,481.00,84.00,311.00,167.00,272.00,525.00,432.00,,,,,,,,,,,,0,1,0,,-4680,15512,-964,-86,144,-218
14.638,14.53,1.13,3.40,-1.03,1.25,-0.84,0.87,0.31,-2.05,1.95,272.00,464.00,98.00,304.00,165.00,285.00,464.00,455.00,,,,,,,,,,,,0,1,0,,-4696,15464,-884,-98,167,-110
14.7,14.58,1.06,1.34,-0.34,-0.03,-1.33,-0.33,2.47,2.16,-0.73,272.00,494.00,103.00,324.00,150.00,282.00,497.00,414.00,,,,,,,,,,,,0,1,0,,-4676,15568,-924,-117,212,43
14.761,14.64,1.15,-0.69,2.66,-2.63,3.09,2.90,0.31,-0.06,0.35,240.00,494.00,85.00,319.00,159.00,263.00,488.00,439.00,,,,,,,,,,,,0,1,0,,-4716,15528,-556,-305,232,-60
14.781,14.69,1.21,4.30,-1.06,1.66,0.19,2.20,0.09,1.96,-0.18,268.00,448.00,92.00,291.00,163.00,272.00,484.00,411.00,,,,,,,,,,,,0,1,0,,-4552,15548,-780,-98,291,-131
14.842,14.75,1.18,5.20,-3.69,2.72,-1.89,0.63,1.19,0.17,-0.58,304.00,464.00,101.00,295.00,158.00,281.00,511.00,446.00,,,,,,,,,,,,0,1,0,,-4480,15560,-968,67,296,-112
14.905,14.80,1.20,0.62,0.88,-0.49,1.11,1.65,1.33,-1.15,2.29,258.00,492.00,91.00,309.00,154.00,269.00,448.00,435.00,,,,,,,,,,,,0,1,0,,-4596,15576,-1004,87,197,-136
14.987,14.86,1.33,1.99,0.56,-1.62,3.64,3.69,-1.83,4.87,-2.80,256.00,470.00,81.00,302.00,176.00,270.00,529.00,393.00,,,,,,,,,,,,0,1,0,,-4552,15684,-900,81,70,-190
15.007,14.91,1.29,5.13,-3.66,4.44,-4.05,0.72,0.93,-2.74,1.52,304.00,465.00,110.00,292.00,160.00,282.00,481.00,473.00,,,,,,,,,,,,0,1,0,,-4648,15480,-1064,-29,162,-184
15.069,14.97,1.29,0.03,1.08,-1.79,1.96,1.28,1.45,0.96,0.94,258.00,501.00,89.00,318.00,154.00,272.00,464.00,415.00,,,,,,,,,,,,0,1,0,,-4604,15612,-948,-11,108,-186
15.129,15.02,1.42,0.79,1.70,8.26,-11.18,3.81,-1.44,2.62,-2.04,246.00,478.00,151.00,304.00,172.00,266.00,529.00,421.00,,,,,,,,,,,,0,1,0,,-4704,15492,-1088,49,18,-175
15.171,15.08,1.41,3.61,-1.10,0.96,-0.17,1.29,0.62,-2.12,2.05,272.00,461.00,95.00,302.00,161.00,278.00,462.00,455.00,,,,,,,,,,,,0,1,0,,-4668,15472,-940,4,134,-148
15.233,15.13,1.50,1.21,-0.29,0.17,-0.10,3.08,-2.94,2.52,-0.82,272.00,496.00,96.00,311.00,189.00,285.00,496.00,409.00,,,,,,,,,,,,0,1,0,,-4612,15560,-1012,-111,173,-226
15.358,15.19,1.56,-0.68,2.50,-2.08,3.35,2.83,-0.01,-0.66,0.48,242.00,496.00,83.00,310.00,162.00,266.00,490.00,448.00,,,,,,,,,,,,0,1,0,,-4692,15540,-1048,-113,114,-113
15.379,15.24,1.60,3.32,-1.00,0.94,-1.11,2.27,-0.82,0.68,-0.05,272.00,465.00,100.00,310.00,171.00,278.00,492.00,431.00,,,,,,,,,,,,0,1,0,,-4652,15956,-1140,-97,108,-128
15.421,15.30,1.56,2.58,-1.09,1.52,-0.74,0.87,1.11,0.05,-0.06,277.00,480.00,97.00,300.00,158.00,279.00,498.00,442.00,,,,,,,,,,,,0,1,0,,-4620,15708,-928,-232,173,-92
15.442,15.35,1.55,0.75,0.84,-1.25,2.85,1.39,1.29,-1.01,1.84,258.00,490.00,84.00,304.00,155.00,272.00,458.00,438.00,,,,,,,,,,,,0,1,0,,-4456,15576,-832,-7,233,-47
15.566,15.41,1.68,2.75,0.17,-0.21,2.94,4.06,-1.95,5.21,-2.91,258.00,461.00,82.00,291.00,176.00,267.00,529.00,389.00,,,,,,,,,,,,0,1,0,,-4580,15596,-824,-4,286,-99
15.587,15.46,1.58,4.62,-2.75,5.13,-3.77,-0.35,2.12,-2.84,1.51,292.00,463.00,107.00,282.00,153.00,285.00,482.00,475.00,,,,,,,,,,,,0,1,0,,-4556,15624,-1064,-35,176,-108
15.627,15.52,1.55,-0.29,1.55,-1.70,2.78,0.98,2.04,0.78,1.12,253.00,501.00,85.00,310.00,150.00,271.00,461.00,416.00,,,,,,,,,,,,0,1,0,,-4536,15520,-980,-72,112,-169
15.73,15.57,1.69,1.52,0.94,-0.35,2.77,4.43,-2.08,3.41,-2.31,253.00,474.00,83.00,294.00,176.00,264.00,529.00,411.00,,,,,,,,,,,,0,1,0,,-4608,15576,-876,-104,177,-125
15.751,15.63,1.71,4.16,-1.75,4.04,-2.15,2.00,0.38,-1.58,1.83,279.00,459.00,100.00,282.00,161.00,272.00,463.00,448.00,,,,,,,,,,,,0,1,0,,-4580,15656,-972,13,178,-167
15.791,15.68,1.65,2.00,-0.08,1.24,-0.46,0.63,2.28,2.92,-0.58,265.00,478.00,96.00,301.00,149.00,273.00,486.00,400.00,,,,,,,,,,,,0,1,0,,-4496,15588,-1004,59,70,-145
15.833,15.74,1.71,0.32,2.09,-0.95,2.53,2.73,0.14,0.01,-0.01,243.00,482.00,85.00,303.00,161.00,266.00,497.00,442.00,,,,,,,,,,,,0,1,0,,-4660,15592,-900,-37,155,-143
15.894,15.79,1.73,3.68,-1.12,1.85,-0.85,2.24,-0.37,0.49,0.39,272.00,460.00,97.00,297.00,167.00,275.00,482.00,429.00,,,,,,,,,,,,0,1,0,,-4552,15516,-968,-146,235,-202
15.957,15.85,1.62,1.53,-0.53,-0.10,-0.76,-0.60,1.96,0.16,-0.39,274.00,493.00,100.00,320.00,155.00,289.00,506.00,444.00,,,,,,,,,,,,0,1,0,,-4576,15452,-1044,-30,140,-88
15.998,15.90,1.60,-0.55,1.56,-0.43,-0.27,1.34,0.16,-2.20,1.61,254.00,506.00,98.00,320.00,165.00,281.00,474.00,462.00,,,,,,,,,,,,0,1,0,,-4612,15864,-1008,-100,114,-277
16.103,15.96,1.71,2.22,-0.63,0.85,0.87,3.69,-1.83,4.43,-2.61,272.00,481.00,90.00,295.00,176.00,270.00,528.00,398.00,,,,,,,,,,,,0,1,0,,-4604,15632,-988,-191,195,-155
16.124,16.01,1.66,4.32,-2.71,3.77,-3.31,0.71,0.82,-2.43,1.22,293.00,468.00,107.00,294.00,161.00,283.00,486.00,471.00,,,,,,,,,,,,0,1,0,,-4512,15532,-792,2,177,-37
16.164,16.07,1.60,-0.10,1.13,-1.77,3.24,0.53,2.56,0.70,1.15,258.00,503.00,83.00,307.00,147.00,272.00,461.00,417.00,,,,,,,,,,,,0,1,0,,-4472,15600,-984,-35,212,-159
16.227,16.12,1.78,2.14,0.59,-0.01,2.65,5.18,-2.33,4.21,-2.85,255.00,467.00,83.00,291.00,176.00,258.00,537.00,404.00,,,,,,,,,,,,0,1,0,,-4628,15580,-1192,-111,95,-122
16.289,16.18,1.78,5.15,-2.80,4.87,-3.51,1.86,0.32,-2.58,2.17,290.00,454.00,106.00,283.00,162.00,274.00,463.00,462.00,,,,,,,,,,,,0,1,0,,-4680,15512,-792,-145,61,-142
16.331,16.23,1.74,2.05,-0.23,1.03,0.60,0.84,1.96,2.75,-0.33,267.00,479.00,91.00,295.00,151.00,273.00,481.00,400.00,,,,,,,,,,,,0,1,0,,-4592,15520,-936,-158,158,-109
16.393,16.29,1.80,0.26,2.34,-1.06,3.68,3.05,0.38,0.30,-0.18,240.00,480.00,80.00,295.00,158.00,261.00,499.00,439.00,,,,,,,,,,,,0,1,0,,-4536,15596,-988,16,132,-172
16.454,16.34,1.80,4.07,-1.05,2.63,-0.34,1.78,0.57,-0.35,1.38,269.00,452.00,93.00,284.00,160.00,273.00,464.00,432.00,,,,,,,,,,,,0,1,0,,-4680,15600,-1088,-7,32,-184
16.495,16.40,1.65,2.22,-0.63,1.41,-1.08,-1.23,3.15,0.77,-0.45,272.00,481.00,99.00,304.00,147.00,287.00,502.00,434.00,,,,,,,,,,,,0,1,0,,-4608,15576,-944,-123,139,-170
16.557,16.45,1.61,-0.62,2.40,-2.50,3.49,0.76,1.27,-2.73,3.29,243.00,496.00,83.00,314.00,157.00,279.00,437.00,451.00,,,,,,,,,,,,0,1,0,,-4624,15616,-1112,-204,190,-206
16.619,16.51,1.68,1.50,-0.18,0.36,0.23,3.09,-1.63,4.33,-2.65,269.00,489.00,94.00,306.00,176.00,275.00,530.00,400.00,,,,,,,,,,,,0,1,0,,-4584,15724,-984,-87,42,-60
16.68,16.56,1.29,3.00,-2.70,3.27,-4.31,-6.03,2.41,-2.88,0.48,300.00,493.00,114.00,308.00,167.00,354.00,510.00,489.00,,,,,,,,,,,,0,1,0,,-4584,15868,-936,-138,126,-32
16.722,16.62,1.23,-1.44,1.01,-1.28,0.98,0.06,1.39,-0.46,1.46,266.00,532.00,93.00,320.00,158.00,286.00,463.00,433.00,,,,,,,,,,,,0,1,0,,-4560,15560,-800,-203,194,-187
16.868,16.67,1.29,1.37,0.77,0.30,1.68,2.47,0.11,4.62,-3.37,256.00,479.00,87.00,295.00,162.00,269.00,548.00,403.00,,,,,,,,,,,,0,1,0,,-4568,15520,-932,-53,170,-90
16.889,16.73,1.26,5.20,-2.88,5.87,-4.86,0.59,0.86,-3.21,2.22,291.00,454.00,112.00,282.00,161.00,284.00,467.00,473.00,,,,,,,,,,,,0,1,0,,-4428,15640,-988,22,235,-192
16.909,16.78,1.25,1.52,0.02,0.34,1.24,0.99,2.16,2.32,-0.34,266.00,486.00,89.00,298.00,149.00,270.00,485.00,407.00,,,,,,,,,,,,0,1,0,,-4540,15488,-1124,-50,125,-144
16.95,16.84,1.36,0.67,2.13,-1.51,3.61,3.56,-0.37,0.91,-0.57,241.00,475.00,81.00,301.00,163.00,261.00,504.00,433.00,,,,,,,,,,,,0,1,0,,-4616,15588,-880,-202,-74,-178
17.013,16.89,1.41,4.28,-1.19,2.63,-0.73,2.28,-0.16,-0.65,1.48,270.00,450.00,95.00,287.00,165.00,273.00,464.00,436.00,,,,,,,,,,,,0,1,0,,-4592,15532,-864,-224,66,-120
17.055,16.95,1.30,2.54,-0.88,1.47,-0.91,-0.67,2.71,1.42,-0.71,274.00,478.00,98.00,302.00,149.00,284.00,503.00,426.00,,,,,,,,,,,,0,1,0,,-4556,15632,-1016,-149,101,-143
17.119,17.00,1.34,-1.09,3.10,-1.27,2.64,2.06,0.71,-1.20,1.27,236.00,496.00,85.00,306.00,158.00,269.00,474.00,448.00,,,,,,,,,,,,0,1,0,,-4576,15576,-1020,-68,-3,-213
17.201,17.06,1.41,3.13,-0.80,0.62,0.34,2.73,-1.51,2.56,-1.24,270.00,466.00,93.00,302.00,176.00,278.00,507.00,413.00,,,,,,,,,,,,0,1,0,,-4712,15504,-840,-82,76,-201
17.221,17.11,1.28,2.64,-1.63,3.09,-3.93,-1.19,1.69,-1.89,0.12,285.00,486.00,112.00,307.00,159.00,298.00,511.00,475.00,,,,,,,,,,,,0,1,0,,-4580,15548,-916,-168,158,-236
17.263,17.17,1.30,-1.08,0.61,-2.00,0.44,1.67,-0.07,-1.68,1.99,270.00,530.00,97.00,334.00,166.00,279.00,460.00,448.00,,,,,,,,,,,,0,1,0,,-4652,15548,-892,-109,103,-147
17.326,17.22,1.36,0.91,0.15,-1.10,0.72,2.57,-1.66,3.16,-2.84,267.00,496.00,94.00,320.00,178.00,281.00,547.00,421.00,,,,,,,,,,,,0,1,0,,-4676,15780,-1024,-103,95,-8
17.387,17.28,1.27,3.64,-3.04,3.74,-4.63,-0.59,0.80,-3.42,1.44,302.00,485.00,115.00,305.00,165.00,298.00,489.00,487.00,,,,,,,,,,,,0,1,0,,-4652,15488,-644,-300,210,-123
17.45,17.33,1.23,0.13,0.48,0.04,0.34,0.61,2.04,1.99,-0.03,266.00,507.00,94.00,309.00,151.00,275.00,480.00,409.00,,,,,,,,,,,,0,1,0,,-4500,15536,-912,-346,104,-192
17.511,17.39,1.34,0.26,2.34,-0.65,2.21,3.35,-0.63,1.14,-0.90,240.00,480.00,86.00,302.00,166.00,265.00,511.00,433.00,,,,,,,,,,,,0,1,0,,-4592,15640,-800,-70,167,-95
17.553,17.44,1.31,3.90,-0.72,4.25,-1.66,0.72,0.93,-1.07,1.58,265.00,451.00,97.00,276.00,160.00,282.00,465.00,442.00,,,,,,,,,,,,0,1,0,,-4576,15544,-884,-6,213,-136
17.616,17.50,1.22,2.11,-0.32,1.13,-0.42,-0.45,2.39,1.98,-1.00,268.00,479.00,96.00,302.00,151.00,284.00,506.00,420.00,,,,,,,,,,,,0,1,0,,-4616,15488,-712,-68,105,-206
17.657,17.55,1.29,-0.49,2.98,-1.49,2.71,2.55,-0.14,-0.90,0.75,235.00,486.00,85.00,308.00,164.00,270.00,485.00,449.00,,,,,,,,,,,,0,1,0,,-4560,15504,-956,-142,111,-150
17.698,17.61,1.32,3.44,-0.77,0.99,0.41,1.92,-0.70,2.03,-0.73,268.00,460.00,92.00,297.00,171.00,281.00,498.00,416.00,,,,,,,,,,,,0,1,0,,-4552,15640,-1020,-94,112,-97
17.76,17.66,1.21,2.59,-1.49,0.79,-2.31,-0.88,1.24,-1.34,-0.07,283.00,485.00,107.00,322.00,162.00,298.00,511.00,467.00,,,,,,,,,,,,0,1,0,,-4604,15652,-844,-92,56,-131
17.821,17.72,1.18,-0.43,1.02,-1.17,-0.21,0.71,0.82,-1.76,1.85,261.00,511.00,99.00,329.00,161.00,283.00,464.00,451.00,,,,,,,,,,,,0,1,0,,-4548,15520,-808,-96,52,-164
17.925,17.77,1.27,1.49,-0.25,1.10,-2.41,2.89,-1.87,3.60,-3.22,270.00,490.00,107.00,319.00,179.00,279.00,554.00,418.00,,,,,,,,,,,,0,1,0,,-4640,15464,-784,-207,113,-173
17.946,17.83,1.20,3.75,-3.74,2.82,-4.95,-0.12,-0.01,-3.79,1.31,313.00,492.00,119.00,319.00,171.00,299.00,496.00,496.00,,,,,,,,,,,,0,1,0,,-4592,15484,-892,-143,182,-46
17.987,17.88,1.09,-1.57,0.64,-1.05,-1.52,-1.07,1.77,0.07,0.50,272.00,540.00,106.00,339.00,158.00,296.00,483.00,435.00,,,,,,,,,,,,0,1,0,,-4584,15496,-676,-195,45,-238
18.028,17.94,1.19,0.18,1.69,-1.49,2.71,3.08,-1.20,1.74,-1.71,249.00,490.00,85.00,308.00,172.00,272.00,528.00,432.00,,,,,,,,,,,,0,1,0,,-4620,15636,-680,-221,70,-117
18.09,17.99,0.86,3.61,-1.10,2.01,-1.10,-5.29,9.54,-2.41,2.07,272.00,461.00,98.00,297.00,112.00,284.00,464.00,460.00,,,,,,,,,,,,0,1,0,,-4528,15600,-752,105,315,-141
18.173,18.05,0.77,2.11,-0.39,0.66,-0.45,-1.01,2.71,2.27,-0.81,269.00,480.00,97.00,308.00,150.00,288.00,498.00,413.00,,,,,,,,,,,,0,1,0,,-4500,15544,-896,103,228,-206
18.193,18.10,0.84,-0.49,2.59,-2.79,4.27,2.23,0.20,-0.78,0.40,240.00,491.00,80.00,311.00,162.00,271.00,493.00,451.00,,,,,,,,,,,,0,1,0,,-4616,15644,-1024,22,6,-207
18.299,18.16,0.88,3.89,-0.78,2.01,-1.10,1.71,0.14,0.59,0.17,266.00,452.00,98.00,297.00,164.00,277.00,487.00,430.00,,,,,,,,,,,,0,1,0,,-4560,15556,-660,-87,136,-138
18.319,18.21,0.86,2.19,-0.82,2.67,-2.94,0.42,0.47,-0.50,-0.17,275.00,484.00,107.00,304.00,165.00,289.00,506.00,453.00,,,,,,,,,,,,0,1,0,,-4636,15604,-860,-23,193,-168
18.36,18.27,0.83,0.47,0.58,-0.29,-1.06,0.25,0.98,-2.44,2.04,263.00,499.00,102.00,325.00,161.00,287.00,465.00,461.00,,,,,,,,,,,,0,1,0,,-4644,15588,-956,-7,28,-163
18.422,18.32,0.92,1.27,0.31,-0.66,0.18,2.67,-2.20,3.79,-3.05,263.00,487.00,96.00,319.00,183.00,284.00,547.00,413.00,,,,,,,,,,,,0,1,0,,-4704,15600,-716,-12,104,-160
18.484,18.38,0.82,3.68,-3.18,2.37,-4.17,-1.03,0.84,-3.99,1.37,304.00,486.00,115.00,318.00,166.00,303.00,496.00,499.00,,,,,,,,,,,,0,1,0,,-4596,15452,-1012,-128,250,-163
18.526,18.43,0.75,-1.38,0.85,-0.35,-2.44,-0.74,1.65,-0.28,0.85,268.00,533.00,110.00,338.00,158.00,293.00,477.00,437.00,,,,,,,,,,,,0,1,0,,-4564,15424,-868,-87,252,-35
18.588,18.49,0.85,0.10,1.20,-1.51,0.86,2.73,-1.51,2.09,-2.48,256.00,498.00,94.00,324.00,176.00,278.00,547.00,435.00,,,,,,,,,,,,0,1,0,,-4600,15396,-724,-208,92,-159
18.671,18.54,0.89,3.62,-1.83,2.78,-2.98,1.77,-0.21,-2.45,1.81,283.00,470.00,107.00,303.00,167.00,279.00,471.00,464.00,,,,,,,,,,,,0,1,0,,-4616,15644,-740,-258,201,-110
18.754,18.60,0.85,1.96,-0.41,0.61,-0.62,0.03,2.48,2.44,-0.79,270.00,483.00,98.00,310.00,149.00,278.00,496.00,410.00,,,,,,,,,,,,0,1,0,,-4464,15540,-788,-3,312,-96
18.775,18.65,0.93,-0.02,2.66,-2.26,4.09,2.55,-0.14,-0.27,-0.10,237.00,481.00,80.00,306.00,164.00,270.00,502.00,448.00,,,,,,,,,,,,0,1,0,,-4520,15516,-952,-43,105,-177
18.796,18.71,0.98,4.29,-1.12,0.66,0.53,1.92,-0.70,0.40,0.27,269.00,449.00,92.00,300.00,171.00,281.00,486.00,432.00,,,,,,,,,,,,0,1,0,,-4492,15588,-804,-152,-69,-233
18.858,18.76,0.89,1.95,-0.54,1.58,-1.69,-0.79,2.63,0.47,-0.61,272.00,485.00,102.00,307.00,150.00,286.00,509.00,441.00,,,,,,,,,,,,0,1,0,,-4568,15692,-720,-202,128,-156
18.921,18.82,0.89,0.43,1.09,-1.00,0.69,0.82,0.78,-2.58,2.09,256.00,493.00,94.00,319.00,161.00,282.00,465.00,463.00,,,,,,,,,,,,0,1,0,,-4500,15640,-776,-81,89,-144
18.982,18.87,0.96,1.88,0.11,0.09,-0.45,2.33,-1.58,3.22,-2.49,263.00,478.00,98.00,315.00,178.00,283.00,536.00,416.00,,,,,,,,,,,,0,1,0,,-4612,15692,-856,0,79,-178
19.023,18.93,0.89,3.93,-3.08,3.44,-5.16,-0.50,0.55,-3.53,1.00,301.00,480.00,119.00,313.00,167.00,299.00,502.00,495.00,,,,,,,,,,,,0,1,0,,-4548,15588,-788,-7,116,-185
19.086,18.98,0.86,-1.81,1.63,-3.01,1.17,0.23,0.87,-0.92,1.45,259.00,531.00,95.00,341.00,162.00,288.00,467.00,441.00,,,,,,,,,,,,0,1,0,,-4620,15564,-700,-54,137,-139
19.148,19.04,0.95,0.10,1.35,-8.86,11.02,2.73,-2.43,2.49,-2.82,254.00,496.00,62.00,330.00,185.00,285.00,553.00,432.00,,,,,,,,,,,,0,1,0,,-4588,15668,-948,-145,185,-39
19.189,19.09,0.91,4.11,-2.95,3.09,-3.93,0.16,0.33,-3.73,2.04,298.00,475.00,112.00,307.00,167.00,293.00,476.00,485.00,,,,,,,,,,,,0,1,0,,-4648,15476,-624,-246,171,-174
19.273,19.15,0.87,1.07,0.45,-0.98,1.48,0.02,2.36,2.46,-0.72,262.00,489.00,90.00,312.00,150.00,279.00,494.00,409.00,,,,,,,,,,,,0,1,0,,-4668,15500,-680,-117,123,-94
19.294,19.20,0.96,0.26,2.42,-12.22,18.90,2.69,-0.07,-0.08,-0.13,239.00,479.00,43.00,305.00,163.00,268.00,501.00,445.00,,,,,,,,,,,,0,1,0,,-4548,15640,-772,30,224,-180
19.42,19.26,0.96,4.84,-1.51,0.99,-0.94,1.04,0.59,-0.97,1.35,272.00,444.00,99.00,308.00,162.00,281.00,470.00,443.00,,,,,,,,,,,,0,1,0,,-4444,15448,-936,-38,130,-175
19.441,19.31,0.86,2.49,-0.72,2.08,-2.91,-1.01,2.83,0.88,-0.53,272.00,477.00,108.00,311.00,149.00,287.00,503.00,433.00,,,,,,,,,,,,0,1,0,,-4600,15616,-696,-121,22,-190
19.483,19.37,0.95,-0.42,2.41,-3.72,4.58,2.60,-0.49,-1.95,1.64,242.00,492.00,80.00,320.00,167.00,272.00,471.00,457.00,,,,,,,,,,,,0,1,0,,-4580,15532,-680,-116,120,-196
19.544,19.42,1.02,2.74,-0.47,2.38,-2.14,2.38,-0.86,2.53,-1.37,267.00,469.00,103.00,301.00,171.00,277.00,511.00,415.00,,,,,,,,,,,,0,1,0,,-4592,15596,-764,24,109,-183
19.585,19.48,0.93,3.12,-2.12,3.03,-4.07,-0.77,1.20,-2.52,0.66,290.00,483.00,113.00,309.00,162.00,297.00,502.00,480.00,,,,,,,,,,,,0,1,0,,-4752,15644,-868,25,69,-168
19.648,19.53,0.88,-0.19,0.66,-1.32,-0.90,-0.17,1.46,-1.87,1.85,265.00,511.00,103.00,337.00,158.00,288.00,465.00,453.00,,,,,,,,,,,,0,1,0,,-4596,15548,-904,8,85,-238
19.71,19.59,1.00,1.45,0.04,-1.14,-0.04,3.36,-2.03,2.78,-2.98,266.00,487.00,98.00,327.00,179.00,275.00,555.00,429.00,,,,,,,,,,,,0,1,0,,-4588,15436,-712,-38,146,-136
19.773,19.64,0.89,3.95,-3.27,3.05,-5.64,-1.24,1.02,-4.22,1.94,304.00,482.00,123.00,322.00,165.00,304.00,483.00,496.00,,,,,,,,,,,,0,1,0,,-4624,15492,-912,-89,198,31
19.794,19.70,0.81,-0.95,0.57,-1.70,-0.22,-0.61,1.84,1.12,-0.01,270.00,528.00,100.00,336.00,156.00,290.00,487.00,423.00,,,,,,,,,,,,0,1,0,,-4624,15460,-648,-253,130,-136
19.857,19.75,0.92,0.65,1.53,-1.07,0.91,2.91,-0.26,0.81,-1.19,249.00,483.00,93.00,318.00,164.00,267.00,522.00,442.00,,,,,,,,,,,,0,1,0,,-4704,15432,-684,-128,183,-111
19.898,19.81,0.95,4.42,-1.24,1.41,-1.08,1.51,0.44,-1.32,1.71,270.00,448.00,99.00,304.00,162.00,277.00,464.00,445.00,,,,,,,,,,,,0,1,0,,-4528,15588,-772,41,280,-115
19.959,19.86,0.86,2.79,-0.62,0.42,-1.30,-0.90,2.67,0.97,-0.48,269.00,470.00,102.00,318.00,150.00,287.00,501.00,431.00,,,,,,,,,,,,0,1,0,,-4636,15640,-856,31,167,-126
20.022,19.92,0.94,-1.34,4.23,-3.82,4.61,2.50,-0.35,-1.18,0.92,223.00,486.00,80.00,321.00,166.00,272.00,483.00,452.00,,,,,,,,,,,,0,1,0,,-4704,15496,-816,-94,-38,-167
20.105,19.97,1.03,3.74,-0.80,0.34,-0.34,2.86,-1.02,2.27,-0.99,267.00,455.00,97.00,311.00,171.00,273.00,503.00,415.00,,,,,,,,,,,,0,1,0,,-4608,15468,-808,-155,77,-146
20.145,20.03,0.95,3.01,-1.56,1.44,-3.04,-0.55,1.13,-1.69,0.05,282.00,478.00,110.00,320.00,162.00,295.00,511.00,472.00,,,,,,,,,,,,0,1,0,,-4676,15696,-920,-136,104,-186
20.187,20.08,0.94,-0.19,0.66,-1.73,-0.39,0.58,0.75,-2.05,2.03,265.00,511.00,101.00,338.00,162.00,285.00,462.00,454.00,,,,,,,,,,,,0,1,0,,-4472,15524,-864,-85,-41,-156
20.227,20.14,1.01,1.47,0.31,5.99,-2.99,2.49,-1.94,3.52,-3.20,262.00,483.00,101.00,267.00,181.00,284.00,554.00,419.00,,,,,,,,,,,,0,1,0,,-4724,15600,-772,-139,-25,-153
20.289,20.19,0.90,4.23,-3.36,2.51,-5.76,-1.25,0.91,-3.99,1.37,304.00,478.00,125.00,330.00,166.00,305.00,496.00,499.00,,,,,,,,,,,,0,1,0,,-4680,15364,-628,-241,209,-94
20.351,20.25,0.85,-0.83,0.40,-1.49,-2.05,-0.21,1.13,-0.19,0.62,272.00,528.00,110.00,350.00,161.00,291.00,482.00,438.00,,,,,,,,,,,,0,1,0,,-4612,15748,-1036,-214,203,71
20.393,20.30,0.94,0.23,1.09,-2.19,0.51,2.81,-1.21,0.99,-1.70,257.00,497.00,97.00,336.00,173.00,275.00,535.00,445.00,,,,,,,,,,,,0,1,0,,-4680,15472,-504,-311,108,-18
20.499,20.36,0.95,3.54,-1.07,1.93,-2.69,1.13,-0.33,-2.00,1.38,272.00,462.00,107.00,311.00,170.00,287.00,478.00,461.00,,,,,,,,,,,,0,1,0,,-4500,15540,-588,-158,216,-111
20.519,20.41,0.88,1.65,-0.03,0.39,-2.17,-0.44,2.51,1.71,-0.88,266.00,484.00,107.00,326.00,150.00,283.00,505.00,423.00,,,,,,,,,,,,0,1,0,,-4556,15628,-844,-38,234,-145
20.56,20.47,1.10,-0.35,2.54,-2.34,1.74,5.28,-4.44,-0.82,0.38,240.00,489.00,91.00,327.00,197.00,272.00,494.00,452.00,,,,,,,,,,,,0,1,0,,-4536,15608,-732,51,104,-127
20.643,20.52,1.16,3.57,-0.40,0.78,-1.24,2.27,-1.35,0.73,-0.22,262.00,453.00,101.00,313.00,176.00,282.00,496.00,432.00,,,,,,,,,,,,0,1,0,,-4524,15584,-756,-61,96,-230
20.663,20.58,1.08,2.24,-0.98,1.74,-3.47,-0.45,0.98,-0.91,-0.21,277.00,485.00,112.00,320.00,163.00,295.00,511.00,461.00,,,,,,,,,,,,0,1,0,,-4680,15532,-608,-121,107,-238
20.725,20.63,1.07,0.78,0.26,-1.00,-1.36,0.91,0.53,-2.58,2.09,266.00,497.00,105.00,337.00,163.00,283.00,465.00,463.00,,,,,,,,,,,,0,1,0,,-4644,15560,-604,-51,38,-185
20.786,20.69,1.16,2.17,-0.48,-0.06,-1.85,2.83,-1.64,3.69,-3.09,270.00,480.00,106.00,329.00,177.00,278.00,549.00,415.00,,,,,,,,,,,,0,1,0,,-4604,15652,-636,0,73,-205
20.868,20.74,1.05,3.58,-3.02,1.98,-4.98,-1.04,0.73,-3.92,1.35,302.00,486.00,121.00,330.00,167.00,304.00,496.00,498.00,,,,,,,,,,,,0,1,0,,-4680,15496,-692,-33,127,-192
20.888,20.80,0.95,-1.32,0.97,-1.85,-2.26,-0.84,1.81,-0.54,0.90,266.00,530.00,112.00,357.00,157.00,293.00,478.00,441.00,,,,,,,,,,,,0,1,0,,-4680,15364,-664,-4,242,-162
20.949,20.85,1.02,0.61,0.67,-1.51,-0.83,2.17,-1.73,1.61,-2.45,261.00,495.00,103.00,339.00,180.00,286.00,551.00,443.00,,,,,,,,,,,,0,1,0,,-4612,15520,-852,-47,83,-309
21.013,20.91,1.00,4.32,-2.39,1.69,-3.29,0.79,-0.21,-2.97,2.10,288.00,464.00,111.00,319.00,170.00,290.00,468.00,470.00,,,,,,,,,,,,0,1,0,,-4696,15732,-656,-186,242,-69
21.053,20.96,0.90,1.73,0.02,-0.55,-0.79,-1.12,2.87,2.06,-0.59,265.00,482.00,101.00,326.00,149.00,288.00,494.00,414.00,,,,,,,,,,,,0,1,0,,-4640,15592,-660,-27,351,-122
21.115,21.02,0.95,-0.22,2.89,-3.16,3.05,2.00,0.38,-0.55,0.07,235.00,482.00,86.00,326.00,161.00,272.00,500.00,451.00,,,,,,,,,,,,0,1,0,,-4544,15484,-800,46,132,-170
21.177,21.07,0.96,3.87,-0.43,1.88,-2.50,1.18,-0.02,-0.08,0.47,261.00,448.00,106.00,310.00,167.00,284.00,485.00,438.00,,,,,,,,,,,,0,1,0,,-4656,15624,-952,-11,-68,-250
21.24,21.13,0.89,-1.02,0.32,1.74,-3.47,-0.62,1.62,-0.04,-0.43,274.00,533.00,112.00,320.00,158.00,292.00,509.00,448.00,,,,,,,,,,,,0,1,0,,-4596,15588,-852,-147,54,-174
21.282,21.18,0.88,-0.22,1.82,-1.28,-0.73,0.87,0.31,-2.34,1.66,249.00,496.00,102.00,335.00,165.00,285.00,474.00,464.00,,,,,,,,,,,,0,1,0,,-4644,15472,-636,-41,121,-161
21.364,21.24,0.95,2.37,-0.55,0.79,-1.96,2.24,-1.45,3.24,-2.59,270.00,477.00,105.00,319.00,177.00,283.00,539.00,417.00,,,,,,,,,,,,0,1,0,,-4612,15640,-732,-57,85,-176
21.426,21.29,0.92,3.95,-3.27,2.91,-5.89,0.23,-0.02,-3.53,0.85,304.00,482.00,125.00,326.00,170.00,295.00,506.00,497.00,,,,,,,,,,,,0,1,0,,-4668,15540,-736,-88,72,-158
21.447,21.35,0.87,-1.20,0.93,-1.85,-2.26,-0.09,1.09,-1.36,1.60,266.00,528.00,112.00,357.00,161.00,290.00,467.00,447.00,,,,,,,,,,,,0,1,0,,-4624,15364,-788,-119,131,-113
21.508,21.40,0.94,0.62,0.81,-1.41,-0.86,2.26,-1.86,2.52,-3.03,259.00,493.00,103.00,338.00,181.00,286.00,559.00,434.00,,,,,,,,,,,,0,1,0,,-4628,15488,-932,-117,212,3
21.59,21.46,0.82,3.75,-2.89,2.99,-5.32,-1.34,1.17,-5.20,2.27,299.00,481.00,121.00,320.00,164.00,304.00,483.00,511.00,,,,,,,,,,,,0,1,0,,-4604,15420,-616,-224,211,-120
21.611,21.51,0.78,2.11,-0.39,-0.55,-0.79,0.06,1.39,1.54,-0.45,269.00,480.00,101.00,326.00,158.00,286.00,495.00,421.00,,,,,,,,,,,,0,1,0,,-4664,15436,-632,-96,211,-104
21.672,21.57,0.87,0.39,2.53,-2.36,2.57,2.42,-0.10,0.07,-0.44,237.00,475.00,87.00,320.00,164.00,271.00,508.00,446.00,,,,,,,,,,,,0,1,0,,-4584,15540,-624,39,247,-129
21.715,21.62,0.73,4.15,-0.66,1.58,-1.32,-1.79,4.11,-1.05,1.22,263.00,446.00,100.00,304.00,141.00,286.00,474.00,446.00,,,,,,,,,,,,0,1,0,,-4520,15536,-956,-4,156,-118
21.777,21.68,0.73,2.41,-0.76,0.79,-1.60,0.75,-0.42,0.43,-0.37,273.00,479.00,103.00,316.00,172.00,292.00,503.00,439.00,,,,,,,,,,,,0,1,0,,-4620,15536,-776,-115,18,-202
21.84,21.73,0.76,-0.22,2.65,-2.42,1.97,1.29,0.62,-2.31,1.76,238.00,485.00,90.00,326.00,161.00,278.00,471.00,462.00,,,,,,,,,,,,0,1,0,,-4688,15532,-756,-147,132,-141
21.964,21.79,0.90,2.36,-0.06,-0.25,-0.89,3.45,-1.75,2.61,-1.40,263.00,471.00,101.00,323.00,176.00,272.00,511.00,414.00,,,,,,,,,,,,0,1,0,,-4708,15544,-872,-46,155,-123
21.983,21.84,0.79,3.68,-2.24,3.15,-5.68,-1.22,1.24,-2.44,0.30,289.00,474.00,123.00,321.00,163.00,302.00,511.00,483.00,,,,,,,,,,,,0,1,0,,-4640,15592,-808,5,101,-127
22.004,21.90,0.73,-0.06,0.48,-1.55,-1.00,-0.33,1.06,-1.77,1.70,267.00,511.00,104.00,341.00,162.00,293.00,468.00,453.00,,,,,,,,,,,,0,1,0,,-4736,15504,-768,-26,119,-177
22.066,21.95,0.82,1.27,0.31,-0.79,-0.89,2.42,-1.71,2.63,-2.76,263.00,487.00,102.00,330.00,179.00,283.00,550.00,429.00,,,,,,,,,,,,0,1,0,,-4736,15524,-600,-91,191,-141
22.129,22.01,0.73,4.36,-3.41,2.41,-5.28,-1.04,0.73,-4.28,1.66,304.00,476.00,122.00,327.00,167.00,304.00,491.00,501.00,,,,,,,,,,,,0,1,0,,-4732,15864,-1016,-122,198,-194
22.169,22.06,0.69,0.24,0.04,-0.46,-1.71,0.03,1.16,0.81,0.09,272.00,511.00,106.00,333.00,160.00,288.00,487.00,427.00,,,,,,,,,,,,0,1,0,,-4688,15676,-840,-246,142,-43
22.232,22.12,0.80,1.20,1.34,-2.53,3.06,2.79,-0.78,-4.67,0.62,249.00,475.00,85.00,318.00,169.00,272.00,523.00,523.00,,,,,,,,,,,,0,1,0,,-4548,15624,-424,-27,223,-19
22.293,22.17,0.83,5.21,-1.64,2.78,-1.73,1.42,-0.09,-1.84,1.80,272.00,439.00,100.00,293.00,167.00,282.00,466.00,453.00,,,,,,,,,,,,0,1,0,,-4544,15464,-776,-28,291,-153
22.334,22.23,0.77,2.87,-0.58,0.66,-0.45,-0.33,2.35,1.14,-0.39,268.00,468.00,97.00,308.00,151.00,283.00,497.00,427.00,,,,,,,,,,,,0,1,0,,-4556,15640,-952,-30,125,-100
22.395,22.28,0.83,0.19,2.36,-3.23,3.52,1.98,0.28,-1.04,0.79,240.00,481.00,84.00,323.00,162.00,273.00,485.00,451.00,,,,,,,,,,,,0,1,0,,-4508,15544,-668,-102,43,-215
22.458,22.34,0.84,4.13,-0.72,1.08,-0.59,1.03,-0.18,1.72,-0.81,264.00,447.00,97.00,304.00,169.00,287.00,503.00,422.00,,,,,,,,,,,,0,1,0,,-4568,15576,-568,-125,128,-139
22.5,22.39,0.80,2.96,-0.95,2.80,-3.49,0.01,0.05,-1.17,-0.56,273.00,471.00,110.00,307.00,170.00,297.00,523.00,470.00,,,,,,,,,,,,0,1,0,,-4572,15640,-680,9,185,-175
22.562,22.45,0.76,0.00,0.53,-2.10,0.47,0.03,1.16,-2.19,2.00,266.00,509.00,97.00,335.00,160.00,288.00,464.00,457.00,,,,,,,,,,,,0,1,0,,-4700,15588,-776,28,93,-165
22.603,22.50,0.76,1.95,0.08,-0.41,-0.66,0.74,0.24,3.39,-3.09,263.00,477.00,100.00,323.00,166.00,287.00,552.00,420.00,,,,,,,,,,,,0,1,0,,-4612,15492,-700,-45,126,-176
22.666,22.56,0.67,3.98,-3.16,2.68,-4.75,-0.96,0.49,-4.12,1.42,302.00,480.00,118.00,319.00,169.00,305.00,496.00,501.00,,,,,,,,,,,,0,1,0,,-4524,15460,-772,-35,255,-76
22.727,22.61,0.61,-0.58,0.38,-2.34,-0.37,-0.63,1.50,0.33,0.37,271.00,523.00,102.00,346.00,159.00,293.00,484.00,432.00,,,,,,,,,,,,0,1,0,,-4596,15604,-876,-136,283,30
22.768,22.67,0.66,0.44,1.31,-1.00,0.11,1.72,0.95,1.10,-1.70,253.00,490.00,97.00,324.00,157.00,271.00,534.00,443.00,,,,,,,,,,,,0,1,0,,-4728,15564,-664,-178,197,-159
22.81,22.72,0.64,4.05,-1.18,2.21,-2.26,0.25,0.98,-2.62,2.14,271.00,454.00,104.00,304.00,161.00,287.00,464.00,463.00,,,,,,,,,,,,0,1,0,,-4504,15496,-684,-100,192,-87
22.873,22.78,0.56,3.35,-1.68,-0.04,-0.03,-0.91,2.55,1.45,-0.50,282.00,473.00,96.00,313.00,151.00,288.00,497.00,423.00,,,,,,,,,,,,0,1,0,,-4608,15560,-864,27,245,-157
22.936,22.83,0.63,0.67,2.36,2.75,-4.14,1.90,0.53,-0.49,0.23,238.00,472.00,114.00,313.00,160.00,272.00,495.00,448.00,,,,,,,,,,,,0,1,0,,-4504,15660,-992,18,100,-200
22.976,22.89,0.68,4.16,-0.59,1.13,-0.42,1.66,-0.72,0.82,-0.17,262.00,445.00,96.00,302.00,172.00,284.00,494.00,430.00,,,,,,,,,,,,0,1,0,,-4640,15532,-784,-105,-55,-243
23.081,22.94,0.61,3.35,-1.28,1.62,-2.24,-0.77,1.20,-0.91,-0.21,276.00,468.00,105.00,311.00,162.00,297.00,511.00,461.00,,,,,,,,,,,,0,1,0,,-4480,15568,-908,-180,105,-159
23.102,23.00,0.58,0.87,0.58,-1.30,0.21,-0.07,1.31,-2.90,2.89,261.00,491.00,97.00,327.00,159.00,288.00,448.00,459.00,,,,,,,,,,,,0,1,0,,-4520,15548,-908,-37,160,-112
23.163,23.05,0.65,2.34,-0.26,-1.43,1.43,2.13,-1.41,3.85,-2.87,266.00,474.00,91.00,318.00,177.00,284.00,541.00,410.00,,,,,,,,,,,,0,1,0,,-4568,15600,-868,17,13,-200
23.203,23.11,0.60,4.05,-2.87,2.61,-4.41,-0.42,0.30,-3.50,1.02,297.00,475.00,116.00,317.00,169.00,300.00,501.00,494.00,,,,,,,,,,,,0,1,0,,-4596,15536,-660,-49,88,-131
23.267,23.16,0.64,-0.12,0.57,-1.86,-0.53,1.42,-1.27,-0.42,0.97,266.00,511.00,102.00,341.00,178.00,291.00,475.00,438.00,,,,,,,,,,,,0,1,0,,-4656,15552,-752,-166,206,-154
23.327,23.22,0.69,0.64,1.31,-3.94,3.75,1.67,-1.25,1.55,-2.37,252.00,486.00,84.00,330.00,177.00,288.00,549.00,443.00,,,,,,,,,,,,0,1,0,,-4524,15456,-676,-118,96,-143
23.369,23.27,0.67,3.40,-1.83,0.59,-2.58,0.29,0.40,-3.01,1.61,284.00,474.00,109.00,327.00,166.00,291.00,481.00,477.00,,,,,,,,,,,,0,1,0,,-4836,16000,-1004,-180,-6,-185
23.452,23.33,0.59,1.54,-0.40,0.28,-1.43,-0.95,1.84,1.27,-0.58,272.00,491.00,103.00,321.00,157.00,294.00,501.00,427.00,,,,,,,,,,,,0,1,0,,-4640,15612,-656,-290,180,-34
23.494,23.38,0.67,0.67,2.20,-2.19,3.38,2.26,-0.27,-0.62,0.09,240.00,474.00,83.00,311.00,166.00,274.00,500.00,452.00,,,,,,,,,,,,0,1,0,,-4672,15488,-672,-78,310,-40
23.554,23.44,0.69,4.64,-1.31,1.90,-1.80,1.03,-0.18,-0.03,0.64,270.00,445.00,102.00,304.00,169.00,287.00,480.00,435.00,,,,,,,,,,,,0,1,0,,-4556,15660,-824,-26,213,-110
23.594,23.49,0.62,3.18,-0.96,1.10,-2.06,-0.73,1.77,-0.31,-0.13,272.00,467.00,105.00,316.00,157.00,292.00,503.00,449.00,,,,,,,,,,,,0,1,0,,-4528,15672,-984,-95,71,-100
23.635,23.55,0.64,0.25,1.81,-2.36,1.54,1.07,0.02,-0.21,1.17,247.00,487.00,92.00,329.00,167.00,285.00,468.00,432.00,,,,,,,,,,,,0,1,0,,-4588,15580,-668,-245,57,-138
23.697,23.60,0.73,2.38,0.08,-0.49,-0.06,2.36,-1.48,3.22,-2.21,261.00,469.00,97.00,319.00,177.00,282.00,528.00,413.00,,,,,,,,,,,,0,1,0,,-4456,15552,-812,-90,96,-200
23.76,23.66,0.61,4.34,-3.22,2.04,-4.38,-1.64,1.61,-3.50,0.88,301.00,474.00,117.00,324.00,161.00,304.00,505.00,496.00,,,,,,,,,,,,0,1,0,,-4564,15616,-732,-31,68,-185
23.802,23.71,0.57,-0.31,0.84,-2.34,-0.37,-0.18,1.35,-1.47,1.76,263.00,511.00,102.00,346.00,159.00,289.00,464.00,447.00,,,,,,,,,,,,0,1,0,,-4548,15568,-700,-21,74,-185
23.863,23.77,0.69,1.29,0.66,-1.57,-0.08,2.90,-2.68,2.61,-2.99,258.00,482.00,99.00,333.00,187.00,285.00,557.00,432.00,,,,,,,,,,,,0,1,0,,-4724,15488,-688,-78,163,-224
23.925,23.82,0.62,4.66,-3.44,1.34,-4.14,-0.77,0.20,-4.29,2.12,303.00,471.00,117.00,331.00,171.00,305.00,479.00,495.00,,,,,,,,,,,,0,1,0,,-4668,15584,-824,-137,139,-203
23.967,23.88,0.52,1.08,-0.25,-0.73,-2.31,-1.22,1.24,0.90,-0.39,272.00,498.00,110.00,342.00,163.00,302.00,499.00,431.00,,,,,,,,,,,,0,1,0,,-4756,15876,-1132,-200,97,-131
24.049,23.93,0.58,0.05,1.95,-2.11,1.06,1.70,-0.52,-0.27,-0.43,246.00,489.00,94.00,330.00,170.00,282.00,511.00,452.00,,,,,,,,,,,,0,1,0,,-4588,15608,-556,-226,233,-84
24.11,23.99,0.64,5.56,-1.55,2.52,-2.72,1.72,-0.42,-1.20,1.27,269.00,432.00,106.00,304.00,169.00,281.00,474.00,448.00,,,,,,,,,,,,0,1,0,,-4512,15464,-432,-29,283,-130
24.173,24.04,0.53,3.04,-0.91,1.59,-3.25,-1.58,2.77,0.46,-0.42,272.00,469.00,111.00,320.00,151.00,294.00,504.00,439.00,,,,,,,,,,,,0,1,0,,-4588,15648,-820,48,246,-195
24.194,24.10,0.56,-0.15,2.48,1.06,-3.73,1.22,0.20,-1.75,1.26,240.00,486.00,115.00,331.00,165.00,282.00,479.00,458.00,,,,,,,,,,,,0,1,0,,-4556,15736,-876,54,65,-217
24.256,24.15,0.63,2.76,-0.33,-0.39,-1.03,1.81,-1.19,2.14,-1.24,265.00,467.00,102.00,326.00,176.00,286.00,511.00,420.00,,,,,,,,,,,,0,1,0,,-4536,15416,-820,-74,62,-196
24.298,24.21,0.55,3.62,-2.16,2.06,-4.07,-0.95,0.59,-2.70,0.68,288.00,474.00,115.00,321.00,168.00,304.00,503.00,483.00,,,,,,,,,,,,0,1,0,,-4600,15648,-640,-70,119,-214
24.361,24.26,0.53,0.13,0.48,-7.79,7.14,0.13,1.01,-1.61,1.80,266.00,507.00,75.00,351.00,161.00,288.00,464.00,449.00,,,,,,,,,,,,0,1,0,,-4736,15616,-896,-19,127,-175
24.424,24.32,0.58,1.37,0.77,-3.21,2.23,1.67,-1.77,3.27,-3.18,256.00,479.00,90.00,334.00,182.00,292.00,556.00,423.00,,,,,,,,,,,,0,1,0,,-4596,15600,-668,29,48,-191
24.548,24.37,0.50,4.45,-3.37,2.45,-5.44,-1.04,0.73,-4.26,1.99,303.00,474.00,123.00,328.00,167.00,304.00,482.00,496.00,,,,,,,,,,,,0,1,0,,-4752,15568,-736,-92,86,-238
24.569,24.43,0.53,0.24,0.04,-1.75,-2.29,1.11,-1.06,0.57,0.03,272.00,511.00,112.00,356.00,177.00,293.00,491.00,432.00,,,,,,,,,,,,0,1,0,,-4664,15560,-748,-129,183,-154
24.589,24.48,0.60,0.56,1.05,-1.83,-0.36,1.81,-1.19,0.05,-1.14,256.00,491.00,101.00,339.00,176.00,286.00,528.00,455.00,,,,,,,,,,,,0,1,0,,-4724,15700,-916,-151,76,-270
24.652,24.54,0.61,4.07,-1.46,2.25,-3.64,0.87,-0.45,-1.67,1.39,275.00,457.00,112.00,315.00,172.00,291.00,475.00,455.00,,,,,,,,,,,,0,1,0,,-4616,15600,-644,-235,122,-30
24.692,24.59,0.51,2.71,-0.73,0.89,-2.68,-1.35,2.94,1.06,-0.44,271.00,473.00,109.00,324.00,149.00,290.00,499.00,429.00,,,,,,,,,,,,0,1,0,,-4604,15504,-616,-112,308,-55
24.754,24.65,0.60,0.46,2.42,-3.10,2.40,2.30,-0.06,-1.47,1.09,238.00,475.00,89.00,331.00,164.00,272.00,481.00,455.00,,,,,,,,,,,,0,1,0,,-4524,15628,-724,-43,228,-162
24.796,24.70,0.68,4.33,-0.93,0.37,-1.10,2.27,-1.35,1.81,-0.58,266.00,446.00,101.00,317.00,176.00,282.00,496.00,418.00,,,,,,,,,,,,0,1,0,,-4552,15672,-872,-17,57,-72
24.859,24.76,0.65,3.75,-1.55,0.79,-2.65,-0.05,0.51,-1.13,-0.14,278.00,464.00,109.00,325.00,166.00,294.00,511.00,464.00,,,,,,,,,,,,0,1,0,,-4620,15564,-640,-157,88,-150
24.9,24.81,0.67,0.41,0.81,-1.77,-1.10,1.04,0.59,-1.98,1.93,260.00,497.00,105.00,345.00,162.00,281.00,464.00,454.00,,,,,,,,,,,,0,1,0,,-4740,15448,-788,-94,200,-175
24.961,24.87,0.77,2.12,0.38,-1.34,0.03,2.66,-1.79,3.70,-2.92,258.00,470.00,98.00,329.00,179.00,281.00,544.00,413.00,,,,,,,,,,,,0,1,0,,-4556,15732,-928,21,120,-136
25.023,24.92,0.65,4.81,-3.19,2.95,-5.61,-1.60,0.70,-4.29,1.96,298.00,465.00,123.00,323.00,169.00,311.00,483.00,497.00,,,,,,,,,,,,0,1,0,,-4664,15504,-892,59,41,-181
25.064,24.98,0.56,-0.31,0.84,-2.05,-1.86,-1.05,2.00,0.04,0.89,263.00,511.00,110.00,356.00,156.00,294.00,473.00,431.00,,,,,,,,,,,,0,1,0,,-4704,15488,-760,-91,118,-208
25.125,25.03,0.68,1.30,0.80,-1.49,-1.19,2.83,-1.64,1.13,-1.75,256.00,480.00,105.00,342.00,177.00,278.00,535.00,443.00,,,,,,,,,,,,0,1,0,,-4556,15436,-720,-98,184,-175
25.188,25.09,0.65,3.63,-1.38,0.63,-3.10,0.20,-0.23,-3.18,2.09,276.00,464.00,112.00,331.00,172.00,297.00,470.00,474.00,,,,,,,,,,,,0,1,0,,-4640,15760,-940,-109,107,-268
25.291,25.14,0.58,2.56,-0.75,1.08,-3.08,-0.70,2.12,2.04,-0.66,272.00,476.00,111.00,325.00,154.00,289.00,496.00,415.00,,,,,,,,,,,,0,1,0,,-4736,15704,-680,-260,164,-89
25.311,25.20,0.66,0.81,2.54,-2.16,1.47,2.10,0.24,-0.69,0.52,235.00,467.00,92.00,327.00,162.00,272.00,489.00,448.00,,,,,,,,,,,,0,1,0,,-4612,15580,-592,-33,288,-51
25.374,25.25,0.76,5.31,-1.19,1.20,-1.01,2.74,-0.98,1.17,0.01,265.00,432.00,99.00,306.00,171.00,274.00,486.00,422.00,,,,,,,,,,,,0,1,0,,-4592,15568,-808,1,190,-139
25.395,25.31,0.72,4.80,-1.70,2.76,-3.31,-0.04,1.65,0.36,-0.35,275.00,447.00,109.00,306.00,156.00,285.00,503.00,440.00,,,,,,,,,,,,0,1,0,,-4716,15660,-1020,-29,75,-104
25.457,25.36,0.73,1.51,0.73,-0.01,-2.38,0.87,1.11,-1.61,1.80,256.00,477.00,109.00,333.00,158.00,279.00,464.00,449.00,,,,,,,,,,,,0,1,0,,-4688,15600,-668,-136,108,-190
25.519,25.42,0.86,3.15,-0.18,0.02,-1.16,3.33,-1.71,4.25,-2.73,261.00,458.00,102.00,322.00,176.00,273.00,533.00,402.00,,,,,,,,,,,,0,1,0,,-4620,15568,-792,-120,165,-160
25.56,25.47,0.78,5.05,-3.15,3.12,-5.51,-0.82,0.77,-3.46,1.27,296.00,460.00,122.00,320.00,166.00,301.00,494.00,490.00,,,,,,,,,,,,0,1,0,,-4640,15580,-868,-20,75,-160
25.644,25.53,0.78,0.54,0.69,-2.06,-1.00,0.72,0.93,-0.35,1.38,261.00,496.00,105.00,348.00,160.00,282.00,464.00,432.00,,,,,,,,,,,,0,1,0,,-4668,15540,-724,40,51,-140
25.707,25.58,0.90,2.91,0.26,-1.93,0.23,3.33,-1.71,0.98,-1.94,256.00,457.00,98.00,335.00,176.00,273.00,542.00,448.00,,,,,,,,,,,,0,1,0,,-4660,15520,-756,-89,168,-195
25.771,25.64,0.88,5.20,-2.88,1.72,-3.79,0.39,0.25,-2.62,2.06,291.00,454.00,114.00,323.00,167.00,291.00,466.00,464.00,,,,,,,,,,,,0,1,0,,-4724,15592,-684,-74,135,-112
25.793,25.69,0.77,1.89,-0.45,-0.98,-2.06,-1.26,2.30,1.89,-0.61,271.00,485.00,109.00,343.00,154.00,294.00,496.00,417.00,,,,,,,,,,,,0,1,0,,-4680,15760,-952,-136,181,16
25.853,25.75,0.94,0.53,2.25,-2.36,0.76,4.14,-1.23,0.21,-0.30,240.00,476.00,96.00,336.00,169.00,261.00,503.00,442.00,,,,,,,,,,,,0,1,0,,-4588,15600,-728,-183,222,-146
25.915,25.80,1.01,5.21,-1.29,1.36,-1.62,2.36,-0.41,0.15,0.82,267.00,435.00,102.00,309.00,167.00,274.00,474.00,430.00,,,,,,,,,,,,0,1,0,,-4556,15492,-680,-65,172,-105
26.019,25.86,0.94,4.11,-1.27,1.41,-2.52,-0.32,2.60,1.11,-0.34,272.00,454.00,107.00,316.00,149.00,281.00,496.00,427.00,,,,,,,,,,,,0,1,0,,-4476,15600,-828,52,260,-127
26.04,25.91,0.97,1.09,2.37,-1.38,1.01,1.49,1.14,-1.54,1.78,236.00,464.00,93.00,321.00,156.00,272.00,464.00,448.00,,,,,,,,,,,,0,1,0,,-4664,15644,-772,13,165,-180
26.06,25.97,1.08,3.63,0.01,0.02,-0.24,3.24,-1.57,3.78,-1.76,256.00,447.00,97.00,314.00,175.00,273.00,510.00,399.00,,,,,,,,,,,,0,1,0,,-4604,15456,-864,-78,-18,-173
26.123,26.02,1.03,5.14,-2.54,2.72,-4.92,0.02,1.05,-2.17,0.76,286.00,451.00,119.00,320.00,161.00,289.00,496.00,472.00,,,,,,,,,,,,0,1,0,,-4648,15512,-696,-171,143,-179
26.185,26.08,1.03,0.90,0.93,-2.05,-0.47,0.92,1.57,-0.43,1.93,256.00,486.00,102.00,343.00,154.00,275.00,451.00,427.00,,,,,,,,,,,,0,1,0,,-4664,15596,-812,-66,112,-156
26.226,26.13,1.16,2.84,0.28,-1.24,0.57,3.81,-1.87,3.74,-2.80,256.00,458.00,95.00,323.00,176.00,269.00,540.00,411.00,,,,,,,,,,,,0,1,0,,-4748,15636,-600,16,6,-206
26.288,26.19,1.12,5.43,-3.21,1.57,-3.58,0.21,0.65,-3.32,1.98,295.00,454.00,113.00,323.00,164.00,290.00,474.00,478.00,,,,,,,,,,,,0,1,0,,-4740,15548,-744,-34,104,-163
26.413,26.24,1.10,0.80,0.54,-1.66,-1.48,0.88,1.23,1.31,0.16,262.00,493.00,107.00,347.00,157.00,278.00,481.00,418.00,,,,,,,,,,,,0,1,0,,-4696,15472,-672,-112,158,-215
26.434,26.30,1.18,1.82,1.06,-2.48,0.61,2.62,-0.39,0.84,-0.80,250.00,467.00,97.00,339.00,166.00,271.00,511.00,437.00,,,,,,,,,,,,0,1,0,,-4576,15404,-788,-109,142,-92
26.455,26.35,1.24,4.90,-1.94,1.50,-4.04,2.36,-0.41,-1.30,1.42,278.00,448.00,116.00,328.00,167.00,274.00,471.00,448.00,,,,,,,,,,,,0,1,0,,-4668,15940,-908,-153,-11,-258
26.496,26.41,1.17,3.24,-1.04,1.04,-2.90,-0.07,2.76,1.02,-0.39,273.00,467.00,110.00,324.00,147.00,277.00,498.00,429.00,,,,,,,,,,,,0,1,0,,-4664,15640,-608,-192,151,-128
26.559,26.46,1.25,0.81,2.54,-2.16,1.47,2.70,0.62,-0.66,1.40,235.00,467.00,92.00,327.00,157.00,263.00,466.00,437.00,,,,,,,,,,,,0,1,0,,-4612,15616,-580,15,299,-15
26.622,26.52,1.34,4.65,-0.47,0.50,-0.59,3.03,-0.86,3.10,-1.13,258.00,435.00,98.00,311.00,169.00,270.00,499.00,403.00,,,,,,,,,,,,0,1,0,,-4532,15588,-968,-11,239,-165
26.685,26.57,1.33,4.43,-1.58,1.56,-2.74,1.19,0.77,-1.23,0.26,275.00,452.00,108.00,316.00,160.00,278.00,501.00,461.00,,,,,,,,,,,,0,1,0,,-4612,15632,-1076,-108,-52,-163
26.746,26.63,1.32,0.90,0.93,-0.95,-1.55,1.15,1.37,-0.85,2.11,256.00,486.00,106.00,338.00,155.00,274.00,450.00,432.00,,,,,,,,,,,,0,1,0,,-4624,15428,-676,-238,24,-79
26.787,26.68,1.44,2.89,0.12,0.07,-1.36,3.69,-1.83,4.66,-3.14,258.00,459.00,103.00,323.00,176.00,270.00,541.00,400.00,,,,,,,,,,,,0,1,0,,-4540,15600,-880,-199,88,-153
26.829,26.74,1.37,5.68,-3.17,0.16,-4.06,0.11,0.79,-3.35,1.88,293.00,449.00,119.00,346.00,163.00,290.00,477.00,480.00,,,,,,,,,,,,0,1,0,,-4584,15456,-688,-61,58,-182
26.892,26.79,1.38,0.73,0.42,-1.51,-1.71,1.49,1.14,1.33,0.58,264.00,496.00,108.00,347.00,156.00,272.00,470.00,413.00,,,,,,,,,,,,0,1,0,,-4528,15540,-712,-20,-7,-198
26.953,26.85,1.48,1.62,1.35,-2.36,0.76,3.40,-0.98,1.59,-1.66,247.00,467.00,96.00,336.00,169.00,267.00,528.00,434.00,,,,,,,,,,,,0,1,0,,-4640,15564,-684,-151,137,-213
26.994,26.90,1.46,4.54,-1.41,0.93,-3.20,1.04,0.59,-2.01,2.06,272.00,448.00,112.00,328.00,162.00,281.00,461.00,453.00,,,,,,,,,,,,0,1,0,,-4624,15396,-800,-147,160,-171
27.056,26.96,1.36,2.14,-0.67,-0.97,-2.39,-0.54,2.80,1.99,-0.75,273.00,483.00,111.00,346.00,148.00,282.00,499.00,417.00,,,,,,,,,,,,0,1,0,,-4612,15792,-816,-114,129,-46
27.117,27.01,1.45,-0.15,2.48,-2.19,0.51,3.11,-0.55,-0.48,0.38,240.00,486.00,97.00,336.00,166.00,267.00,491.00,446.00,,,,,,,,,,,,0,1,0,,-4552,15664,-536,-253,214,-88
27.159,27.07,1.54,4.70,-0.63,0.99,-1.31,3.23,-0.59,1.94,-0.06,260.00,436.00,101.00,311.00,166.00,266.00,481.00,410.00,,,,,,,,,,,,0,1,0,,-4376,15400,-420,-102,215,-123
27.22,27.12,1.49,3.54,-1.07,1.65,-3.11,0.56,1.57,0.05,-0.06,272.00,462.00,110.00,318.00,155.00,279.00,498.00,442.00,,,,,,,,,,,,0,1,0,,-4556,15696,-788,-4,170,-183
27.301,27.18,1.46,1.96,0.22,-2.88,1.52,0.86,2.08,-1.31,1.94,261.00,475.00,93.00,336.00,150.00,272.00,458.00,442.00,,,,,,,,,,,,0,1,0,,-4540,15548,-796,56,131,-141
27.342,27.23,1.53,3.40,-0.05,-0.04,-0.96,2.98,-1.06,4.33,-2.76,258.00,452.00,101.00,321.00,171.00,272.00,533.00,401.00,,,,,,,,,,,,0,1,0,,-4540,15456,-572,-116,95,-237
27.404,27.29,1.42,5.12,-3.17,1.98,-5.43,-0.66,1.17,-3.62,1.51,296.00,459.00,124.00,334.00,162.00,296.00,489.00,490.00,,,,,,,,,,,,0,1,0,,-4708,15520,-768,-99,99,-192
27.507,27.34,1.39,0.29,1.06,-0.95,-1.55,0.86,2.08,0.11,1.23,257.00,496.00,106.00,338.00,150.00,272.00,464.00,426.00,,,,,,,,,,,,0,1,0,,-4712,15636,-572,-28,115,-199
27.527,27.40,1.51,1.96,1.09,-2.46,0.79,3.78,-1.96,2.85,-2.46,249.00,464.00,96.00,337.00,177.00,270.00,539.00,422.00,,,,,,,,,,,,0,1,0,,-4696,15680,-664,68,72,-217
27.568,27.45,1.50,5.53,-3.12,2.48,-4.68,1.17,0.66,-2.59,2.01,293.00,451.00,118.00,321.00,161.00,279.00,467.00,464.00,,,,,,,,,,,,0,1,0,,-4620,15424,-732,27,81,-265
27.629,27.51,1.46,1.85,-0.16,-1.25,-2.30,0.69,1.65,1.73,-0.55,267.00,482.00,111.00,349.00,154.00,277.00,496.00,419.00,,,,,,,,,,,,0,1,0,,-4592,15468,-644,-8,198,-179
27.692,27.56,1.49,0.12,2.39,-0.73,-2.31,2.23,0.20,-0.09,-0.20,240.00,482.00,110.00,342.00,162.00,271.00,503.00,446.00,,,,,,,,,,,,0,1,0,,-4684,15764,-896,-48,117,-229
27.713,27.62,1.51,4.30,-1.06,1.81,-2.99,1.86,0.32,0.12,0.94,268.00,448.00,109.00,315.00,162.00,274.00,471.00,429.00,,,,,,,,,,,,0,1,0,,-4704,15668,-736,-187,178,-63
27.774,27.67,1.44,3.45,-1.11,1.25,-2.63,0.03,2.48,1.27,-0.58,273.00,464.00,108.00,319.00,149.00,278.00,501.00,427.00,,,,,,,,,,,,0,1,0,,-4628,15536,-608,5,226,-15
27.859,27.73,1.48,0.60,2.22,-1.73,1.53,2.33,0.74,-1.50,1.89,240.00,475.00,91.00,321.00,157.00,266.00,461.00,446.00,,,,,,,,,,,,0,1,0,,-4612,15544,-728,16,227,-146
27.879,27.78,1.55,3.25,-0.57,-11.49,16.63,2.84,-0.57,4.14,-1.91,266.00,461.00,48.00,315.00,167.00,270.00,511.00,395.00,,,,,,,,,,,,0,1,0,,-4568,15712,-844,-17,105,-167
27.942,27.84,1.50,4.55,-2.72,2.75,-4.14,0.52,0.32,-1.99,0.74,292.00,464.00,114.00,313.00,166.00,289.00,495.00,469.00,,,,,,,,,,,,0,1,0,,-4572,15496,-716,-138,89,-139
28.003,27.89,1.46,0.15,0.90,-1.22,-0.93,0.72,2.00,-0.49,1.67,260.00,501.00,103.00,336.00,151.00,274.00,458.00,431.00,,,,,,,,,,,,0,1,0,,-4664,15476,-888,-43,125,-190
28.065,27.95,1.57,1.58,0.70,-7.23,10.47,3.66,-1.92,4.12,-3.26,256.00,476.00,62.00,314.00,177.00,271.00,550.00,410.00,,,,,,,,,,,,0,1,0,,-4608,15636,-908,-74,85,-204
28.107,28.00,1.49,4.95,-3.23,3.88,-4.84,-0.09,1.09,-3.69,2.31,298.00,463.00,116.00,305.00,161.00,290.00,469.00,481.00,,,,,,,,,,,,0,1,0,,-4752,15524,-804,-56,48,-231
28.211,28.06,1.45,0.50,0.08,-0.55,-0.79,0.79,1.49,1.83,-0.25,270.00,505.00,101.00,326.00,155.00,277.00,487.00,414.00,,,,,,,,,,,,0,1,0,,-4652,15280,-504,-202,74,-176
28.232,28.11,1.48,0.43,1.23,-1.64,0.71,2.10,0.24,0.61,-0.73,254.00,491.00,95.00,327.00,162.00,272.00,511.00,440.00,,,,,,,,,,,,0,1,0,,-4660,15476,-552,-165,240,-33
28.274,28.17,1.44,3.80,-1.70,-5.98,9.46,0.59,0.86,-1.54,1.78,280.00,465.00,64.00,307.00,161.00,284.00,464.00,448.00,,,,,,,,,,,,0,1,0,,-4588,15400,-516,-211,220,-109
28.335,28.22,1.34,2.53,-0.94,1.25,-0.84,-0.56,2.55,1.80,-0.65,275.00,479.00,98.00,304.00,150.00,284.00,498.00,419.00,,,,,,,,,,,,0,1,0,,-4652,15548,-492,-274,214,-18
28.395,28.28,1.40,-0.15,2.71,-2.45,4.62,2.55,0.55,-0.91,1.02,237.00,483.00,78.00,304.00,158.00,265.00,478.00,446.00,,,,,,,,,,,,0,1,0,,-4632,15636,-484,-106,478,40
28.457,28.33,1.49,4.21,-1.16,1.70,0.38,3.15,-0.90,2.43,-0.86,270.00,451.00,91.00,289.00,169.00,269.00,498.00,411.00,,,,,,,,,,,,0,1,0,,-4540,15400,-672,-199,505,67
28.498,28.39,1.49,3.20,-1.69,2.07,-1.30,1.59,0.18,-0.54,-0.19,283.00,476.00,99.00,298.00,164.00,278.00,507.00,454.00,,,,,,,,,,,,0,1,0,,-4812,15532,-588,-341,575,94
28.624,28.44,1.48,-0.11,0.98,-0.26,-0.52,1.16,1.49,-1.57,2.07,260.00,505.00,99.00,320.00,154.00,273.00,457.00,445.00,,,,,,,,,,,,0,1,0,,-4660,15512,-460,-615,786,283
28.645,28.50,1.61,2.24,-0.43,-0.54,2.18,4.14,-2.50,4.47,-3.15,269.00,478.00,86.00,301.00,181.00,270.00,543.00,403.00,,,,,,,,,,,,0,1,0,,-4548,15500,-676,-560,899,321
28.666,28.55,1.50,4.62,-3.31,4.36,-4.19,-0.58,0.91,-3.08,1.41,301.00,470.00,111.00,294.00,164.00,297.00,487.00,481.00,,,,,,,,,,,,0,1,0,,-4512,15604,-740,-655,815,284
28.707,28.61,1.43,-0.70,0.56,-1.04,0.50,0.15,1.12,0.97,0.66,269.00,523.00,95.00,321.00,160.00,287.00,471.00,418.00,,,,,,,,,,,,0,1,0,,-4188,15736,-608,-483,586,-1
28.768,28.66,1.53,-0.75,1.49,-1.59,2.74,3.36,-1.61,1.88,-1.83,256.00,511.00,85.00,309.00,175.00,272.00,530.00,431.00,,,,,,,,,,,,0,1,0,,-4356,15748,-392,-411,473,-276
28.81,28.72,1.52,2.81,-1.43,1.09,-0.97,1.28,-0.16,-2.34,1.66,281.00,480.00,99.00,307.00,168.00,284.00,474.00,464.00,,,,,,,,,,,,0,1,0,,-4504,15616,-204,-399,755,-787
28.872,28.77,1.41,1.07,-0.38,0.87,-0.52,-0.56,2.55,2.84,-0.93,274.00,500.00,97.00,306.00,150.00,284.00,496.00,405.00,,,,,,,,,,,,0,1,0,,-4392,15368,-692,-370,777,-1202
28.977,28.83,1.45,-0.49,2.59,-2.01,4.71,2.10,0.24,0.14,0.40,240.00,491.00,77.00,298.00,162.00,272.00,485.00,435.00,,,,,,,,,,,,0,1,0,,-4592,15352,-600,-616,511,-1218
28.997,28.88,1.54,4.46,-1.45,2.15,0.64,3.26,-1.47,1.39,0.13,273.00,450.00,89.00,282.00,174.00,272.00,481.00,417.00,,,,,,,,,,,,0,1,0,,-4688,15640,-616,-386,319,-1160
29.039,28.94,1.48,2.75,-1.41,2.07,-0.93,0.45,1.73,0.73,-0.22,281.00,481.00,97.00,295.00,154.00,279.00,496.00,432.00,,,,,,,,,,,,0,1,0,,-4880,15576,-512,-383,-106,-1214
29.101,28.99,1.50,0.79,0.33,1.10,-1.35,1.86,0.32,-1.05,1.97,265.00,496.00,101.00,310.00,162.00,274.00,455.00,437.00,,,,,,,,,,,,0,1,0,,-4960,15216,-408,-456,-335,-1120
29.162,29.05,1.59,2.16,-0.54,-0.50,1.73,3.27,-1.90,4.18,-2.53,271.00,481.00,88.00,304.00,178.00,275.00,528.00,401.00,,,,,,,,,,,,0,1,0,,-5128,15064,-60,-629,-246,-152
29.204,29.10,1.48,3.87,-3.30,3.84,-4.67,-0.59,0.80,-2.81,1.24,305.00,484.00,115.00,304.00,165.00,298.00,489.00,478.00,,,,,,,,,,,,0,1,0,,-5072,15432,96,-796,51,576
29.267,29.16,1.45,-1.02,0.53,-1.54,0.10,0.74,1.04,-0.12,1.30,271.00,530.00,98.00,331.00,159.00,281.00,464.00,429.00,,,,,,,,,,,,0,1,0,,-4952,15912,260,-429,606,401
29.328,29.21,1.54,0.34,0.69,-1.10,0.72,3.33,-1.71,2.82,-2.42,262.00,500.00,94.00,320.00,176.00,273.00,538.00,422.00,,,,,,,,,,,,0,1,0,,-4880,15604,-132,-273,672,162
29.39,29.27,1.52,3.91,-3.44,2.46,-3.71,1.24,-0.36,-2.31,1.68,307.00,485.00,112.00,313.00,170.00,286.00,473.00,463.00,,,,,,,,,,,,0,1,0,,-4724,15504,-92,-12,371,81
29.411,29.32,1.41,-0.01,-0.68,0.08,-1.72,-0.72,1.88,1.63,-0.41,284.00,526.00,105.00,326.00,156.00,291.00,493.00,419.00,,,,,,,,,,,,0,1,0,,-4792,15748,-304,-11,426,31
29.474,29.38,1.52,-0.81,1.87,-2.60,3.75,3.48,-1.65,0.68,-0.31,251.00,507.00,82.00,313.00,175.00,271.00,499.00,434.00,,,,,,,,,,,,0,1,0,,-4712,15468,-124,-145,420,-91
29.537,29.43,1.56,4.21,-1.90,2.34,-0.44,2.36,-0.96,0.03,0.82,281.00,460.00,94.00,288.00,172.00,278.00,475.00,432.00,,,,,,,,,,,,0,1,0,,-4736,15492,124,-27,285,-74
29.616,29.49,1.50,1.87,-1.12,6.45,-2.40,0.46,1.84,0.76,-0.00,281.00,494.00,97.00,258.00,153.00,278.00,490.00,429.00,,,,,,,,,,,,0,1,0,,-4812,15608,-108,96,369,-157
29.637,29.54,1.54,-0.23,1.53,-2.41,3.24,2.30,-0.06,-1.03,1.53,253.00,500.00,84.00,315.00,164.00,272.00,466.00,442.00,,,,,,,,,,,,0,1,0,,-4824,15588,-360,156,298,-214
29.701,29.60,1.62,1.60,-0.49,0.05,0.93,3.09,-1.63,3.41,-1.67,273.00,491.00,91.00,304.00,176.00,275.00,511.00,404.00,,,,,,,,,,,,0,1,0,,-4852,15340,-80,122,211,-219
29.744,29.65,1.52,2.75,-2.56,3.09,-3.93,-0.42,0.30,-2.28,0.68,299.00,496.00,112.00,307.00,169.00,300.00,499.00,475.00,,,,,,,,,,,,0,1,0,,-4848,15372,-356,-115,267,-118
29.806,29.71,1.51,-1.63,0.66,-1.73,0.16,1.39,0.48,-0.79,1.69,272.00,541.00,98.00,333.00,162.00,278.00,460.00,436.00,,,,,,,,,,,,0,1,0,,-4836,15652,-224,-127,240,-107
29.868,29.76,1.59,0.82,-0.09,-1.28,0.98,3.07,-2.14,3.35,-2.94,271.00,501.00,93.00,320.00,181.00,279.00,548.00,419.00,,,,,,,,,,,,0,1,0,,-4900,15584,-264,3,172,-275
29.909,29.82,1.48,3.49,-3.65,3.13,-5.06,-0.55,0.13,-3.46,1.64,313.00,496.00,119.00,316.00,171.00,303.00,484.00,485.00,,,,,,,,,,,,0,1,0,,-4784,15536,-284,121,113,-141
29.97,29.87,1.41,-1.58,0.05,-1.63,-0.43,0.02,1.05,0.61,0.05,281.00,549.00,101.00,337.00,161.00,289.00,490.00,431.00,,,,,,,,,,,,0,1,0,,-4868,15736,-440,140,304,-93
30.054,29.93,1.49,-1.13,1.19,-1.81,1.76,3.10,-1.10,1.50,-1.52,262.00,523.00,90.00,320.00,171.00,271.00,525.00,434.00,,,,,,,,,,,,1,1,0,,-4864,15284,-148,-72,304,-211
30.075,29.98,1.52,3.39,-1.89,3.01,-1.80,2.08,-0.54,-1.54,1.78,285.00,475.00,100.00,291.00,169.00,278.00,464.00,448.00,,,,,,,,,,,,1,1,0,,-4776,15216,-300,-69,155,-159
30.136,30.04,1.45,1.19,-0.55,0.57,0.16,0.07,1.50,1.65,-0.53,276.00,500.00,94.00,304.00,157.00,285.00,496.00,420.00,,,,,,,,,,,,1,1,0,,-4836,15540,-356,19,222,-141
30.199,30.09,1.50,-0.81,1.87,-2.36,4.12,2.47,0.11,-0.39,0.50,251.00,507.00,80.00,307.00,162.00,269.00,487.00,443.00,,,,,,,,,,,,1,1,0,,-4812,15416,-536,-59,165,-141
30.242,30.15,1.56,2.47,-0.85,0.77,0.49,2.73,-1.51,1.40,-0.33,274.00,479.00,92.00,299.00,176.00,278.00,493.00,422.00,,,,,,,,,,,,1,1,0,,-4960,15340,-324,-140,26,-179
30.304,30.20,1.51,1.78,-1.73,2.41,-2.68,0.40,0.36,-0.91,-0.21,291.00,504.00,106.00,305.00,166.00,290.00,511.00,461.00,,,,,,,,,,,,1,1,0,,-4876,15424,-308,-146,122,-184
30.367,30.26,1.51,-0.54,-0.11,-0.43,-0.27,1.69,0.04,-1.87,1.85,278.00,529.00,98.00,320.00,165.00,278.00,465.00,453.00,,,,,,,,,,,,1,1,0,,-4920,15460,-368,-104,176,-194
30.428,30.31,1.63,0.76,-0.74,0.67,-0.83,3.89,-3.21,3.54,-2.87,281.00,511.00,99.00,311.00,189.00,278.00,544.00,415.00,,,,,,,,,,,,1,1,0,,-4940,15392,-320,2,98,-188
30.489,30.37,1.51,3.30,-4.11,3.97,-5.34,-0.76,0.31,-3.53,1.14,322.00,506.00,119.00,308.00,170.00,304.00,498.00,493.00,,,,,,,,,,,,1,1,0,,-4960,15396,-252,-65,241,-84
30.53,30.42,1.46,-2.18,0.18,-1.57,-0.63,0.45,0.68,-0.48,0.72,282.00,560.00,102.00,338.00,163.00,287.00,482.00,442.00,,,,,,,,,,,,1,1,0,,-4868,15336,-352,-86,523,-22
30.592,30.48,1.56,0.24,0.04,-0.87,2.28,3.54,-1.88,2.26,-2.47,272.00,511.00,86.00,304.00,177.00,272.00,545.00,432.00,,,,,,,,,,,,1,1,0,,-5040,15320,4,-407,666,-47
30.634,30.53,1.56,3.74,-2.64,3.90,-2.47,1.38,-0.30,-2.45,1.81,295.00,478.00,102.00,286.00,169.00,284.00,471.00,464.00,,,,,,,,,,,,1,1,0,,-5012,15492,228,-711,1407,-210
30.676,30.59,1.49,0.70,0.02,1.23,-0.06,0.30,1.42,1.93,-0.58,270.00,502.00,94.00,298.00,157.00,283.00,495.00,416.00,,,,,,,,,,,,1,1,0,,-4904,15600,-252,-568,1759,-470
30.737,30.64,1.58,-0.94,2.44,2.88,4.05,3.15,-0.90,-0.09,0.06,244.00,502.00,73.00,250.00,169.00,269.00,496.00,443.00,,,,,,,,,,,,1,1,0,,-4776,15404,-636,-471,1429,-512
30.8,30.70,1.58,3.25,-1.45,2.06,1.30,1.68,-0.62,-0.70,1.30,279.00,472.00,86.00,278.00,171.00,283.00,469.00,439.00,,,,,,,,,,,,1,1,0,,-5004,15404,-552,-473,685,-316
30.862,30.75,1.51,1.66,-1.63,2.69,-0.94,0.22,0.76,0.21,-0.30,290.00,505.00,96.00,288.00,163.00,289.00,503.00,442.00,,,,,,,,,,,,1,1,0,,-4928,15288,-188,-567,390,7
30.903,30.81,1.52,-0.56,1.21,-1.72,3.91,1.68,-0.62,-2.21,1.53,259.00,511.00,80.00,301.00,171.00,283.00,476.00,463.00,,,,,,,,,,,,1,1,0,,-5060,15348,-148,-414,426,292
30.964,30.86,1.59,0.98,-0.62,0.34,1.88,2.83,-1.64,3.05,-2.50,278.00,505.00,86.00,293.00,177.00,278.00,538.00,419.00,,,,,,,,,,,,1,1,0,,-5104,15596,228,31,482,330
31.027,30.92,1.48,2.41,-3.17,4.60,-3.24,-0.47,-0.11,-2.84,0.44,311.00,511.00,105.00,284.00,173.00,304.00,511.00,489.00,,,,,,,,,,,,1,1,0,,-4888,15684,-364,22,450,39
31.09,30.97,1.44,-2.58,0.78,-0.36,1.90,0.64,-0.38,-0.58,0.95,275.00,560.00,87.00,301.00,172.00,293.00,477.00,441.00,,,,,,,,,,,,1,1,0,,-4560,15336,-300,561,-15,184
31.156,31.03,1.53,-0.54,-0.04,0.89,3.03,3.19,-2.98,3.09,-3.08,277.00,528.00,80.00,278.00,189.00,284.00,555.00,425.00,,,,,,,,,,,,1,1,0,,-4964,15284,-140,427,-75,179
31.197,31.08,1.46,3.41,-3.68,6.37,-2.56,0.10,-0.09,-3.72,1.73,314.00,498.00,98.00,260.00,171.00,297.00,484.00,489.00,,,,,,,,,,,,1,1,0,,-4996,15412,4,98,863,520
31.239,31.14,1.45,-0.60,-0.02,1.60,2.79,1.32,0.84,1.27,0.13,277.00,529.00,80.00,272.00,159.00,276.00,482.00,419.00,,,,,,,,,,,,1,1,0,,-4720,15196,-312,-106,1740,472
31.299,31.19,1.55,-0.04,1.10,0.33,6.49,3.38,-1.51,0.43,-0.63,258.00,502.00,67.00,259.00,174.00,271.00,510.00,442.00,,,,,,,,,,,,1,1,0,,-4460,15528,-756,-209,1633,638
31.341,31.25,1.59,3.16,-1.94,4.89,1.68,2.36,-0.96,-1.16,1.22,287.00,480.00,80.00,246.00,172.00,278.00,475.00,448.00,,,,,,,,,,,,1,1,0,,-4488,15528,-1012,-493,1214,478
31.404,31.30,1.54,0.94,-1.00,2.16,3.79,0.62,1.08,0.96,-0.55,284.00,511.00,75.00,259.00,159.00,282.00,503.00,432.00,,,,,,,,,,,,1,1,0,,-4152,15776,-608,-534,1068,618
31.464,31.36,1.61,-1.76,1.83,-0.92,7.76,2.89,-0.92,-0.73,0.50,256.00,527.00,64.00,263.00,170.00,272.00,490.00,449.00,,,,,,,,,,,,1,1,0,,-4124,16132,-652,-551,467,66
31.547,31.41,1.64,1.92,-1.26,3.98,3.18,2.33,-1.58,4.74,-1.93,283.00,495.00,75.00,245.00,178.00,283.00,506.00,386.00,,,,,,,,,,,,1,1,0,,-4376,15776,-516,-123,210,-65
31.568,31.47,1.57,0.79,-1.65,3.59,2.12,0.13,-0.63,-1.34,-0.07,295.00,523.00,80.00,256.00,176.00,301.00,511.00,467.00,,,,,,,,,,,,1,1,0,,-4376,15528,-252,58,338,26
31.609,31.52,1.53,-2.11,0.42,0.10,4.74,0.85,-0.55,-1.68,1.16,278.00,555.00,74.00,274.00,173.00,292.00,481.00,458.00,,,,,,,,,,,,1,1,0,,-4220,15224,-372,-149,578,151
31.67,31.58,1.58,0.22,-0.95,1.53,4.00,2.51,-2.75,2.53,-2.70,287.00,525.00,75.00,264.00,189.00,290.00,549.00,430.00,,,,,,,,,,,,1,1,0,,-4320,15728,-620,-68,423,-33
31.73,31.63,1.47,2.41,-3.17,6.73,-0.27,-0.66,0.17,-3.46,1.19,311.00,511.00,86.00,241.00,171.00,304.00,496.00,491.00,,,,,,,,,,,,1,1,0,,-4236,15340,-476,-358,595,455
31.793,31.69,1.45,-1.63,0.46,-0.04,7.17,1.13,-0.33,0.62,0.46,275.00,544.00,65.00,258.00,170.00,287.00,479.00,426.00,,,,,,,,,,,,1,1,0,,-3904,15708,-312,-362,593,404
31.834,31.74,1.54,0.20,0.53,2.37,6.94,3.18,-1.76,2.11,-2.25,265.00,505.00,63.00,236.00,177.00,275.00,540.00,432.00,,,,,,,,,,,,1,1,0,,-3824,16160,-792,-671,6,-144
31.897,31.80,1.53,2.68,-1.78,5.18,4.59,1.46,-1.08,-1.98,1.69,287.00,487.00,68.00,225.00,176.00,289.00,470.00,457.00,,,,,,,,,,,,1,1,0,,-4016,16040,-280,20,-297,-456
31.958,31.85,1.46,0.25,-0.70,3.53,4.61,0.09,1.73,1.50,-0.47,283.00,521.00,70.00,240.00,155.00,283.00,496.00,422.00,,,,,,,,,,,,1,1,0,,-3860,15712,-424,62,-374,-569
32.022,31.91,1.54,-1.51,1.74,1.17,8.87,3.09,-1.63,-0.17,0.01,256.00,523.00,58.00,235.00,176.00,275.00,498.00,445.00,,,,,,,,,,,,1,1,0,,-3448,15728,-1316,749,-1100,-585
32.061,31.96,1.56,2.37,-1.54,6.90,3.74,1.81,-1.19,0.27,0.20,285.00,490.00,69.00,215.00,176.00,286.00,489.00,435.00,,,,,,,,,,,,1,1,0,,-3056,15676,-2420,2444,-2554,-765
32.122,32.02,1.47,0.77,-1.83,6.46,3.36,-0.23,0.02,3.73,-1.78,298.00,526.00,71.00,221.00,171.00,300.00,511.00,400.00,,,,,,,,,,,,1,1,0,,-3548,15436,-1360,3391,-4565,-1171
32.164,32.07,1.43,-1.75,0.70,3.05,6.42,0.72,-0.62,-1.94,0.98,272.00,543.00,64.00,233.00,174.00,294.00,488.00,465.00,,,,,,,,,,,,1,1,0,,-4156,16020,-676,2530,-4093,-1442
32.269,32.13,1.47,-0.39,-0.62,5.97,1.32,2.23,-2.85,2.29,-2.34,285.00,533.00,80.00,238.00,191.00,294.00,541.00,430.00,,,,,,,,,,,,1,1,0,,-5040,16336,-284,1967,-2679,-1880
32.289,32.18,1.36,1.50,-2.98,10.23,-0.11,-0.66,0.17,-2.37,0.35,313.00,527.00,80.00,209.00,171.00,304.00,509.00,481.00,,,,,,,,,,,,1,1,0,,-5108,16164,-600,546,-2277,-2663
32.33,32.24,1.35,-1.88,0.15,2.78,10.00,1.03,-0.18,-0.65,0.97,281.00,554.00,53.00,214.00,169.00,287.00,477.00,442.00,,,,,,,,,,,,1,1,0,,-5424,14980,-360,878,-1106,-2107
32.391,32.29,1.48,0.24,0.04,2.90,11.79,4.03,-3.55,2.60,-2.89,272.00,511.00,48.00,203.00,192.00,279.00,554.00,431.00,,,,,,,,,,,,1,1,0,,-5916,14412,-404,-595,-609,-1468
32.454,32.35,1.58,3.49,-3.65,11.54,0.15,3.50,-5.97,-3.19,1.33,313.00,496.00,77.00,197.00,221.00,304.00,490.00,484.00,,,,,,,,,,,,1,1,0,,-6184,15064,-924,-307,481,-741
32.494,32.40,1.49,-0.62,-0.41,3.71,9.68,-0.16,0.55,1.40,-0.59,283.00,535.00,53.00,208.00,166.00,295.00,500.00,425.00,,,,,,,,,,,,1,1,0,,-6076,14900,-356,-882,942,-200
32.557,32.46,1.54,-1.32,1.25,2.26,12.00,2.38,-1.39,0.57,-1.42,262.00,526.00,48.00,207.00,176.00,281.00,531.00,449.00,,,,,,,,,,,,1,1,0,,-6160,15464,-624,-706,1446,-121
32.64,32.51,1.52,2.70,-1.66,7.79,5.12,1.24,-1.00,-1.34,0.74,285.00,485.00,63.00,200.00,176.00,291.00,489.00,457.00,,,,,,,,,,,,1,1,0,,-5988,15772,-352,-796,1863,-42
32.66,32.57,1.44,0.22,-1.01,6.73,5.77,-0.21,0.13,0.66,-1.14,288.00,526.00,62.00,205.00,170.00,299.00,522.00,444.00,,,,,,,,,,,,1,1,0,,-6156,15396,656,39,1416,-83
32.723,32.62,1.44,-2.00,1.91,-1.25,13.57,1.55,-2.23,-1.38,0.31,256.00,531.00,47.00,228.00,187.00,297.00,501.00,463.00,,,,,,,,,,,,1,1,0,,-6464,15544,56,-5,1715,290
32.765,32.68,1.40,2.14,-1.66,4.26,6.60,0.58,-2.39,1.82,-1.56,288.00,496.00,62.00,221.00,192.00,310.00,523.00,429.00,,,,,,,,,,,,1,1,0,,-6300,16012,-136,1625,2181,710
32.827,32.73,1.28,2.02,-1.94,5.01,3.85,-1.05,-1.05,-0.73,-0.81,293.00,502.00,71.00,231.00,184.00,319.00,526.00,465.00,,,,,,,,,,,,1,1,0,,-5656,14752,-752,3065,2352,1754
32.89,32.79,1.22,-0.65,0.33,0.22,7.09,0.08,-0.93,-0.98,1.20,272.00,525.00,65.00,256.00,179.00,304.00,474.00,445.00,,,,,,,,,,,,1,1,0,,-5680,14364,88,4063,2201,2639
32.952,32.84,1.29,1.61,-0.43,3.17,7.89,2.63,-4.20,4.47,-3.42,272.00,490.00,59.00,223.00,204.00,300.00,551.00,406.00,,,,,,,,,,,,1,1,0,,-4764,16112,-3120,6631,1900,3682
32.995,32.90,1.14,3.51,-3.30,13.46,-0.73,-1.60,-1.17,-1.77,0.81,307.00,491.00,78.00,187.00,187.00,327.00,491.00,464.00,,,,,,,,,,,,1,1,0,,-3828,15960,-3696,8009,1168,1842
33.057,32.95,1.03,-1.34,0.10,5.25,11.78,-1.19,-1.30,1.56,0.15,279.00,543.00,46.00,185.00,187.00,323.00,479.00,414.00,,,,,,,,,,,,1,1,0,,-2192,13732,-5376,7720,-121,277
33.119,33.01,1.02,-0.83,0.40,4.36,21.92,0.84,-3.95,1.99,-2.07,272.00,528.00,27.00,146.00,208.00,320.00,536.00,432.00,,,,,,,,,,,,1,1,0,,-4072,13956,-6716,4859,-1546,19
33.182,33.06,0.91,1.44,-1.74,12.71,12.80,-1.23,-2.72,-1.83,1.06,293.00,511.00,38.00,134.00,202.00,336.00,485.00,462.00,,,,,,,,,,,,1,1,0,,-3508,12536,-5732,1968,-451,2743
33.224,33.12,0.75,-0.43,-1.18,10.66,16.66,-2.29,-1.71,0.99,-0.85,294.00,542.00,32.00,131.00,195.00,341.00,511.00,435.00,,,,,,,,,,,,1,1,0,,-2764,12932,-5308,2555,1961,4188
33.286,33.17,0.64,-2.29,1.23,7.37,23.87,-1.35,-2.77,-0.95,-0.81,267.00,547.00,23.00,123.00,203.00,338.00,528.00,469.00,,,,,,,,,,,,1,1,0,,-1588,13744,-6720,1635,3756,5636
33.389,33.23,0.51,0.43,-1.46,9.84,27.56,-1.93,-3.11,-0.56,-0.97,294.00,528.00,18.00,101.00,209.00,349.00,529.00,464.00,,,,,,,,,,,,1,1,0,,-1356,16784,-8516,2101,4232,3490
33.409,33.28,0.37,-0.44,-1.30,11.71,29.11,-2.29,-2.36,-0.59,-1.65,296.00,544.00,16.00,90.00,202.00,347.00,549.00,473.00,,,,,,,,,,,,1,1,0,,-1100,15408,-8648,2106,3197,2356
33.45,33.34,0.26,-1.99,0.65,-9.28,61.77,-1.89,-2.40,-2.61,0.39,274.00,549.00,4.00,86.00,201.00,342.00,510.00,485.00,,,,,,,,,,,,1,1,0,,-732,16208,-9548,-1085,1376,976
33.513,33.39,0.26,-0.08,-0.78,-28.14,93.71,0.20,-4.94,1.55,-3.03,286.00,529.00,1.00,77.00,222.00,337.00,569.00,451.00,,,,,,,,,,,,1,1,0,,-360,14364,-7832,-3112,-2367,-2214
33.554,33.45,0.09,1.23,-2.65,27.17,15.66,-3.07,-2.37,-4.97,-0.54,309.00,528.00,25.00,70.00,205.00,358.00,560.00,546.00,,,,,,,,,,,,1,1,0,,-1652,16224,-6740,-7385,-4694,-5169
33.617,33.50,0.00,-2.18,-0.01,4.93,36.70,-1.66,-2.20,-2.57,-0.57,285.00,563.00,12.00,96.00,198.00,337.00,537.00,497.00,,,,,,,,,,,,1,1,0,,-3292,16272,-4700,-8426,-3716,-6206
33.659,33.56,-0.21,-1.10,0.02,-16.62,53.90,-4.30,-3.18,-0.60,-3.41,279.00,539.00,7.00,142.00,219.00,384.00,604.00,496.00,,,,,,,,,,,,1,1,0,,-5440,15460,-2160,-6706,-2057,-5618
33.785,33.61,-0.29,1.62,-3.08,14.37,11.76,-1.81,-3.06,-5.41,0.11,314.00,526.00,39.00,129.00,208.00,347.00,545.00,546.00,,,,,,,,,,,,1,1,0,,-5220,13876,-1876,-3062,1046,-368
33.806,33.67,-0.39,-1.02,-0.85,5.12,22.36,-2.18,-1.65,-0.72,-1.54,292.00,550.00,26.00,140.00,194.00,339.00,547.00,474.00,,,,,,,,,,,,1,1,0,,-3916,14932,-3168,-1423,2719,2162
33.826,33.72,-0.41,-2.17,0.85,0.18,32.99,-0.80,-3.13,-2.41,-1.63,272.00,550.00,16.00,128.00,205.00,334.00,567.00,508.00,,,,,,,,,,,,1,1,0,,-3284,16352,-3608,-592,1614,454
33.868,33.78,-0.50,0.84,-1.79,8.17,26.18,-2.21,-3.02,-4.33,-0.72,297.00,524.00,20.00,112.00,209.00,352.00,559.00,535.00,,,,,,,,,,,,1,1,0,,-2880,15664,-3468,-740,744,-165
33.93,33.83,-0.57,0.02,-1.07,4.48,29.37,-1.88,-2.31,-2.62,-2.32,290.00,531.00,18.00,119.00,200.00,341.00,591.00,522.00,,,,,,,,,,,,1,1,0,,-3608,15848,-2608,-787,-176,-367
33.993,33.89,-0.58,-1.75,1.75,-4.06,41.33,-0.76,-3.42,-3.81,-0.99,257.00,528.00,11.00,121.00,208.00,336.00,562.00,528.00,,,,,,,,,,,,1,1,0,,-3672,16232,-2348,-1562,162,-17
34.034,33.94,-0.58,1.63,-0.84,8.17,26.18,-0.67,-3.89,-0.57,-2.54,278.00,495.00,20.00,112.00,213.00,339.00,576.00,484.00,,,,,,,,,,,,1,1,0,,-3404,16484,-2240,-899,-32,-870
34.136,34.00,-0.68,1.50,-1.83,13.59,16.87,-2.60,-3.06,-3.61,-1.29,294.00,511.00,30.00,116.00,211.00,358.00,569.00,528.00,,,,,,,,,,,,1,1,0,,-3396,15520,-3148,-362,-992,-1491
34.157,34.05,-0.76,-1.34,0.10,1.71,29.30,-2.19,-2.93,-2.98,-0.12,279.00,543.00,19.00,133.00,208.00,351.00,528.00,499.00,,,,,,,,,,,,1,1,0,,-4040,15012,-2236,390,-463,-252
34.197,34.11,-0.75,0.85,-0.57,3.39,29.73,-0.54,-5.27,-0.21,-3.29,278.00,507.00,18.00,123.00,229.00,350.00,596.00,487.00,,,,,,,,,,,,1,1,0,,-4140,15448,-2264,25,885,645
34.259,34.16,-0.90,2.51,-3.32,18.13,10.49,-3.80,-2.83,-6.46,-0.33,313.00,511.00,39.00,115.00,213.00,373.00,569.00,576.00,,,,,,,,,,,,1,1,0,,-3696,16544,-3228,-1126,1001,-154
34.32,34.22,-1.00,-1.76,0.24,0.35,30.76,-2.91,-3.13,-2.54,-1.65,279.00,550.00,18.00,135.00,213.00,363.00,569.00,511.00,,,,,,,,,,,,1,1,0,,-3616,15876,-3124,-1328,-80,-658
34.382,34.27,-1.02,-0.90,0.42,0.70,34.00,-1.42,-4.81,-1.64,-2.69,272.00,529.00,15.00,122.00,227.00,358.00,592.00,507.00,,,,,,,,,,,,1,1,0,,-3772,15896,-3080,-597,191,-307
34.464,34.33,-1.09,2.42,-2.07,13.61,19.50,-2.36,-3.32,-3.47,-0.13,293.00,496.00,26.00,108.00,213.00,357.00,533.00,509.00,,,,,,,,,,,,1,1,0,,-3480,15828,-2188,-537,-200,-69
34.486,34.38,-1.14,0.86,-0.44,4.95,30.26,-2.05,-2.71,0.03,-1.69,276.00,505.00,17.00,114.00,205.00,347.00,544.00,462.00,,,,,,,,,,,,1,1,0,,-3700,16232,-2276,-527,-239,-795
34.526,34.44,-1.12,-0.09,1.70,inf,inf,-0.76,-3.42,-1.30,-1.31,250.00,495.00,0.00,115.00,208.00,336.00,546.00,482.00,,,,,,,,,,,,1,1,0,,-3432,15940,-2632,236,-543,-1292
34.588,34.49,-1.12,3.38,-1.09,4.81,33.89,-1.18,-3.88,-0.62,-1.36,273.00,465.00,14.00,104.00,215.00,346.00,541.00,470.00,,,,,,,,,,,,1,1,0,,-3852,15720,-2656,533,-905,-1804
34.649,34.55,-1.17,2.03,-1.49,7.34,29.46,-2.05,-3.25,-1.54,-1.56,286.00,496.00,17.00,106.00,211.00,352.00,556.00,490.00,,,,,,,,,,,,1,1,0,,-4572,15056,-2316,199,-452,-1211
34.751,34.60,-1.21,0.62,-0.09,-0.80,37.15,-2.10,-2.97,-2.78,-0.19,272.00,505.00,13.00,119.00,208.00,350.00,528.00,496.00,,,,,,,,,,,,1,1,0,,-4480,14668,-1900,-406,326,583
34.772,34.66,-1.12,1.21,-0.29,0.48,38.20,0.66,-5.51,0.84,-3.05,272.00,496.00,12.00,110.00,227.00,336.00,577.00,464.00,,,,,,,,,,,,1,1,0,,-4136,16344,-2328,-360,1339,1039
34.836,34.71,-1.24,2.96,-2.87,18.99,14.45,-3.58,-2.64,-4.32,-0.52,303.00,496.00,31.00,100.00,210.00,368.00,553.00,532.00,,,,,,,,,,,,1,1,0,,-3548,16488,-3380,-264,-238,-726
34.855,34.77,-1.30,-1.39,0.45,16.60,9.64,-2.47,-2.84,-2.39,-0.39,274.00,539.00,42.00,125.00,208.00,354.00,530.00,491.00,,,,,,,,,,,,1,1,0,,-3704,15172,-2944,90,-1764,-2158
34.917,34.82,-1.26,-0.00,0.39,-12.82,58.84,-0.40,-5.15,0.18,-3.33,268.00,511.00,5.00,107.00,227.00,347.00,593.00,480.00,,,,,,,,,,,,1,1,1,,-4544,14964,-2308,-596,-1184,-1161
34.978,34.88,-1.31,3.90,-2.88,16.49,22.48,-2.27,-2.82,-4.48,0.28,298.00,478.00,21.00,89.00,207.00,351.00,531.00,524.00,,,,,,,,,,,,1,1,1,,-4776,15008,-976,-28,96,511
35.019,34.93,-1.33,1.21,-0.29,1.64,41.18,-1.81,-1.87,-0.17,-1.55,272.00,496.00,10.00,97.00,195.00,336.00,542.00,464.00,,,,,,,,,,,,1,1,1,,-4296,15820,-2404,150,1185,650
35.102,34.99,-1.26,-0.28,2.07,inf,inf,0.13,-3.71,-0.31,-1.74,246.00,494.00,0.00,81.00,208.00,327.00,549.00,469.00,,,,,,,,,,,,1,1,1,,-4208,16320,-2616,906,965,47
35.144,35.04,-1.26,3.50,-1.27,inf,inf,-1.28,-3.42,-0.71,-0.92,275.00,465.00,0.00,58.00,210.00,343.00,529.00,466.00,,,,,,,,,,,,1,1,1,,-4456,15424,-2936,1008,-354,-897
35.206,35.10,-1.33,1.49,-0.86,inf,inf,-2.60,-2.44,-1.48,-1.65,279.00,498.00,0.00,60.00,204.00,352.00,558.00,490.00,,,,,,,,,,,,1,1,1,,-4572,14776,-2244,464,-334,79
35.268,35.15,-1.30,-0.42,1.38,inf,inf,-0.76,-3.42,-3.78,-0.97,256.00,506.00,0.00,73.00,208.00,336.00,561.00,527.00,,,,,,,,,,,,1,1,1,,-4452,15396,-2136,-396,313,605
35.31,35.21,-1.32,1.21,-0.29,inf,inf,-1.69,-4.31,-0.94,-2.83,272.00,496.00,0.00,38.00,222.00,357.00,589.00,495.00,,,,,,,,,,,,1,1,1,,-4288,16372,-2540,275,1478,20
35.371,35.26,-1.43,1.94,-2.04,inf,inf,-3.45,-3.55,-4.50,-1.44,295.00,505.00,0.00,32.00,220.00,375.00,583.00,549.00,,,,,,,,,,,,1,1,1,,-4184,16044,-3644,336,-55,-576
35.434,35.32,-1.54,-1.99,0.79,inf,inf,-3.79,-3.43,-3.68,-0.97,272.00,547.00,0.00,27.00,220.00,379.00,560.00,525.00,,,,,,,,,,,,1,1,1,,-4188,15712,-2900,527,-1406,-1249
35.474,35.37,-1.57,0.30,-0.05,inf,inf,-2.10,-5.53,0.00,-3.76,273.00,511.00,0.00,9.00,239.00,375.00,609.00,489.00,,,,,,,,,,,,1,1,1,,-4364,15284,-2844,1242,-1558,-1210
35.578,35.43,-1.69,3.15,-3.00,nan,nan,-3.89,-3.48,-4.01,-0.56,304.00,494.00,0.00,0.00,221.00,381.00,551.00,526.00,,,,,,,,,,,,1,1,1,,-4896,15184,-1824,1650,41,158
35.6,35.48,-1.77,-0.88,0.82,inf,inf,-3.35,-2.98,-1.93,-0.99,266.00,523.00,0.00,13.00,213.00,368.00,543.00,490.00,,,,,,,,,,,,1,1,1,,-4648,14836,-2908,104,918,272
35.641,35.54,-1.77,-0.09,1.63,nan,nan,-1.77,-5.01,-0.32,-2.37,251.00,496.00,0.00,0.00,231.00,365.00,568.00,477.00,,,,,,,,,,,,1,1,1,,-4172,15920,-3104,721,1042,-86
35.683,35.59,-1.85,2.43,-0.63,nan,nan,-3.27,-4.10,-1.78,-0.97,271.00,477.00,0.00,0.00,226.00,378.00,541.00,487.00,,,,,,,,,,,,1,1,1,,-4408,15224,-3692,600,-63,-393
35.744,35.65,-1.95,0.49,-0.05,nan,nan,-3.99,-3.53,-0.82,-1.94,272.00,507.00,0.00,0.00,222.00,383.00,560.00,481.00,,,,,,,,,,,,1,1,1,,-4508,14960,-3528,136,186,486
35.806,35.70,-1.94,-1.79,3.03,nan,nan,-1.74,-5.26,-2.22,-1.76,240.00,511.00,0.00,0.00,234.00,367.00,569.00,506.00,,,,,,,,,,,,1,1,1,,-4496,15476,-2616,-282,613,1108
35.868,35.76,-1.99,2.08,-0.59,nan,nan,-2.95,-5.17,-1.58,-2.33,272.00,483.00,0.00,0.00,238.00,384.00,580.00,501.00,,,,,,,,,,,,1,1,1,,-3860,16348,-3356,-592,1100,-497
35.931,35.81,-2.13,-0.11,-0.32,nan,nan,-4.83,-3.82,-3.68,-1.69,279.00,523.00,0.00,0.00,229.00,399.00,582.00,535.00,,,,,,,,,,,,1,1,1,,-3856,16004,-4056,-45,-394,-2188
35.972,35.87,-2.30,-1.87,0.81,nan,nan,-5.48,-3.60,-4.55,-0.81,271.00,544.00,0.00,0.00,229.00,407.00,564.00,541.00,,,,,,,,,,,,1,1,1,,-4268,15324,-4368,76,-2335,-2332
36.034,35.92,-2.31,-1.01,0.66,nan,nan,-2.47,-6.16,-0.63,-3.73,269.00,528.00,0.00,0.00,249.00,387.00,615.00,501.00,,,,,,,,,,,,1,1,1,,-5188,14648,-2268,1235,-1896,-1882
36.075,35.98,-2.41,2.43,-2.76,nan,nan,-4.34,-3.50,-4.75,-1.07,304.00,505.00,0.00,0.00,223.00,388.00,574.00,549.00,,,,,,,,,,,,1,1,1,,-5640,14244,-2472,580,-861,-3
36.138,36.03,-2.48,-2.17,1.26,inf,inf,-3.70,-2.78,-2.08,-1.45,266.00,544.00,0.00,4.00,212.00,371.00,558.00,499.00,,,,,,,,,,,,1,1,1,,-5324,15188,-2984,-864,962,1052
36.179,36.09,-2.42,-0.55,1.78,nan,nan,-1.33,-5.87,-0.48,-3.35,251.00,503.00,0.00,0.00,240.00,367.00,601.00,493.00,,,,,,,,,,,,1,1,1,,-5084,15844,-2980,-365,1858,403
36.241,36.14,-2.46,2.03,-1.49,nan,nan,-3.28,-3.69,-3.78,-1.04,286.00,496.00,0.00,0.00,221.00,374.00,563.00,528.00,,,,,,,,,,,,1,1,1,,-4596,15408,-4028,-296,526,-659
36.304,36.20,-2.52,-0.95,0.57,nan,nan,-3.63,-2.97,-1.63,-1.96,270.00,528.00,0.00,0.00,214.00,372.00,569.00,497.00,,,,,,,,,,,,1,1,1,,-4972,15424,-3340,-112,-662,-604
36.365,36.25,-2.49,-1.63,1.78,nan,nan,-1.91,-4.80,-2.17,-2.19,256.00,525.00,0.00,0.00,229.00,365.00,582.00,511.00,,,,,,,,,,,,1,1,1,,-5280,14860,-2668,-294,420,51
36.427,36.31,-2.50,1.39,-0.56,nan,nan,-2.72,-5.01,-3.06,-1.89,275.00,496.00,0.00,0.00,235.00,379.00,582.00,525.00,,,,,,,,,,,,1,1,1,,-4724,15352,-3620,-1216,1265,366
36.468,36.36,-2.59,-0.84,0.20,nan,nan,-4.36,-2.99,-3.22,-1.87,275.00,531.00,0.00,0.00,217.00,383.00,583.00,528.00,,,,,,,,,,,,1,1,1,,-4492,15900,-3384,-379,63,-418
36.51,36.42,-2.65,-3.21,2.32,nan,nan,-3.76,-3.77,-4.21,-1.25,256.00,551.00,0.00,0.00,224.00,382.00,574.00,540.00,,,,,,,,,,,,1,1,1,,-4948,15352,-3684,-16,-587,-1205
36.572,36.47,-2.58,-0.96,0.44,nan,nan,-1.20,-5.76,-0.85,-3.26,272.00,530.00,0.00,0.00,238.00,364.00,602.00,499.00,,,,,,,,,,,,1,1,1,,-5248,14516,-2752,-611,-356,-91
36.698,36.53,-2.61,1.93,-2.47,nan,nan,-3.11,-3.74,-4.61,-1.34,302.00,511.00,0.00,0.00,221.00,372.00,581.00,550.00,,,,,,,,,,,,1,1,1,,-5232,15176,-1860,-511,929,909
36.717,36.58,-2.61,-2.41,1.34,nan,nan,-2.68,-2.95,-2.54,-1.36,266.00,548.00,0.00,0.00,210.00,358.00,560.00,507.00,,,,,,,,,,,,1,1,1,,-4496,15836,-3564,-773,969,152
36.758,36.64,-2.52,-0.89,0.76,nan,nan,-0.72,-5.20,-0.49,-3.72,267.00,524.00,0.00,0.00,229.00,352.00,613.00,498.00,,,,,,,,,,,,1,1,1,,-4684,15416,-3140,-94,23,-77
36.801,36.69,-2.57,2.14,-2.47,nan,nan,-3.54,-3.00,-5.47,-0.40,301.00,507.00,0.00,0.00,214.00,371.00,561.00,555.00,,,,,,,,,,,,1,1,1,,-4576,15320,-2760,432,-323,-101
36.863,36.75,-2.63,-1.75,0.70,nan,nan,-3.81,-2.21,-1.74,-1.73,272.00,543.00,0.00,0.00,206.00,367.00,563.00,496.00,,,,,,,,,,,,1,1,1,,-4768,14968,-2672,321,304,310
36.925,36.80,-2.62,-1.76,1.83,nan,nan,-2.44,-3.72,-1.83,-2.62,256.00,527.00,0.00,0.00,218.00,362.00,592.00,510.00,,,,,,,,,,,,1,1,1,,-4828,15420,-2704,-503,1285,500
36.965,36.86,-2.65,0.85,-0.57,nan,nan,-3.27,-3.61,-3.68,-0.97,278.00,507.00,0.00,0.00,220.00,373.00,560.00,525.00,,,,,,,,,,,,1,1,1,,-4356,15796,-3600,27,328,-297
37.049,36.91,-2.78,-1.53,-0.04,nan,nan,-5.13,-1.94,-2.21,-1.99,282.00,549.00,0.00,0.00,208.00,384.00,576.00,509.00,,,,,,,,,,,,1,1,1,,-4740,15692,-3280,1043,-1048,-485
37.068,36.97,-2.73,-3.76,2.72,nan,nan,-1.87,-4.24,-3.29,-1.62,253.00,557.00,0.00,0.00,222.00,359.00,576.00,526.00,,,,,,,,,,,,1,1,1,,-5052,14744,-2228,293,-862,220
37.111,37.02,-2.68,1.20,-0.42,nan,nan,-1.76,-4.61,-1.47,-2.27,274.00,498.00,0.00,0.00,226.00,361.00,577.00,498.00,,,,,,,,,,,,1,1,1,,-4596,15212,-2708,-479,732,670
37.172,37.08,-2.71,-0.29,-0.19,nan,nan,-3.19,-3.12,-3.20,-1.97,278.00,525.00,0.00,0.00,214.00,367.00,586.00,529.00,,,,,,,,,,,,1,1,1,,-4360,15904,-3384,253,737,-1
37.233,37.13,-2.71,-2.11,0.89,nan,nan,-2.80,-3.08,-3.00,-0.97,271.00,548.00,0.00,0.00,212.00,361.00,553.00,511.00,,,,,,,,,,,,1,1,1,,-4372,15476,-3876,19,-108,-500
37.294,37.19,-2.62,-1.07,0.96,nan,nan,-0.93,-5.53,-0.20,-3.84,265.00,525.00,0.00,0.00,234.00,358.00,614.00,494.00,,,,,,,,,,,,1,1,1,,-4668,15148,-3060,-175,-173,-280
37.336,37.24,-2.69,1.05,-2.17,nan,nan,-3.93,-3.13,-5.25,-0.93,302.00,525.00,0.00,0.00,217.00,378.00,575.00,558.00,,,,,,,,,,,,1,1,1,,-4552,15248,-2920,-635,-423,-155
37.398,37.30,-2.72,-6.05,5.90,nan,nan,-3.29,-2.56,-2.38,-1.74,222.00,560.00,0.00,0.00,208.00,363.00,570.00,509.00,,,,,,,,,,,,1,1,1,,-5076,16108,-2920,-113,703,-378
37.46,37.35,-2.65,-1.32,0.76,nan,nan,-1.30,-5.09,-2.43,-3.24,269.00,533.00,0.00,0.00,230.00,359.00,619.00,531.00,,,,,,,,,,,,1,1,1,,-4668,14440,-2996,-305,479,-336
37.523,37.41,-2.66,-0.01,-0.68,nan,nan,-2.83,-4.25,-5.58,-1.05,284.00,526.00,0.00,0.00,226.00,373.00,582.00,567.00,,,,,,,,,,,,1,1,1,,-4696,16072,-3464,480,-21,180
37.585,37.46,-2.75,-1.75,0.50,nan,nan,-4.62,-2.12,-2.94,-2.28,275.00,546.00,0.00,0.00,208.00,378.00,593.00,528.00,,,,,,,,,,,,1,1,1,,-4700,15664,-2548,8,607,-135
37.646,37.52,-2.71,-2.66,3.09,nan,nan,-1.82,-3.58,-3.21,-2.09,243.00,528.00,0.00,0.00,214.00,352.00,590.00,531.00,,,,,,,,,,,,1,1,1,,-4588,15404,-3452,-192,312,-417
37.667,37.57,-2.70,1.76,-0.34,nan,nan,-2.49,-3.95,-1.62,-2.12,270.00,486.00,0.00,0.00,221.00,365.00,574.00,499.00,,,,,,,,,,,,1,1,1,,-4384,15108,-3396,170,102,-429
37.769,37.63,-2.74,0.48,-0.18,nan,nan,-3.65,-2.44,-2.17,-1.90,274.00,509.00,0.00,0.00,208.00,367.00,573.00,507.00,,,,,,,,,,,,1,1,1,,-5080,15316,-2340,2,374,29
37.79,37.68,-2.75,-1.82,1.77,nan,nan,-2.89,-3.57,-2.99,-0.84,257.00,529.00,0.00,0.00,218.00,367.00,549.00,509.00,,,,,,,,,,,,1,1,1,,-4936,15144,-3076,-291,1523,128
37.832,37.74,-2.68,-0.06,0.62,nan,nan,-1.35,-5.63,0.55,-3.33,265.00,509.00,0.00,0.00,237.00,365.00,589.00,473.00,,,,,,,,,,,,1,1,1,,-4412,15844,-3492,-380,1376,286
37.894,37.79,-2.77,0.55,-1.51,nan,nan,-4.34,-3.50,-3.75,-0.95,294.00,526.00,0.00,0.00,223.00,388.00,560.00,526.00,,,,,,,,,,,,1,1,1,,-4180,15544,-3896,577,-480,-433
37.935,37.85,-2.81,-2.89,1.71,nan,nan,-3.65,-3.65,-2.19,-0.84,263.00,553.00,0.00,0.00,222.00,379.00,541.00,493.00,,,,,,,,,,,,1,1,1,,-4624,15096,-3236,227,-642,-244
37.999,37.90,-2.75,-1.44,1.29,nan,nan,-1.60,-5.78,-0.09,-3.24,262.00,528.00,0.00,0.00,240.00,370.00,593.00,484.00,,,,,,,,,,,,1,1,1,,-4772,15392,-2712,-135,-338,200
38.061,37.96,-2.81,1.77,-2.23,nan,nan,-4.08,-3.50,-3.91,-0.56,299.00,511.00,0.00,0.00,222.00,384.00,550.00,524.00,,,,,,,,,,,,1,1,1,,-4540,15932,-3424,-548,196,-313
38.144,38.01,-2.85,-1.13,0.91,nan,nan,-3.58,-2.64,-0.31,-1.74,266.00,527.00,0.00,0.00,210.00,368.00,549.00,469.00,,,,,,,,,,,,1,1,1,,-4820,15564,-2592,-20,260,-357
38.166,38.07,-2.79,-1.20,2.45,nan,nan,-1.55,-3.24,-0.66,-2.09,245.00,507.00,0.00,0.00,209.00,345.00,563.00,480.00,,,,,,,,,,,,1,1,1,,-4520,15212,-3308,296,29,-119
38.226,38.12,-2.75,2.45,-0.50,nan,nan,-1.97,-3.79,-1.27,-1.35,269.00,475.00,0.00,0.00,217.00,356.00,547.00,482.00,,,,,,,,,,,,1,1,1,,-4740,15492,-3060,-179,-153,111
38.268,38.18,-2.78,0.76,-0.01,nan,nan,-3.35,-2.28,-1.24,-1.69,270.00,501.00,0.00,0.00,205.00,361.00,557.00,486.00,,,,,,,,,,,,1,1,1,,-4756,15296,-2772,151,179,-26
38.328,38.23,-2.72,-1.79,3.03,nan,nan,-1.74,-3.18,-1.68,-1.58,240.00,511.00,0.00,0.00,209.00,347.00,558.00,493.00,,,,,,,,,,,,1,1,1,,-4576,15248,-3476,-185,-108,254
38.391,38.29,-2.64,0.85,0.24,nan,nan,-0.94,-4.89,-0.51,-2.62,266.00,496.00,0.00,0.00,226.00,352.00,578.00,484.00,,,,,,,,,,,,1,1,1,,-4524,15456,-3148,630,495,623
38.433,38.34,-2.68,0.91,-0.59,nan,nan,-3.51,-2.76,-3.59,-1.81,278.00,506.00,0.00,0.00,211.00,368.00,585.00,535.00,,,,,,,,,,,,1,1,1,,-4300,15352,-3372,162,416,440
38.516,38.40,-2.64,-2.48,1.57,nan,nan,-1.80,-4.35,-2.89,-0.84,263.00,546.00,0.00,0.00,223.00,359.00,548.00,507.00,,,,,,,,,,,,1,1,1,,-4028,15532,-3836,15,433,-521
38.559,38.45,-2.55,-0.76,0.71,nan,nan,-0.87,-4.99,0.15,-3.75,267.00,522.00,0.00,0.00,227.00,352.00,607.00,486.00,,,,,,,,,,,,1,1,1,,-4508,15376,-3072,-434,-40,-811
38.6,38.51,-2.53,3.02,-2.27,nan,nan,-2.28,-2.90,-4.08,-0.74,293.00,487.00,0.00,0.00,208.00,352.00,557.00,530.00,,,,,,,,,,,,1,1,1,,-4596,15716,-3512,325,280,-99
38.664,38.56,-2.48,-1.26,1.23,nan,nan,-1.54,-2.15,-0.81,-1.64,262.00,525.00,0.00,0.00,197.00,335.00,551.00,477.00,,,,,,,,,,,,1,1,1,,-4480,15684,-3132,266,705,-277
38.725,38.62,-2.34,-0.28,2.37,nan,nan,0.31,-3.86,-0.69,-2.44,242.00,490.00,0.00,0.00,209.00,326.00,574.00,485.00,,,,,,,,,,,,1,1,1,,-4280,15212,-4112,-148,514,-696
38.766,38.67,-2.28,2.53,-0.40,nan,nan,-1.02,-2.70,-2.16,-1.25,267.00,472.00,0.00,0.00,201.00,333.00,553.00,498.00,,,,,,,,,,,,1,1,1,,-4568,14808,-3352,-366,220,-235
38.868,38.73,-2.26,0.79,0.33,nan,nan,-1.89,-1.75,-1.07,-1.95,265.00,496.00,0.00,0.00,194.00,336.00,563.00,486.00,,,,,,,,,,,,1,1,1,,-4712,15508,-3028,-229,461,-131
38.889,38.78,-2.13,-1.48,3.08,nan,nan,0.24,-3.30,-1.68,-1.81,238.00,504.00,0.00,0.00,203.00,322.00,565.00,496.00,,,,,,,,,,,,1,1,1,,-4296,15644,-3880,-486,145,-340
38.932,38.84,-2.07,1.92,-0.12,nan,nan,-0.86,-3.38,-0.77,-2.47,266.00,480.00,0.00,0.00,208.00,337.00,576.00,487.00,,,,,,,,,,,,1,1,1,,-4588,15708,-3288,-92,-502,-709
38.993,38.89,-2.10,0.85,-0.57,nan,nan,-2.73,-2.03,-3.36,-1.67,278.00,507.00,0.00,0.00,200.00,350.00,578.00,528.00,,,,,,,,,,,,1,1,1,,-4748,14744,-3112,-290,-563,-315
39.056,38.95,-2.09,-1.94,1.53,nan,nan,-1.83,-2.61,-3.96,-0.78,261.00,535.00,0.00,0.00,203.00,343.00,557.00,528.00,,,,,,,,,,,,1,1,1,,-4940,15424,-2596,-668,984,458
39.116,39.00,-1.95,0.94,-0.34,nan,nan,0.77,-4.54,0.75,-3.71,274.00,502.00,0.00,0.00,215.00,326.00,599.00,474.00,,,,,,,,,,,,1,1,1,,-4412,15424,-2736,-792,2079,1120
39.18,39.06,-1.94,2.41,-1.69,nan,nan,-1.85,-2.14,-3.93,-0.89,287.00,491.00,0.00,0.00,198.00,339.00,560.00,529.00,,,,,,,,,,,,1,1,1,,-3688,16136,-4112,-309,563,86
39.264,39.11,-1.85,-1.51,1.67,nan,nan,-0.15,-2.14,-0.79,-1.51,257.00,524.00,0.00,0.00,192.00,317.00,547.00,475.00,,,,,,,,,,,,1,1,1,,-3880,15756,-3708,306,-390,-727
39.283,39.17,-1.82,0.11,1.78,nan,nan,-1.12,0.00,0.66,-3.49,248.00,490.00,0.00,0.00,174.00,311.00,593.00,473.00,,,,,,,,,,,,1,1,1,,-4628,15116,-2764,264,-558,-497
39.324,39.22,-1.73,2.25,-0.37,nan,nan,-0.19,-2.79,-2.70,-0.90,268.00,477.00,0.00,0.00,199.00,323.00,548.00,504.00,,,,,,,,,,,,1,1,1,,-4896,15204,-2128,-110,1027,239
39.387,39.28,-1.68,0.41,0.67,nan,nan,-0.55,-1.91,-0.34,-2.10,262.00,499.00,0.00,0.00,191.00,320.00,560.00,474.00,,,,,,,,,,,,1,1,1,,-3916,15772,-4544,-402,1456,340
39.429,39.33,-1.55,-1.42,3.21,nan,nan,0.90,-3.34,-1.50,-2.00,236.00,501.00,0.00,0.00,201.00,314.00,569.00,495.00,,,,,,,,,,,,1,1,1,,-4120,15932,-3824,451,-263,-185
39.489,39.39,-1.48,2.24,-0.43,nan,nan,-0.19,-3.70,-1.59,-1.87,269.00,478.00,0.00,0.00,209.00,331.00,566.00,495.00,,,,,,,,,,,,1,1,1,,-4540,15216,-3180,163,-1100,-415
39.552,39.44,-1.49,0.30,0.01,nan,nan,-1.72,-1.99,-2.05,-2.01,272.00,510.00,0.00,0.00,196.00,336.00,575.00,506.00,,,,,,,,,,,,1,1,1,,-4700,15984,-3780,-83,84,117
39.615,39.50,-1.48,-1.82,1.85,nan,nan,-1.35,-2.21,-2.80,-1.27,256.00,528.00,0.00,0.00,197.00,333.00,560.00,511.00,,,,,,,,,,,,1,1,1,,-4500,15172,-2812,-204,-23,-183
39.656,39.55,-1.35,1.52,0.08,nan,nan,1.27,-4.01,-0.20,-3.69,265.00,485.00,0.00,0.00,207.00,315.00,609.00,492.00,,,,,,,,,,,,1,1,1,,-4480,15284,-3152,-1026,490,-240
39.698,39.61,-1.31,3.22,-1.96,nan,nan,-0.66,-1.97,-4.92,-1.55,287.00,479.00,0.00,0.00,192.00,322.00,591.00,560.00,,,,,,,,,,,,1,1,1,,-4252,15472,-3496,-960,226,-192
39.76,39.66,-1.23,-0.68,1.39,nan,nan,0.26,-1.79,-1.99,-1.51,257.00,511.00,0.00,0.00,187.00,309.00,559.00,498.00,,,,,,,,,,,,1,1,1,,-4184,15592,-3352,-468,-478,-255
39.823,39.72,-1.06,0.79,1.70,nan,nan,2.28,-4.17,0.00,-3.91,246.00,478.00,0.00,0.00,205.00,304.00,614.00,491.00,,,,,,,,,,,,1,1,1,,-4784,15324,-2456,-137,463,-258
39.864,39.77,-1.03,3.98,-1.89,nan,nan,-0.60,-1.60,-4.30,-0.76,282.00,464.00,0.00,0.00,188.00,318.00,560.00,535.00,,,,,,,,,,,,1,1,1,,-4560,15384,-2428,-322,1114,427
39.925,39.83,-1.01,1.49,0.45,nan,nan,-0.54,-0.61,-1.34,-2.31,260.00,481.00,0.00,0.00,178.00,309.00,577.00,496.00,,,,,,,,,,,,1,1,1,,-4068,15612,-3176,-451,1722,249
40.008,39.88,-0.89,-0.36,2.86,nan,nan,1.39,-2.85,-1.41,-2.73,236.00,485.00,0.00,0.00,194.00,304.00,591.00,503.00,,,,,,,,,,,,1,1,1,,-4068,15928,-3452,-631,1049,-394
40.029,39.94,-0.85,3.65,-0.84,nan,nan,-0.00,-2.48,-1.81,-1.23,268.00,457.00,0.00,0.00,195.00,318.00,549.00,491.00,,,,,,,,,,,,1,1,1,,-3888,15004,-3496,-242,-1113,-966
40.091,39.99,-0.86,1.88,-0.52,nan,nan,-1.23,-0.79,-1.08,-1.55,272.00,486.00,0.00,0.00,182.00,319.00,551.00,481.00,,,,,,,,,,,,1,1,1,,-4696,15112,-2300,245,-235,236
40.153,40.05,-0.76,0.05,2.80,nan,nan,1.33,-2.15,-0.88,-0.83,235.00,478.00,0.00,0.00,187.00,299.00,528.00,468.00,,,,,,,,,,,,1,1,1,,-4368,15696,-1936,-631,1757,736
40.195,40.10,-0.62,2.58,0.59,nan,nan,1.87,-2.82,2.07,-2.71,253.00,459.00,0.00,0.00,192.00,298.00,554.00,438.00,,,,,,,,,,,,1,1,1,,-3816,15916,-3936,-1124,942,-428
40.257,40.16,-0.60,4.17,-1.35,nan,nan,-0.09,-1.27,-2.17,-0.64,273.00,454.00,0.00,0.00,183.00,309.00,535.00,490.00,,,,,,,,,,,,1,1,1,,-3776,15820,-3832,52,-1474,-752
40.362,40.21,-0.51,1.04,1.10,nan,nan,1.18,-1.29,-0.64,-0.12,253.00,481.00,0.00,0.00,179.00,294.00,506.00,455.00,,,,,,,,,,,,1,1,1,,-4672,15184,-1464,671,-1147,-294
40.381,40.27,-0.35,2.31,1.81,nan,nan,2.56,-3.34,2.15,-3.16,238.00,449.00,0.00,0.00,195.00,294.00,567.00,442.00,,,,,,,,,,,,1,1,2,,-4420,15316,-2124,368,1064,494
40.445,40.32,-0.32,5.28,-1.66,nan,nan,0.33,-1.42,-2.04,-0.37,272.00,438.00,0.00,0.00,183.00,305.00,526.00,484.00,,,,,,,,,,,,1,1,2,,-3788,16024,-3772,455,707,-262
40.486,40.38,-0.31,0.92,1.36,nan,nan,-0.19,-0.52,0.39,-0.65,250.00,480.00,0.00,0.00,176.00,304.00,511.00,443.00,,,,,,,,,,,,1,1,2,,-4056,15736,-3820,936,-1414,-559
40.547,40.43,-0.19,0.87,1.98,nan,nan,2.17,-2.63,0.56,-2.07,242.00,473.00,0.00,0.00,189.00,293.00,550.00,457.00,,,,,,,,,,,,1,1,2,,-4356,14508,-2648,1025,-1761,-285
40.608,40.49,-0.19,4.82,-0.46,nan,nan,-0.10,-1.87,-0.79,-1.03,257.00,432.00,0.00,0.00,189.00,314.00,533.00,469.00,,,,,,,,,,,,1,1,2,,-4648,14824,-2336,640,59,1391
40.649,40.54,-0.20,0.89,0.86,nan,nan,-0.39,-0.35,1.01,-1.57,257.00,487.00,0.00,0.00,175.00,305.00,531.00,443.00,,,,,,,,,,,,1,1,2,,-4256,16272,-2732,-127,2038,2089
40.711,40.60,-0.09,0.17,3.72,nan,nan,1.98,-1.97,1.35,-2.73,223.00,464.00,0.00,0.00,183.00,290.00,562.00,451.00,,,,,,,,,,,,1,1,2,,-3328,16832,-4352,75,743,-116
40.752,40.65,0.01,3.50,0.79,nan,nan,1.81,-2.61,2.11,-2.42,246.00,440.00,0.00,0.00,190.00,297.00,545.00,434.00,,,,,,,,,,,,1,1,2,,-3756,15496,-3636,723,260,-647
