Time_Host,Time_Arduino,easingdata,CH1_Oxy,CH1_Deoxy,CH2_Oxy,CH2_Deoxy,CH3_Oxy,CH3_Deoxy,CH4_Oxy,CH4_Deoxy,CH1_PD730,CH1_PD850,CH2_PD730,CH2_PD850,CH3_PD730,CH3_PD850,CH4_PD730,CH4_PD850,Answers,airplane_playstate,trail_times,frameRate,Airplane X,Airplane Y,Correct,Wrong,Slow,AnswerRate,CorrectRate,VFTstates,VFTchoose,VFTCount,Culfstates,ax,ay,az,gx,gy,gz
1.232,0.04,0.00,0.00,0.00,0.00,0.00,0.00,0.00,0.00,0.00,400.00,559.00,784.00,533.00,1423.00,2687.00,1277.00,1633.00,,,,,,,,,,,,0,0,0,,-296,15576,3380,-187,64,-116
1.252,0.10,0.00,0.00,0.00,0.00,0.00,0.00,0.00,0.00,0.00,286.00,678.00,624.00,807.00,1313.00,2541.00,1280.00,1481.00,,,,,,,,,,,,0,0,0,,-240,15628,3408,-197,130,-156
1.272,0.15,0.00,0.00,0.00,0.00,0.00,0.00,0.00,0.00,0.00,259.00,559.00,486.00,649.00,1579.00,2396.00,1470.00,1439.00,,,,,,,,,,,,0,0,0,,-208,15676,3364,-168,147,-208
1.293,0.21,0.00,0.00,0.00,0.00,0.00,0.00,0.00,0.00,0.00,428.00,474.00,745.00,464.00,1458.00,2640.00,1307.00,1641.00,,,,,,,,,,,,0,0,0,,-240,15616,3320,-52,62,-169
1.315,0.26,0.00,0.00,0.00,0.00,0.00,0.00,0.00,0.00,0.00,306.00,610.00,653.00,644.00,1257.00,2608.00,1198.00,1526.00,,,,,,,,,,,,0,0,0,,-284,15592,3328,-46,88,-104
1.335,1.05,0.00,0.00,0.00,0.00,0.00,0.00,0.00,0.00,0.00,178.00,613.00,477.00,768.00,1392.00,2478.00,1328.00,1408.00,,,,,,,,,,,,0,0,0,,-132,15504,3380,-100,172,-155
1.419,1.11,0.00,0.00,0.00,0.00,0.00,0.00,0.00,0.00,0.00,305.00,544.00,567.00,624.00,1584.00,2517.00,1373.00,1535.00,,,,,,,,,,,,0,0,0,,-260,15648,3296,-16,118,-172
1.44,1.16,0.00,0.00,0.00,0.00,0.00,0.00,0.00,0.00,0.00,393.00,576.00,781.00,576.00,1427.00,2742.00,1281.00,1681.00,,,,,,,,,,,,0,0,0,,-264,15716,3376,-37,123,-130
1.461,1.22,0.00,0.00,0.00,0.00,0.00,0.00,0.00,0.00,0.00,289.00,695.00,626.00,816.00,1328.00,2607.00,1287.00,1535.00,,,,,,,,,,,,0,0,0,,-284,15596,3364,-68,152,-175
1.503,1.27,0.00,0.00,0.00,0.00,0.00,0.00,0.00,0.00,0.00,260.00,571.00,471.00,667.00,1581.00,2461.00,1469.00,1467.00,,,,,,,,,,,,0,0,0,,-356,15576,3448,-114,160,-173
1.566,1.33,-0.05,11.05,-9.43,12.30,-7.34,-0.91,-0.13,-2.85,1.17,423.00,489.00,739.00,490.00,1469.00,2672.00,1312.00,1665.00,,,,,,,,,,,,0,0,0,,-332,15688,3376,-132,122,-148
1.628,1.38,-0.21,-1.92,0.61,-0.26,-1.08,-3.32,3.29,-2.67,2.76,311.00,624.00,662.00,681.00,1275.00,2681.00,1200.00,1584.00,,,,,,,,,,,,0,0,0,,-368,15696,3436,-80,140,-147
1.689,1.44,-0.13,-6.60,9.35,-8.92,9.42,1.44,-0.55,2.84,-1.45,211.00,594.00,439.00,724.00,1439.00,2461.00,1363.00,1426.00,,,,,,,,,,,,0,0,0,,-360,15732,3332,-39,194,-184
1.752,1.49,-0.09,9.94,-4.70,9.88,-2.92,0.65,-1.26,-0.90,-0.08,334.00,450.00,608.00,479.00,1517.00,2588.00,1355.00,1594.00,,,,,,,,,,,,0,0,0,,-284,15624,3312,-209,179,-135
1.773,1.55,-0.26,-0.47,-0.75,3.58,-3.67,-3.54,3.42,-3.63,3.75,326.00,611.00,710.00,627.00,1271.00,2695.00,1157.00,1602.00,,,,,,,,,,,,0,0,0,,-272,15600,3360,-178,145,-151
1.855,1.60,-0.26,-11.15,13.11,-9.58,7.42,-0.28,0.83,1.02,-0.30,187.00,643.00,495.00,784.00,1378.00,2539.00,1324.00,1486.00,,,,,,,,,,,,0,0,0,,-356,15652,3404,-197,180,-150
1.896,1.66,-0.13,1.87,-0.55,-0.71,2.19,2.35,-2.55,1.10,-1.63,309.00,554.00,559.00,635.00,1578.00,2506.00,1421.00,1535.00,,,,,,,,,,,,0,0,0,,-316,15716,3436,-146,202,-129
1.958,1.71,-0.24,5.48,-6.66,8.14,-7.03,-2.28,0.87,-3.70,1.95,403.00,566.00,784.00,573.00,1426.00,2745.00,1277.00,1686.00,,,,,,,,,,,,0,0,0,,-236,15764,3292,-138,184,-198
2.021,1.77,-0.33,-7.45,3.70,-9.29,2.90,-1.99,2.54,-0.38,1.04,291.00,715.00,629.00,875.00,1296.00,2595.00,1263.00,1515.00,,,,,,,,,,,,0,0,0,,-220,15664,3244,-194,118,-217
2.064,1.82,-0.14,-3.37,5.73,-6.17,7.59,3.40,-2.60,3.52,-2.77,242.00,576.00,461.00,682.00,1552.00,2407.00,1446.00,1438.00,,,,,,,,,,,,0,0,0,,-256,15540,3440,-271,93,-212
2.126,1.88,-0.14,10.05,-8.34,11.81,-6.38,-0.20,-0.29,-1.36,0.57,406.00,494.00,708.00,487.00,1462.00,2608.00,1319.00,1595.00,,,,,,,,,,,,0,0,0,,-296,15584,3320,-280,154,-248
2.166,1.93,-0.29,-2.18,1.00,0.10,-1.18,-3.01,3.37,-2.39,2.99,306.00,624.00,661.00,673.00,1262.00,2642.00,1179.00,1557.00,,,,,,,,,,,,0,0,0,,-408,15748,3464,-242,193,-231
2.228,1.99,-0.18,-8.13,11.60,-8.77,9.03,1.79,-0.46,3.27,-1.38,192.00,594.00,447.00,727.00,1423.00,2422.00,1347.00,1399.00,,,,,,,,,,,,0,0,0,,-340,15724,3424,-127,157,-208
2.29,2.04,-0.15,10.04,-4.84,10.46,-3.39,0.56,-1.15,-1.17,0.17,336.00,450.00,617.00,474.00,1511.00,2590.00,1343.00,1600.00,,,,,,,,,,,,0,0,0,,-392,15548,3392,-162,149,-138
2.35,2.10,-0.31,0.39,-1.70,3.91,-4.21,-3.47,2.80,-3.88,3.77,338.00,606.00,727.00,628.00,1313.00,2733.00,1161.00,1617.00,,,,,,,,,,,,0,0,0,,-356,15592,3252,-224,161,-169
2.412,2.15,-0.35,-10.45,10.82,-10.38,6.43,-1.04,1.12,0.29,-0.07,209.00,665.00,530.00,831.00,1376.00,2597.00,1325.00,1520.00,,,,,,,,,,,,0,0,0,,-292,15664,3432,-337,142,-184
2.472,2.21,-0.24,0.79,0.12,-2.07,2.82,1.91,-2.55,0.83,-1.90,304.00,568.00,554.00,659.00,1590.00,2549.00,1449.00,1563.00,,,,,,,,,,,,0,0,0,,-336,15540,3424,-238,182,-158
2.492,2.26,-0.38,4.95,-6.67,8.31,-7.49,-3.18,1.46,-4.41,1.94,407.00,578.00,801.00,576.00,1404.00,2800.00,1295.00,1735.00,,,,,,,,,,,,0,0,0,,-200,15520,3500,-198,203,-170
2.554,2.32,-0.50,-7.42,3.50,-7.17,1.87,-2.71,2.54,-1.71,1.72,294.00,718.00,640.00,827.00,1313.00,2670.00,1247.00,1568.00,,,,,,,,,,,,0,0,0,,-292,15608,3476,-154,190,-271
2.615,2.37,-0.34,-4.09,5.89,-6.78,8.00,2.60,-2.01,3.36,-2.72,243.00,590.00,456.00,691.00,1525.00,2445.00,1446.00,1445.00,,,,,,,,,,,,0,0,0,,-376,15512,3448,-245,127,-198
2.656,2.43,-0.34,6.31,-3.64,10.30,-4.15,-0.35,-0.27,-1.71,0.94,337.00,505.00,645.00,487.00,1465.00,2623.00,1301.00,1601.00,,,,,,,,,,,,0,0,0,,-448,15620,3516,-166,122,-214
2.717,2.48,-0.50,-1.66,0.23,0.37,-1.63,-3.44,3.75,-2.56,3.23,316.00,624.00,674.00,674.00,1246.00,2660.00,1167.00,1557.00,,,,,,,,,,,,0,0,0,,-404,15584,3664,-98,184,-145
2.78,2.54,-0.38,-8.84,12.53,-9.66,10.09,1.89,-0.28,3.72,-1.42,185.00,596.00,429.00,732.00,1407.00,2401.00,1339.00,1376.00,,,,,,,,,,,,0,0,0,,-484,15568,3580,-93,187,-157
2.841,2.59,-0.31,10.38,-4.68,8.40,-2.33,1.05,-1.43,-0.56,-0.07,331.00,442.00,605.00,500.00,1520.00,2559.00,1346.00,1572.00,,,,,,,,,,,,0,0,0,,-440,15616,3280,-77,145,-197
2.881,2.65,-0.47,0.58,-1.49,4.49,-4.41,-3.49,2.80,-3.95,3.51,333.00,598.00,727.00,617.00,1313.00,2734.00,1179.00,1633.00,,,,,,,,,,,,0,0,0,,-348,15540,3404,-212,110,-190
2.943,2.70,-0.50,-7.09,5.03,-8.17,3.70,-1.08,1.42,1.43,-0.17,269.00,680.00,590.00,819.00,1354.00,2579.00,1305.00,1457.00,,,,,,,,,,,,0,0,0,,-300,15600,3592,-260,113,-219
2.985,2.76,-0.37,0.85,0.10,-2.27,3.39,2.13,-2.33,1.58,-1.98,304.00,567.00,539.00,654.00,1565.00,2512.00,1435.00,1520.00,,,,,,,,,,,,0,0,0,,-404,15584,3624,-193,150,-214
3.048,2.81,-0.47,6.20,-7.40,9.80,-7.61,-2.39,0.79,-4.15,2.05,414.00,561.00,785.00,545.00,1435.00,2763.00,1281.00,1712.00,,,,,,,,,,,,0,0,0,,-388,15584,3680,-145,153,-219
3.109,2.87,-0.58,-7.68,4.29,-6.86,1.82,-2.73,2.99,-1.32,1.98,283.00,710.00,638.00,818.00,1282.00,2640.00,1221.00,1533.00,,,,,,,,,,,,0,0,0,,-472,15624,3600,-73,150,-183
3.233,2.92,-0.47,-6.05,9.43,-7.21,8.47,1.72,-1.25,2.61,-1.89,208.00,580.00,448.00,694.00,1487.00,2480.00,1402.00,1456.00,,,,,,,,,,,,0,0,0,,-520,15628,3568,-141,149,-184
3.253,2.98,-0.46,6.98,-3.81,10.87,-4.14,-0.45,-0.42,-0.76,0.34,336.00,494.00,638.00,476.00,1479.00,2643.00,1321.00,1567.00,,,,,,,,,,,,0,0,0,,-372,15584,3536,-192,124,-189
3.313,3.03,-0.63,-2.45,1.21,0.79,-1.85,-3.82,3.63,-3.03,3.27,304.00,627.00,677.00,667.00,1263.00,2709.00,1175.00,1585.00,,,,,,,,,,,,0,0,0,,-316,15588,3688,-172,158,-161
3.334,3.09,-0.55,-10.38,14.61,-10.06,9.63,1.03,-0.05,3.25,-1.45,170.00,599.00,443.00,753.00,1411.00,2468.00,1353.00,1403.00,,,,,,,,,,,,0,0,0,,-476,15588,3580,-195,204,-166
3.375,3.14,-0.48,10.06,-4.63,6.76,-1.60,0.74,-1.45,-0.64,-0.24,332.00,447.00,599.00,523.00,1531.00,2593.00,1360.00,1584.00,,,,,,,,,,,,0,0,0,,-432,15544,3532,-190,173,-129
3.437,3.20,-0.61,1.21,-2.36,5.01,-5.23,-2.97,1.64,-4.46,2.72,345.00,597.00,753.00,618.00,1385.00,2763.00,1242.00,1702.00,,,,,,,,,,,,0,0,0,,-412,15500,3608,-264,82,-160
3.499,3.25,-0.65,-6.81,4.73,-8.32,3.57,-1.51,1.83,0.21,0.40,272.00,678.00,596.00,827.00,1335.00,2595.00,1294.00,1506.00,,,,,,,,,,,,0,0,0,,-396,15592,3504,-246,134,-142
3.582,3.31,-0.49,0.91,0.20,-3.18,4.29,2.66,-2.66,1.96,-2.14,302.00,564.00,522.00,662.00,1578.00,2482.00,1438.00,1504.00,,,,,,,,,,,,0,0,0,,-412,15544,3748,-229,185,-175
3.602,3.36,-0.56,7.48,-8.14,11.70,-8.01,-2.00,0.77,-3.67,1.97,421.00,544.00,775.00,511.00,1427.00,2723.00,1275.00,1683.00,,,,,,,,,,,,0,0,0,,-416,15576,3572,-220,192,-158
3.664,3.42,-0.67,-6.65,2.99,-5.29,1.24,-2.77,3.37,-1.36,2.28,298.00,706.00,640.00,781.00,1257.00,2618.00,1202.00,1523.00,,,,,,,,,,,,0,0,0,,-388,15592,3580,-185,138,-182
3.705,3.47,-0.54,-6.16,9.46,-7.44,8.55,1.99,-0.58,2.66,-1.13,208.00,582.00,448.00,699.00,1427.00,2410.00,1344.00,1424.00,,,,,,,,,,,,0,0,0,,-532,15616,3624,-254,51,-152
3.766,3.53,-0.52,8.25,-4.29,10.97,-4.06,-0.11,-0.39,-1.55,0.80,337.00,476.00,634.00,473.00,1468.00,2606.00,1307.00,1597.00,,,,,,,,,,,,0,0,0,,-484,15548,3816,-211,106,-199
3.829,3.58,-0.68,-1.22,0.74,1.72,-2.43,-3.82,4.00,-3.31,3.72,305.00,605.00,687.00,653.00,1238.00,2683.00,1152.00,1583.00,,,,,,,,,,,,0,0,0,,-512,15632,3772,-177,175,-208
3.87,3.64,-0.60,-10.49,15.08,-10.45,10.40,1.07,0.19,3.72,-1.44,166.00,594.00,428.00,749.00,1392.00,2449.00,1341.00,1377.00,,,,,,,,,,,,0,0,0,,-476,15448,3836,-91,127,-169
3.972,3.69,-0.51,8.81,-3.92,6.21,-0.78,1.16,-1.58,0.00,-0.74,327.00,461.00,579.00,523.00,1530.00,2559.00,1381.00,1565.00,,,,,,,,,,,,0,0,0,,-516,15520,3676,-85,141,-148
3.992,3.75,-0.63,3.26,-4.88,8.85,-7.22,-2.95,1.32,-3.81,2.18,381.00,589.00,782.00,560.00,1409.00,2785.00,1264.00,1683.00,,,,,,,,,,,,0,0,0,,-488,15520,3620,-167,152,-187
4.054,3.80,-0.70,-6.51,4.56,-7.63,2.91,-2.05,2.03,0.56,0.18,273.00,673.00,610.00,819.00,1334.00,2637.00,1301.00,1494.00,,,,,,,,,,,,0,0,0,,-472,15568,3612,-168,115,-168
4.096,3.86,-0.56,-0.54,2.22,-3.60,4.39,2.21,-2.58,1.98,-2.52,278.00,566.00,523.00,671.00,1584.00,2521.00,1467.00,1518.00,,,,,,,,,,,,0,0,0,,-512,15492,3624,-120,117,-187
4.158,3.91,-0.64,8.10,-8.57,10.59,-7.59,-2.33,0.59,-4.17,1.81,426.00,537.00,773.00,528.00,1449.00,2771.00,1298.00,1724.00,,,,,,,,,,,,0,0,0,,-448,15548,3680,-112,143,-250
4.221,3.97,-0.77,-5.86,2.79,-4.33,0.74,-3.07,3.37,-1.67,2.45,297.00,688.00,646.00,762.00,1264.00,2649.00,1198.00,1535.00,,,,,,,,,,,,0,0,0,,-388,15548,3756,-191,75,-179
4.262,4.02,-0.65,-6.27,9.95,-8.13,9.45,1.63,-0.42,3.06,-1.31,203.00,577.00,432.00,701.00,1424.00,2434.00,1347.00,1408.00,,,,,,,,,,,,0,0,0,,-564,15504,3764,-139,50,-194
4.326,4.08,-0.61,8.89,-4.45,11.29,-3.82,-0.01,-0.44,-1.16,0.64,336.00,466.00,622.00,464.00,1469.00,2599.00,1309.00,1579.00,,,,,,,,,,,,0,0,0,,-536,15556,3824,-36,156,-134
4.389,4.13,-0.78,-0.74,0.45,2.13,-2.46,-3.84,4.14,-3.00,3.93,307.00,598.00,683.00,643.00,1229.00,2675.00,1133.00,1555.00,,,,,,,,,,,,0,0,0,,-528,15596,3584,-44,185,-162
4.429,4.19,-0.69,-10.87,15.78,-9.44,9.22,0.90,0.45,3.43,-1.04,161.00,592.00,448.00,743.00,1377.00,2448.00,1319.00,1378.00,,,,,,,,,,,,0,0,0,,-436,15616,3612,-82,124,-228
4.471,4.24,-0.57,8.14,-3.19,3.99,0.61,1.76,-2.06,0.66,-0.99,318.00,464.00,559.00,550.00,1553.00,2531.00,1383.00,1535.00,,,,,,,,,,,,0,0,0,,-496,15460,3728,-138,67,-222
4.533,4.30,-0.68,4.02,-4.84,7.42,-6.74,-2.70,1.39,-3.36,2.03,375.00,571.00,782.00,585.00,1397.00,2752.00,1264.00,1660.00,,,,,,,,,,,,0,0,0,,-536,15572,3692,-187,66,-175
4.615,4.35,-0.73,-6.36,4.51,-7.68,3.17,-1.72,2.03,-0.14,0.71,273.00,670.00,602.00,815.00,1326.00,2603.00,1280.00,1514.00,,,,,,,,,,,,0,0,0,,-576,15460,3856,-140,131,-204
4.679,4.41,-0.56,-1.09,3.22,-4.01,5.74,2.67,-2.43,2.86,-2.69,266.00,563.00,490.00,658.00,1558.00,2466.00,1457.00,1473.00,,,,,,,,,,,,0,0,0,,-568,15464,3668,-114,136,-229
4.7,4.46,-0.62,10.52,-9.56,12.51,-8.09,-1.74,0.40,-3.65,1.89,430.00,501.00,767.00,496.00,1449.00,2722.00,1280.00,1685.00,,,,,,,,,,,,0,0,0,,-516,15468,3800,-165,132,-142
4.742,4.52,-0.75,-3.04,2.09,-1.53,-0.17,-3.32,3.51,-2.11,2.57,293.00,627.00,645.00,699.00,1260.00,2665.00,1200.00,1557.00,,,,,,,,,,,,0,0,0,,-472,15448,3684,-148,118,-124
4.804,4.57,-0.64,-7.74,11.09,-8.62,9.92,1.41,-0.38,2.86,-1.40,196.00,593.00,425.00,706.00,1427.00,2453.00,1359.00,1423.00,,,,,,,,,,,,0,0,0,,-536,15460,3820,-141,85,-78
4.866,4.63,-0.63,9.77,-4.19,10.25,-3.23,-0.29,-0.52,-1.67,0.56,326.00,447.00,614.00,476.00,1483.00,2634.00,1327.00,1615.00,,,,,,,,,,,,0,0,0,,-460,15512,3896,-127,125,-118
4.929,4.68,-0.82,-0.43,-1.04,2.38,-3.52,-4.60,3.87,-4.15,4.10,331.00,615.00,720.00,655.00,1265.00,2777.00,1146.00,1620.00,,,,,,,,,,,,0,0,0,,-504,15472,3880,-61,191,-74
4.99,4.74,-0.79,-12.49,16.32,-10.25,8.84,-0.12,0.82,2.19,-0.75,161.00,622.00,464.00,775.00,1375.00,2524.00,1328.00,1436.00,,,,,,,,,,,,0,0,0,,-468,15360,3856,-152,168,-102
5.072,4.79,-0.66,2.24,-0.06,-0.57,2.28,1.80,-2.26,1.08,-1.60,299.00,539.00,555.00,630.00,1569.00,2541.00,1419.00,1535.00,,,,,,,,,,,,0,0,0,,-492,15536,3800,-168,92,-115
5.092,4.85,-0.76,3.91,-5.00,7.88,-6.51,-2.71,1.23,-3.68,2.12,379.00,576.00,766.00,571.00,1410.00,2766.00,1265.00,1677.00,,,,,,,,,,,,0,0,0,,-492,15508,3808,-132,161,-102
5.132,4.90,-0.78,-6.79,3.99,-7.15,2.48,-1.19,2.26,-0.41,0.89,283.00,691.00,619.00,813.00,1297.00,2533.00,1274.00,1523.00,,,,,,,,,,,,0,0,0,,-444,15568,3676,-167,162,-171
5.216,4.96,-0.60,-2.11,4.93,-4.92,6.46,2.89,-2.51,2.87,-2.55,247.00,560.00,479.00,669.00,1559.00,2450.00,1446.00,1467.00,,,,,,,,,,,,0,0,0,,-524,15576,3840,-121,137,-116
5.236,5.01,-0.63,10.35,-8.93,12.92,-7.24,-1.24,0.35,-2.75,1.41,417.00,496.00,727.00,477.00,1439.00,2671.00,1293.00,1648.00,,,,,,,,,,,,0,0,0,,-592,15460,3624,-151,123,-125
5.299,5.07,-0.77,-2.46,1.64,-0.09,-0.94,-3.41,3.78,-2.47,2.98,297.00,620.00,655.00,674.00,1244.00,2656.00,1181.00,1562.00,,,,,,,,,,,,0,0,0,,-544,15488,3844,-185,116,-131
5.362,5.12,-0.66,-6.96,10.64,-8.73,9.65,1.49,-0.19,2.84,-1.27,198.00,582.00,432.00,714.00,1410.00,2433.00,1350.00,1419.00,,,,,,,,,,,,0,0,0,,-464,15484,3864,-157,175,-111
5.423,5.18,-0.62,10.50,-4.61,10.32,-3.10,0.19,-0.76,-1.36,0.23,329.00,439.00,609.00,473.00,1489.00,2601.00,1343.00,1609.00,,,,,,,,,,,,0,0,0,,-464,15504,3848,-74,185,-190
5.486,5.23,-0.79,-0.42,0.10,3.60,-3.75,-4.00,3.61,-4.09,4.03,311.00,596.00,713.00,628.00,1269.00,2731.00,1149.00,1619.00,,,,,,,,,,,,0,0,0,,-544,15460,3816,-50,142,-182
5.547,5.29,-0.80,-12.03,14.52,-10.03,7.43,-1.14,1.18,0.27,-0.02,176.00,641.00,499.00,798.00,1374.00,2603.00,1322.00,1519.00,,,,,,,,,,,,0,0,0,,-500,15496,3756,-138,127,-112
5.588,5.34,-0.68,0.70,0.58,-1.32,2.40,1.58,-2.20,0.33,-1.42,297.00,563.00,559.00,647.00,1570.00,2559.00,1424.00,1573.00,,,,,,,,,,,,0,0,0,,-488,15564,3752,-123,181,-117
5.651,5.40,-0.80,4.38,-5.83,7.97,-6.78,-2.99,1.14,-4.22,2.01,393.00,578.00,776.00,573.00,1424.00,2803.00,1285.00,1718.00,,,,,,,,,,,,0,0,0,,-428,15512,3756,-181,139,-94
5.712,5.45,-0.91,-8.18,4.20,-7.50,2.18,-3.03,2.86,-1.59,1.56,287.00,726.00,633.00,831.00,1298.00,2681.00,1255.00,1567.00,,,,,,,,,,,,0,0,0,,-420,15496,3756,-146,121,-119
5.753,5.51,-0.75,-3.93,6.30,-6.77,8.03,2.24,-2.01,2.53,-2.63,237.00,580.00,455.00,690.00,1535.00,2480.00,1461.00,1490.00,,,,,,,,,,,,0,0,0,,-452,15436,3872,-204,164,-234
5.815,5.56,-0.75,8.08,-6.70,10.88,-5.70,-0.66,-0.06,-2.08,1.09,385.00,511.00,694.00,496.00,1456.00,2640.00,1299.00,1618.00,,,,,,,,,,,,0,0,0,,-556,15476,3928,-181,89,-175
5.861,5.62,-0.89,-2.51,1.60,0.10,-1.18,-3.58,3.80,-2.65,3.01,298.00,622.00,661.00,673.00,1246.00,2672.00,1183.00,1572.00,,,,,,,,,,,,0,0,0,,-576,15436,3952,-25,115,-113
5.924,5.67,-0.78,-9.05,12.90,-9.67,10.58,1.41,-0.07,3.16,-1.30,182.00,595.00,418.00,723.00,1403.00,2433.00,1344.00,1402.00,,,,,,,,,,,,0,0,0,,-504,15456,3848,108,207,-124
5.964,5.73,-0.70,14.38,-5.63,9.63,-2.47,0.76,-1.00,-1.00,0.03,324.00,387.00,596.00,478.00,1493.00,2559.00,1349.00,1595.00,,,,,,,,,,,,0,0,0,,-496,15516,3792,54,182,-134
6.028,5.78,-0.86,0.85,-1.64,4.28,-4.16,-3.98,3.37,-3.84,3.65,334.00,594.00,720.00,618.00,1285.00,2746.00,1168.00,1620.00,,,,,,,,,,,,0,0,0,,-504,15332,3740,101,124,-170
6.068,5.84,-0.89,-7.58,6.25,-8.74,4.83,-1.39,1.63,0.13,0.17,254.00,671.00,561.00,813.00,1347.00,2597.00,1312.00,1520.00,,,,,,,,,,,,0,0,0,,-484,15540,3696,71,69,-25
6.151,5.89,-0.74,0.55,1.01,-1.80,3.17,2.10,-2.33,1.17,-1.74,291.00,560.00,541.00,646.00,1566.00,2515.00,1427.00,1535.00,,,,,,,,,,,,0,0,0,,-480,15556,3832,41,187,-53
6.171,5.95,-0.85,5.06,-6.71,8.91,-7.24,-2.85,1.22,-4.35,2.10,407.00,576.00,782.00,559.00,1414.00,2782.00,1282.00,1723.00,,,,,,,,,,,,0,0,0,,-472,15552,3760,27,330,-99
6.232,6.00,-0.95,-8.27,4.75,-4.49,1.46,-2.98,3.26,-1.98,2.31,279.00,718.00,623.00,752.00,1269.00,2647.00,1214.00,1560.00,,,,,,,,,,,,0,0,0,,-548,15568,3560,40,226,-133
6.293,6.06,-0.81,-5.49,8.80,-7.16,8.29,1.97,-1.38,2.40,-2.14,213.00,577.00,452.00,696.00,1491.00,2465.00,1426.00,1478.00,,,,,,,,,,,,0,0,0,,-484,15568,3688,-50,110,-106
6.355,6.11,-0.80,7.14,-3.37,10.07,-3.82,-0.66,-0.23,-2.22,0.82,327.00,485.00,636.00,487.00,1470.00,2652.00,1322.00,1639.00,,,,,,,,,,,,0,0,0,,-532,15508,3556,-248,121,-158
6.416,6.17,-0.96,-3.23,1.78,0.30,-1.41,-3.98,3.76,-3.44,3.40,299.00,637.00,667.00,672.00,1258.00,2717.00,1175.00,1605.00,,,,,,,,,,,,0,0,0,,-432,15540,3536,-264,186,-215
6.539,6.22,-0.87,-11.88,15.67,-10.50,10.33,0.85,0.12,2.79,-1.27,165.00,618.00,430.00,752.00,1403.00,2475.00,1351.00,1422.00,,,,,,,,,,,,0,0,0,,-540,15556,3880,-228,123,-180
6.559,6.28,-0.81,9.89,-4.46,8.31,-1.90,0.27,-1.23,-1.31,-0.00,330.00,448.00,592.00,496.00,1525.00,2625.00,1359.00,1616.00,,,,,,,,,,,,0,0,0,,-504,15488,3768,-156,113,-181
6.58,6.33,-0.96,0.25,-1.44,4.24,-4.58,-3.82,2.23,-4.27,2.70,334.00,605.00,737.00,626.00,1363.00,2814.00,1239.00,1690.00,,,,,,,,,,,,0,0,0,,-484,15380,3764,-202,102,-255
6.62,6.39,-1.01,-7.35,4.98,-8.29,3.53,-2.00,2.28,-0.28,0.43,271.00,688.00,597.00,827.00,1315.00,2615.00,1303.00,1534.00,,,,,,,,,,,,0,0,0,,-536,15376,3820,-266,65,-238
6.684,6.44,-0.85,1.39,0.92,-3.64,4.23,2.20,-2.45,1.44,-2.13,288.00,543.00,528.00,675.00,1573.00,2513.00,1451.00,1535.00,,,,,,,,,,,,0,0,0,,-604,15480,3868,-146,114,-165
6.746,6.50,-0.94,6.67,-7.83,10.17,-7.41,-2.57,1.00,-4.20,2.08,420.00,557.00,771.00,534.00,1424.00,2768.00,1280.00,1714.00,,,,,,,,,,,,0,0,0,,-472,15568,3712,-105,172,-125
6.786,6.55,-1.05,-6.92,3.65,-6.16,1.67,-3.11,3.62,-1.84,2.22,289.00,701.00,635.00,799.00,1248.00,2636.00,1217.00,1555.00,,,,,,,,,,,,0,0,0,,-444,15540,3608,-110,159,-88
6.889,6.61,-0.91,-5.31,8.14,-7.61,8.68,1.67,-0.40,2.31,-1.01,220.00,583.00,446.00,701.00,1422.00,2430.00,1344.00,1439.00,,,,,,,,,,,,0,0,0,,-512,15540,3548,-151,93,-152
6.91,6.66,-0.88,7.58,-4.01,11.26,-4.01,-0.24,-0.22,-1.95,0.95,336.00,485.00,629.00,467.00,1458.00,2608.00,1306.00,1616.00,,,,,,,,,,,,0,0,0,,-440,15472,3552,-219,82,-174
6.952,6.72,-1.02,-1.49,0.89,0.83,-1.86,-3.73,4.06,-3.68,3.85,304.00,609.00,677.00,666.00,1232.00,2669.00,1152.00,1601.00,,,,,,,,,,,,0,0,0,,-504,15404,3904,-235,128,-195
7.014,6.77,-0.92,-11.76,15.18,-10.62,10.46,0.98,0.30,3.02,-1.11,169.00,623.00,428.00,753.00,1386.00,2450.00,1334.00,1403.00,,,,,,,,,,,,0,0,0,,-484,15476,3808,-211,153,-240
7.096,6.83,-0.82,8.62,-3.40,5.26,-0.37,1.06,-1.44,-0.81,-0.10,319.00,458.00,576.00,537.00,1521.00,2559.00,1354.00,1589.00,,,,,,,,,,,,0,0,0,,-588,15444,3716,-126,105,-216
7.136,6.88,-0.93,1.81,-2.93,5.86,-5.57,-2.98,1.55,-4.27,2.34,352.00,592.00,755.00,603.00,1392.00,2771.00,1264.00,1707.00,,,,,,,,,,,,0,0,0,,-460,15460,3896,-120,119,-170
7.176,6.94,-0.98,-6.97,4.58,-8.34,3.24,-1.86,1.92,-0.39,0.57,275.00,685.00,607.00,835.00,1337.00,2625.00,1296.00,1535.00,,,,,,,,,,,,0,0,0,,-572,15456,3732,-173,141,-187
7.258,6.99,-0.81,-0.77,1.90,-4.21,5.25,2.31,-2.59,1.88,-2.42,284.00,576.00,505.00,672.00,1582.00,2512.00,1462.00,1520.00,,,,,,,,,,,,0,0,0,,-552,15496,3700,-251,128,-199
7.278,7.05,-0.90,8.33,-9.54,10.71,-7.63,-2.54,0.91,-4.60,2.00,447.00,546.00,773.00,526.00,1430.00,2771.00,1295.00,1745.00,,,,,,,,,,,,0,0,0,,-640,15456,3708,-208,131,-178
7.341,7.10,-1.03,-6.99,3.54,-4.31,0.50,-3.52,3.44,-2.55,2.36,291.00,705.00,654.00,766.00,1269.00,2691.00,1223.00,1593.00,,,,,,,,,,,,0,0,0,,-624,15580,3756,-186,136,-156
7.403,7.16,-0.92,-8.37,11.40,-8.49,8.98,1.18,-0.39,2.07,-1.12,195.00,603.00,446.00,720.00,1434.00,2477.00,1358.00,1457.00,,,,,,,,,,,,0,0,0,,-592,15392,3912,-168,167,-234
7.445,7.21,-0.88,7.67,-3.99,9.53,-3.55,-0.11,-0.42,-1.77,0.82,335.00,483.00,633.00,494.00,1470.00,2608.00,1311.00,1610.00,,,,,,,,,,,,0,0,0,,-540,15340,3828,-234,95,-171
7.506,7.27,-1.04,-1.76,0.44,1.69,-2.45,-4.20,4.25,-3.97,4.30,313.00,623.00,688.00,654.00,1230.00,2705.00,1130.00,1600.00,,,,,,,,,,,,0,0,0,,-652,15552,3892,-170,124,-180
7.566,7.32,-0.97,-11.04,14.72,-10.42,9.42,0.49,0.79,2.56,-0.72,171.00,613.00,451.00,768.00,1362.00,2466.00,1317.00,1414.00,,,,,,,,,,,,0,0,0,,-600,15576,3904,-148,170,-170
7.627,7.38,-0.84,4.30,-1.12,1.96,1.56,1.61,-1.80,-0.18,-0.58,305.00,511.00,551.00,581.00,1535.00,2528.00,1374.00,1570.00,,,,,,,,,,,,0,0,0,,-492,15472,3844,-140,180,-159
7.709,7.43,-0.93,4.49,-5.72,7.48,-6.45,-2.66,1.35,-3.88,2.31,390.00,574.00,769.00,579.00,1399.00,2751.00,1257.00,1682.00,,,,,,,,,,,,0,0,0,,-452,15436,3736,-141,218,-229
7.729,7.49,-0.97,-7.11,4.63,-7.60,2.78,-1.81,2.45,-0.41,0.82,275.00,688.00,614.00,821.00,1298.00,2583.00,1279.00,1526.00,,,,,,,,,,,,0,0,0,,-688,15380,3680,-273,129,-200
7.771,7.54,-0.79,-2.46,4.38,-4.88,6.18,2.66,-2.15,2.73,-2.56,256.00,576.00,486.00,673.00,1535.00,2448.00,1450.00,1475.00,,,,,,,,,,,,0,0,0,,-596,15552,3868,-297,83,-202
7.832,7.60,-0.83,9.68,-9.06,11.95,-7.42,-1.48,0.60,-3.56,1.88,425.00,511.00,747.00,498.00,1426.00,2679.00,1279.00,1680.00,,,,,,,,,,,,0,0,0,,-540,15436,3976,-215,115,-188
7.894,7.65,-0.96,-2.84,2.08,-0.67,-0.75,-3.45,4.06,-2.86,3.32,292.00,622.00,655.00,686.00,1226.00,2640.00,1168.00,1572.00,,,,,,,,,,,,0,0,0,,-576,15360,4008,-133,146,-201
7.995,7.71,-0.84,-8.07,11.59,-8.86,9.48,1.49,-0.20,2.72,-1.22,192.00,593.00,437.00,721.00,1411.00,2434.00,1349.00,1424.00,,,,,,,,,,,,0,0,0,,-688,15408,3840,-12,134,-135
8.016,7.76,-0.79,8.61,-3.80,9.81,-3.05,0.13,-0.72,-1.56,0.51,326.00,463.00,613.00,482.00,1488.00,2605.00,1328.00,1610.00,,,,,,,,,,,,0,0,0,,-492,15428,3892,-62,164,-133
8.057,7.82,-0.94,-1.01,-0.74,2.15,-2.95,-3.91,3.66,-3.96,4.22,329.00,624.00,701.00,651.00,1263.00,2717.00,1135.00,1603.00,,,,,,,,,,,,0,0,0,,-644,15416,3868,-148,145,-143
8.119,7.87,-0.93,-11.78,14.44,-9.77,8.13,-0.75,1.23,0.98,-0.12,176.00,636.00,478.00,775.00,1360.00,2559.00,1312.00,1481.00,,,,,,,,,,,,0,0,0,,-768,15336,3988,-174,116,-134
8.181,7.93,-0.81,1.25,-0.04,-1.33,2.47,1.46,-2.03,0.50,-1.67,304.00,560.00,557.00,646.00,1559.00,2559.00,1439.00,1573.00,,,,,,,,,,,,0,0,0,,-568,15496,3848,-100,127,-113
8.243,7.98,-0.93,3.68,-5.69,5.30,-6.03,-3.16,1.26,-4.19,2.10,395.00,592.00,782.00,624.00,1419.00,2813.00,1278.00,1712.00,,,,,,,,,,,,0,0,0,,-516,15408,4092,-93,154,-107
8.262,8.04,-1.01,-7.96,4.19,-8.44,2.76,-2.53,2.72,-0.96,1.41,286.00,720.00,624.00,849.00,1296.00,2638.00,1251.00,1535.00,,,,,,,,,,,,0,0,0,,-564,15308,3840,-202,168,-180
8.366,8.09,-0.83,-3.50,5.93,-6.72,8.02,2.53,-1.95,3.19,-2.62,240.00,576.00,455.00,689.00,1522.00,2448.00,1443.00,1451.00,,,,,,,,,,,,0,0,0,,-624,15420,3844,-261,78,-172
8.386,8.15,-0.82,8.70,-7.61,10.46,-6.19,-0.58,0.26,-1.70,1.02,400.00,511.00,718.00,511.00,1429.00,2609.00,1295.00,1597.00,,,,,,,,,,,,0,0,0,,-568,15436,4132,-178,145,-117
8.447,8.20,-0.95,-2.94,2.12,-0.50,-0.83,-3.37,3.94,-2.33,3.43,292.00,624.00,656.00,683.00,1232.00,2640.00,1150.00,1535.00,,,,,,,,,,,,0,0,0,,-564,15440,4032,-114,153,-139
8.53,8.26,-0.82,-8.44,12.20,-9.17,9.88,1.71,-0.12,3.28,-0.96,187.00,592.00,430.00,722.00,1399.00,2407.00,1317.00,1383.00,,,,,,,,,,,,0,0,0,,-560,15460,3852,-97,158,-79
8.551,8.31,-0.75,9.86,-3.99,10.47,-2.84,0.48,-0.58,-0.80,0.21,322.00,443.00,599.00,467.00,1467.00,2559.00,1331.00,1575.00,,,,,,,,,,,,0,0,0,,-536,15456,3940,-129,106,-149
8.612,8.37,-0.88,-0.34,-0.51,4.06,-4.19,-3.30,3.14,-4.16,4.24,321.00,604.00,724.00,624.00,1285.00,2690.00,1138.00,1615.00,,,,,,,,,,,,0,0,0,,-632,15500,4012,-215,84,-157
8.653,8.42,-0.88,-8.52,8.48,-8.90,5.90,-0.92,1.48,0.44,0.37,229.00,656.00,531.00,795.00,1346.00,2559.00,1290.00,1493.00,,,,,,,,,,,,0,0,0,,-596,15436,4064,-154,124,-172
8.734,8.48,-0.74,0.54,0.82,-1.68,2.99,2.03,-1.94,0.98,-1.45,294.00,563.00,545.00,646.00,1535.00,2496.00,1410.00,1535.00,,,,,,,,,,,,0,0,0,,-628,15424,3932,-121,196,-191
8.776,8.53,-0.83,5.03,-6.47,8.70,-7.01,-2.57,1.18,-4.27,2.26,402.00,573.00,775.00,560.00,1410.00,2754.00,1269.00,1710.00,,,,,,,,,,,,0,0,0,,-624,15472,3896,-95,89,-212
8.816,8.59,-0.92,-8.08,4.36,-7.29,2.23,-2.68,3.29,-1.39,2.16,284.00,720.00,629.00,823.00,1260.00,2614.00,1211.00,1530.00,,,,,,,,,,,,0,0,0,,-596,15456,3884,-41,87,-136
8.878,8.64,-0.76,-5.16,8.18,-7.77,9.03,2.21,-1.49,2.54,-1.96,219.00,579.00,439.00,699.00,1493.00,2448.00,1409.00,1463.00,,,,,,,,,,,,0,0,0,,-600,15360,4064,-126,138,-173
8.941,8.70,-0.75,6.56,-3.34,10.23,-3.67,-0.54,-0.10,-2.10,1.17,330.00,496.00,629.00,482.00,1456.00,2630.00,1294.00,1616.00,,,,,,,,,,,,0,0,0,,-732,15384,3908,-201,146,-144
9.001,8.75,-0.91,-2.66,1.65,0.06,-1.33,-3.92,4.08,-3.34,3.75,298.00,625.00,667.00,677.00,1235.00,2688.00,1151.00,1584.00,,,,,,,,,,,,0,0,0,,-560,15428,3960,-153,107,-147
9.103,8.81,-0.81,-10.35,13.96,-10.51,10.25,1.07,0.13,2.89,-1.11,176.00,609.00,432.00,754.00,1397.00,2453.00,1337.00,1410.00,,,,,,,,,,,,0,0,0,,-556,15408,4108,-145,111,-129
9.123,8.86,-0.74,8.80,-3.75,7.46,-1.61,0.63,-1.26,-1.25,0.31,324.00,459.00,592.00,509.00,1518.00,2591.00,1335.00,1599.00,,,,,,,,,,,,0,0,0,,-636,15528,4016,-95,166,-166
9.164,8.92,-0.85,-0.25,-0.82,4.39,-4.37,-2.96,1.99,-4.06,3.18,326.00,607.00,727.00,619.00,1359.00,2737.00,1203.00,1655.00,,,,,,,,,,,,0,0,0,,-644,15456,3836,-257,139,-134
9.226,8.97,-0.88,-6.67,5.03,-8.78,3.85,-1.48,1.80,-0.18,0.80,267.00,669.00,592.00,836.00,1337.00,2595.00,1275.00,1513.00,,,,,,,,,,,,0,0,0,,-640,15516,4020,-178,74,-169
9.266,9.03,-0.72,-0.38,1.38,-2.75,3.93,2.43,-2.40,1.74,-1.89,290.00,575.00,528.00,657.00,1563.00,2488.00,1424.00,1507.00,,,,,,,,,,,,0,0,0,,-556,15372,3992,-99,166,-120
9.328,9.08,-0.79,7.35,-8.01,11.68,-7.98,-2.25,1.10,-3.90,2.31,419.00,545.00,774.00,511.00,1408.00,2725.00,1257.00,1683.00,,,,,,,,,,,,0,0,0,,-576,15388,3860,-45,173,-122
9.369,9.14,-0.90,-7.92,4.97,-5.91,1.91,-2.89,3.62,-1.68,2.69,274.00,704.00,624.00,786.00,1243.00,2613.00,1183.00,1526.00,,,,,,,,,,,,0,0,0,,-584,15456,3920,-83,121,-126
9.473,9.19,-0.75,-4.81,7.72,-7.59,9.14,1.99,-0.50,2.82,-0.98,223.00,578.00,435.00,692.00,1421.00,2405.00,1329.00,1409.00,,,,,,,,,,,,0,0,0,,-636,15392,3800,-186,85,-169
9.493,9.25,-0.72,8.94,-4.36,10.51,-3.61,0.01,-0.29,-1.54,1.14,334.00,464.00,624.00,476.00,1457.00,2587.00,1283.00,1582.00,,,,,,,,,,,,0,0,0,,-568,15420,4060,-246,68,-143
9.533,9.30,-0.86,-1.87,0.83,1.66,-2.00,-3.66,4.14,-3.44,4.12,307.00,619.00,672.00,647.00,1225.00,2656.00,1130.00,1574.00,,,,,,,,,,,,0,0,0,,-512,15488,4048,-195,166,-162
9.595,9.36,-0.76,-11.87,16.82,-11.10,10.93,1.11,0.53,3.10,-0.75,155.00,599.00,421.00,758.00,1366.00,2423.00,1306.00,1385.00,,,,,,,,,,,,0,0,0,,-684,15396,4012,-79,139,-156
9.655,9.41,-0.66,7.75,-2.52,5.26,-0.37,1.27,-1.50,-0.41,-0.08,309.00,463.00,576.00,537.00,1520.00,2542.00,1343.00,1563.00,,,,,,,,,,,,0,0,0,,-620,15460,3992,-29,85,-124
9.736,9.47,-0.77,2.37,-3.94,6.49,-5.88,-2.80,1.49,-3.97,2.48,368.00,595.00,759.00,593.00,1392.00,2756.00,1247.00,1680.00,,,,,,,,,,,,0,0,0,,-600,15384,4120,-32,110,-145
9.758,9.52,-0.83,-7.29,4.89,-7.81,3.18,-2.07,2.31,-0.38,0.82,272.00,688.00,603.00,819.00,1314.00,2619.00,1278.00,1524.00,,,,,,,,,,,,0,0,0,,-668,15552,4052,-164,154,-167
9.842,9.58,-0.66,-1.12,2.41,-4.42,5.61,2.65,-2.61,2.05,-2.33,278.00,576.00,497.00,671.00,1574.00,2480.00,1450.00,1506.00,,,,,,,,,,,,0,0,0,,-680,15500,4000,-124,109,-169
9.882,9.63,-0.74,8.40,-8.67,11.58,-7.47,-2.33,0.79,-3.99,2.10,426.00,532.00,754.00,506.00,1434.00,2757.00,1274.00,1699.00,,,,,,,,,,,,0,0,0,,-576,15292,4060,-106,115,-131
9.923,9.69,-0.88,-6.22,3.48,-3.87,0.30,-3.56,3.72,-2.47,2.80,288.00,685.00,656.00,757.00,1251.00,2675.00,1193.00,1570.00,,,,,,,,,,,,0,0,0,,-772,15456,4164,-41,154,-144
9.984,9.74,-0.77,-7.11,10.23,-9.40,10.18,1.34,-0.29,2.52,-0.93,203.00,592.00,425.00,723.00,1422.00,2454.00,1333.00,1424.00,,,,,,,,,,,,0,0,0,,-672,15264,3940,-200,168,-173
10.025,9.80,-0.74,8.56,-3.73,10.41,-3.55,-0.15,-0.29,-1.44,0.89,325.00,463.00,623.00,477.00,1461.00,2603.00,1298.00,1586.00,,,,,,,,,,,,0,0,0,,-620,15408,4076,-177,81,-160
10.087,9.85,-0.90,-1.50,0.59,2.44,-2.81,-3.92,4.20,-3.53,4.12,309.00,614.00,692.00,641.00,1227.00,2679.00,1132.00,1580.00,,,,,,,,,,,,0,0,0,,-576,15460,4140,-68,120,-133
10.189,9.91,-0.83,-11.67,16.40,-10.13,9.53,0.55,0.79,2.42,-0.34,158.00,601.00,446.00,757.00,1360.00,2459.00,1293.00,1407.00,,,,,,,,,,,,0,0,0,,-684,15388,3988,13,178,-123
10.208,9.96,-0.67,2.27,-0.32,-0.21,1.93,2.36,-2.57,0.76,-1.12,303.00,542.00,562.00,627.00,1579.00,2506.00,1391.00,1535.00,,,,,,,,,,,,0,0,0,,-612,15364,3908,-44,155,-67
10.269,10.02,-0.76,3.88,-5.09,7.26,-6.38,-2.50,1.38,-3.67,2.40,381.00,578.00,769.00,583.00,1393.00,2732.00,1246.00,1664.00,,,,,,,,,,,,0,0,0,,-624,15376,3964,-111,102,-158
10.332,10.07,-0.82,-7.09,4.49,-7.51,2.87,-1.96,2.53,-0.61,1.58,277.00,690.00,610.00,816.00,1296.00,2593.00,1232.00,1507.00,,,,,,,,,,,,0,0,0,,-616,15368,3972,-240,80,-161
10.373,10.13,-0.63,-2.64,5.64,-5.27,6.69,3.01,-2.27,3.02,-2.27,240.00,561.00,476.00,674.00,1535.00,2422.00,1420.00,1447.00,,,,,,,,,,,,0,0,0,,-588,15344,4276,-247,137,-145
10.436,10.18,-0.66,8.98,-8.03,12.71,-7.17,-1.15,0.48,-3.05,1.84,407.00,511.00,727.00,480.00,1427.00,2653.00,1270.00,1648.00,,,,,,,,,,,,0,0,0,,-600,15472,4092,-177,166,-166
10.477,10.24,-0.80,-2.91,2.49,-0.53,-0.57,-3.52,4.09,-2.32,3.41,286.00,617.00,647.00,679.00,1225.00,2644.00,1151.00,1535.00,,,,,,,,,,,,0,0,0,,-640,15452,3996,-67,74,-157
10.56,10.29,-0.69,-7.85,11.51,-9.38,10.30,1.37,-0.00,2.76,-0.86,192.00,589.00,422.00,720.00,1399.00,2432.00,1322.00,1408.00,,,,,,,,,,,,0,0,0,,-644,15432,3944,-61,94,-133
10.581,10.35,-0.65,10.55,-4.68,10.50,-3.13,0.16,-0.73,-1.31,0.54,330.00,439.00,608.00,470.00,1488.00,2602.00,1320.00,1593.00,,,,,,,,,,,,0,0,0,,-680,15392,4056,-150,168,-147
10.644,10.40,-0.82,-1.34,0.41,2.91,-3.44,-4.08,3.70,-4.23,4.34,311.00,613.00,710.00,640.00,1264.00,2732.00,1133.00,1615.00,,,,,,,,,,,,0,0,0,,-616,15380,4024,-189,153,-133
10.707,10.46,-0.85,-11.46,14.33,-10.12,7.79,-1.47,1.62,-0.08,0.48,176.00,630.00,490.00,793.00,1349.00,2605.00,1295.00,1520.00,,,,,,,,,,,,0,0,0,,-572,15416,3988,-139,91,-107
10.748,10.51,-0.73,0.70,0.58,-1.79,2.86,1.59,-2.22,0.16,-1.16,297.00,563.00,550.00,651.00,1571.00,2559.00,1409.00,1573.00,,,,,,,,,,,,0,0,0,,-500,15428,4184,-60,127,-129
10.81,10.57,-0.84,4.23,-5.35,7.50,-6.48,-2.89,1.30,-4.29,2.35,384.00,574.00,770.00,579.00,1409.00,2780.00,1263.00,1707.00,,,,,,,,,,,,0,0,0,,-620,15284,4044,-160,159,-193
10.871,10.62,-0.93,-8.49,5.23,-7.97,2.78,-2.70,3.25,-1.26,2.07,273.00,715.00,618.00,833.00,1263.00,2618.00,1214.00,1526.00,,,,,,,,,,,,0,0,0,,-624,15404,4140,-199,91,-172
10.933,10.68,-0.76,-5.69,9.22,-6.40,7.71,2.38,-1.71,2.89,-2.27,209.00,575.00,460.00,686.00,1507.00,2447.00,1424.00,1455.00,,,,,,,,,,,,0,0,0,,-688,15424,4072,-69,142,-173
11.015,10.73,-0.75,8.66,-5.60,10.13,-4.66,-0.54,0.25,-1.99,1.49,359.00,485.00,665.00,497.00,1429.00,2606.00,1269.00,1595.00,,,,,,,,,,,,0,0,0,,-764,15400,4092,-8,168,-128
11.035,10.79,-0.89,-2.73,2.11,-0.04,-1.01,-3.51,4.14,-2.26,3.32,291.00,619.00,657.00,674.00,1222.00,2640.00,1155.00,1535.00,,,,,,,,,,,,0,0,0,,-588,15500,3856,-34,124,-85
11.077,10.84,-0.76,-8.42,12.79,-10.05,10.88,1.64,0.17,3.34,-0.97,181.00,582.00,414.00,728.00,1379.00,2395.00,1316.00,1380.00,,,,,,,,,,,,0,0,0,,-588,15328,4012,-109,93,-142
11.139,10.90,-0.68,10.08,-3.90,9.20,-2.08,0.86,-0.99,-1.17,0.59,319.00,438.00,588.00,481.00,1490.00,2549.00,1313.00,1582.00,,,,,,,,,,,,0,0,0,,-520,15392,4088,-222,105,-133
11.201,10.95,-0.82,-1.47,-0.36,4.18,-3.71,-3.41,3.02,-4.17,4.01,325.00,629.00,704.00,613.00,1296.00,2710.00,1152.00,1625.00,,,,,,,,,,,,0,0,0,,-620,15388,4180,-244,105,-133
11.243,11.01,-0.85,-8.26,6.70,-8.46,4.18,-1.37,1.80,-0.24,0.76,251.00,681.00,578.00,818.00,1334.00,2583.00,1279.00,1518.00,,,,,,,,,,,,0,0,0,,-536,15292,4152,-145,149,-154
11.305,11.06,-0.70,0.31,1.09,-2.79,4.05,2.12,-2.21,1.02,-1.49,291.00,564.00,525.00,656.00,1555.00,2505.00,1412.00,1534.00,,,,,,,,,,,,0,0,0,,-656,15404,4176,-57,112,-154
11.367,11.12,-0.80,5.18,-6.43,9.65,-7.25,-2.72,1.22,-4.62,2.53,400.00,569.00,772.00,543.00,1411.00,2768.00,1259.00,1722.00,,,,,,,,,,,,0,0,0,,-624,15396,3960,-23,118,-122
11.43,11.17,-0.91,-8.06,5.02,-6.94,2.17,-3.02,3.42,-1.87,2.75,274.00,707.00,627.00,813.00,1259.00,2640.00,1183.00,1535.00,,,,,,,,,,,,0,0,0,,-556,15392,4116,-99,133,-161
11.472,11.23,-0.79,-6.34,9.35,-7.69,8.59,1.50,-0.70,2.46,-1.28,210.00,588.00,449.00,705.00,1449.00,2465.00,1360.00,1441.00,,,,,,,,,,,,0,0,0,,-580,15548,4208,-146,116,-173
11.535,11.28,-0.79,7.54,-3.72,10.14,-3.70,-0.71,0.01,-2.04,0.97,331.00,482.00,631.00,484.00,1452.00,2640.00,1307.00,1621.00,,,,,,,,,,,,0,0,0,,-636,15344,3944,-92,118,-176
11.576,11.34,-0.95,-3.09,2.04,0.27,-1.48,-4.13,4.03,-3.76,3.99,294.00,629.00,670.00,674.00,1243.00,2714.00,1145.00,1600.00,,,,,,,,,,,,0,0,0,,-636,15488,4048,-68,131,-142
11.677,11.39,-0.87,-12.73,17.35,-11.07,10.44,0.70,0.30,2.83,-0.99,153.00,611.00,432.00,767.00,1393.00,2477.00,1330.00,1409.00,,,,,,,,,,,,0,0,0,,-636,15328,4020,-127,178,-183
11.697,11.45,-0.78,9.23,-3.32,7.03,-1.12,0.92,-1.20,-0.71,0.23,314.00,446.00,581.00,511.00,1505.00,2557.00,1328.00,1569.00,,,,,,,,,,,,0,0,0,,-620,15356,4212,-215,86,-151
11.739,11.50,-0.88,1.07,-2.15,5.44,-4.70,-2.76,1.64,-3.80,2.65,342.00,597.00,726.00,599.00,1380.00,2741.00,1232.00,1661.00,,,,,,,,,,,,0,0,0,,-528,15392,4164,-109,133,-131
11.802,11.56,-0.91,-6.48,4.69,-8.45,3.68,-1.49,2.01,-0.35,1.01,271.00,670.00,594.00,829.00,1322.00,2581.00,1264.00,1514.00,,,,,,,,,,,,0,0,0,,-680,15436,3992,-51,173,-114
11.864,11.61,-0.74,-0.78,2.63,-4.11,5.43,2.45,-2.31,1.87,-1.93,273.00,565.00,499.00,666.00,1554.00,2479.00,1424.00,1501.00,,,,,,,,,,,,0,0,0,,-616,15380,3996,-47,120,-81
11.905,11.67,-0.82,8.37,-8.62,11.91,-8.32,-2.27,1.10,-4.29,2.35,425.00,532.00,785.00,511.00,1408.00,2727.00,1263.00,1707.00,,,,,,,,,,,,0,0,0,,-516,15336,3968,-88,97,-182
11.964,11.72,-0.94,-6.28,2.87,-5.71,1.75,-3.15,3.87,-1.64,2.41,298.00,698.00,627.00,783.00,1232.00,2622.00,1200.00,1535.00,,,,,,,,,,,,0,0,0,,-708,15312,3972,-197,100,-145
12.047,11.78,-0.80,-7.40,11.36,-8.41,9.98,1.69,-0.23,2.12,-0.73,192.00,581.00,422.00,699.00,1408.00,2416.00,1328.00,1439.00,,,,,,,,,,,,0,0,0,,-700,15432,4264,-171,125,-151
12.067,11.83,-0.78,7.77,-3.74,10.14,-3.46,-0.26,-0.06,-2.82,1.37,330.00,478.00,623.00,481.00,1446.00,2599.00,1297.00,1654.00,,,,,,,,,,,,0,0,0,,-568,15452,4168,-123,155,-153
12.129,11.89,-0.93,-2.24,1.32,1.52,-2.31,-3.84,4.10,-4.13,4.60,301.00,620.00,685.00,656.00,1232.00,2678.00,1115.00,1597.00,,,,,,,,,,,,0,0,0,,-584,15360,4204,-8,102,-160
12.19,11.94,-0.85,-12.47,17.02,-11.32,10.57,0.63,0.59,2.68,-0.66,155.00,610.00,431.00,772.00,1373.00,2465.00,1310.00,1405.00,,,,,,,,,,,,0,0,0,,-612,15388,4116,-18,106,-127
12.291,12.00,-0.75,6.92,-1.94,4.02,0.57,1.10,-1.44,-0.60,-0.29,304.00,471.00,560.00,550.00,1520.00,2555.00,1363.00,1584.00,,,,,,,,,,,,0,0,0,,-700,15384,3920,-147,149,-150
12.312,12.05,-0.87,2.84,-4.45,6.01,-5.98,-3.06,1.59,-4.10,2.41,375.00,592.00,770.00,606.00,1391.00,2777.00,1255.00,1692.00,,,,,,,,,,,,0,0,0,,-624,15300,4172,-201,132,-146
12.375,12.11,-0.95,-7.34,4.91,-8.13,3.11,-2.46,2.59,-1.12,1.19,272.00,689.00,609.00,831.00,1304.00,2641.00,1270.00,1554.00,,,,,,,,,,,,0,0,0,,-608,15364,4112,-125,128,-78
12.416,12.16,-0.79,-1.47,2.93,-4.99,5.84,2.18,-2.30,1.76,-2.22,272.00,576.00,496.00,682.00,1561.00,2505.00,1449.00,1519.00,,,,,,,,,,,,0,0,0,,-540,15436,3972,-53,180,-85
12.477,12.22,-0.86,12.54,-9.67,11.66,-7.81,-2.09,0.81,-3.99,2.02,417.00,464.00,767.00,509.00,1426.00,2729.00,1279.00,1702.00,,,,,,,,,,,,0,0,0,,-608,15204,4120,-194,152,-136
12.538,12.27,-0.98,-5.13,3.83,-3.07,0.57,-3.33,3.81,-2.32,2.89,277.00,650.00,637.00,728.00,1240.00,2645.00,1184.00,1557.00,,,,,,,,,,,,0,0,0,,-560,15368,4212,-137,101,-140
12.559,12.33,-0.85,-8.39,12.18,-9.10,9.99,1.68,-0.24,2.26,-0.73,187.00,591.00,427.00,718.00,1409.00,2418.00,1325.00,1431.00,,,,,,,,,,,,0,0,0,,-660,15336,4300,-33,152,-139
12.621,12.38,-0.80,8.40,-3.73,10.53,-3.17,0.08,-0.30,-1.73,1.06,326.00,466.00,609.00,470.00,1456.00,2581.00,1293.00,1597.00,,,,,,,,,,,,0,0,0,,-676,15500,4144,9,186,-131
12.683,12.44,-0.95,-1.76,0.92,2.35,-2.67,-3.83,4.09,-4.33,4.85,305.00,615.00,688.00,641.00,1232.00,2677.00,1104.00,1599.00,,,,,,,,,,,,0,0,0,,-588,15348,3888,-26,114,-74
12.765,12.49,-0.90,-13.11,17.23,-10.78,9.67,0.20,0.99,2.13,-0.28,155.00,622.00,448.00,774.00,1354.00,2480.00,1296.00,1421.00,,,,,,,,,,,,0,0,0,,-632,15360,4080,-112,103,-169
12.785,12.55,-0.75,1.45,0.08,-0.58,2.42,2.10,-2.19,0.14,-0.95,301.00,554.00,551.00,628.00,1554.00,2506.00,1393.00,1565.00,,,,,,,,,,,,0,0,0,,-588,15348,4032,-228,87,-140
12.848,12.60,-0.84,3.41,-4.59,7.24,-6.23,-2.69,1.64,-4.35,2.68,374.00,581.00,763.00,581.00,1378.00,2733.00,1242.00,1696.00,,,,,,,,,,,,0,0,0,,-652,15412,4436,-188,130,-139
12.909,12.66,-0.90,-5.94,4.50,-8.09,2.91,-1.95,2.53,-1.02,1.49,271.00,659.00,615.00,834.00,1296.00,2592.00,1247.00,1535.00,,,,,,,,,,,,0,0,0,,-664,15312,4096,-135,148,-173
12.951,12.71,-0.71,-2.58,4.57,-6.21,7.48,2.80,-2.09,2.54,-2.20,254.00,576.00,464.00,685.00,1526.00,2431.00,1427.00,1472.00,,,,,,,,,,,,0,0,0,,-724,15420,4124,-30,103,-126
13.033,12.77,-0.75,9.61,-7.92,11.48,-6.58,-1.38,0.60,-3.38,1.83,400.00,497.00,720.00,496.00,1424.00,2669.00,1278.00,1670.00,,,,,,,,,,,,0,0,0,,-628,15388,3952,-32,128,-121
13.074,12.82,-0.89,-3.22,2.47,-1.07,-0.58,-3.61,4.07,-3.11,3.48,288.00,625.00,654.00,694.00,1229.00,2656.00,1163.00,1581.00,,,,,,,,,,,,0,0,0,,-580,15340,3944,-111,161,-155
13.136,12.88,-0.78,-8.27,11.75,-9.05,9.76,1.29,-0.01,2.18,-0.72,191.00,595.00,432.00,721.00,1402.00,2441.00,1326.00,1435.00,,,,,,,,,,,,0,0,0,,-656,15392,4064,-113,130,-155
13.157,12.93,-0.74,8.24,-3.34,9.64,-2.56,-0.01,-0.56,-1.77,0.67,320.00,464.00,599.00,479.00,1479.00,2608.00,1322.00,1617.00,,,,,,,,,,,,0,0,0,,-644,15404,4036,-50,116,-133
13.218,12.99,-0.92,-1.04,-0.33,2.89,-3.64,-4.25,3.82,-4.59,4.38,322.00,618.00,718.00,644.00,1260.00,2742.00,1138.00,1636.00,,,,,,,,,,,,0,0,0,,-632,15436,3972,-64,176,-123
13.281,13.04,-0.93,-12.80,15.42,-10.36,7.72,-1.23,1.52,-0.27,0.38,170.00,645.00,494.00,802.00,1351.00,2588.00,1306.00,1535.00,,,,,,,,,,,,0,0,0,,-560,15308,4060,-187,136,-155
13.342,13.10,-0.80,0.86,0.28,-2.06,3.25,1.82,-1.87,0.42,-1.27,301.00,564.00,541.00,651.00,1535.00,2512.00,1411.00,1562.00,,,,,,,,,,,,0,0,0,,-568,15320,4192,-229,75,-172
13.402,13.15,-0.88,3.81,-4.92,7.46,-6.15,-2.55,1.40,-4.58,2.67,378.00,577.00,757.00,575.00,1393.00,2736.00,1248.00,1712.00,,,,,,,,,,,,0,0,0,,-640,15368,4156,-98,137,-125
13.463,13.21,-0.97,-8.49,5.23,-8.24,2.96,-2.68,3.50,-1.35,1.97,273.00,715.00,615.00,838.00,1246.00,2599.00,1222.00,1535.00,,,,,,,,,,,,0,0,0,,-736,15512,3972,-22,175,-140
13.504,13.26,-0.78,-6.33,9.52,-6.40,8.19,2.81,-1.70,2.81,-2.18,208.00,585.00,448.00,677.00,1494.00,2405.00,1419.00,1456.00,,,,,,,,,,,,0,0,0,,-564,15364,4044,-24,128,-62
13.544,13.32,-0.77,8.39,-5.97,10.34,-4.98,-0.43,0.26,-2.20,1.48,368.00,495.00,674.00,497.00,1425.00,2593.00,1275.00,1609.00,,,,,,,,,,,,0,0,0,,-612,15312,3824,-125,104,-164
13.607,13.37,-0.91,-2.94,2.12,-0.19,-0.74,-3.60,4.27,-3.18,3.65,292.00,624.00,649.00,673.00,1215.00,2640.00,1154.00,1578.00,,,,,,,,,,,,0,0,0,,-608,15328,4100,-247,104,-152
13.668,13.43,-0.78,-8.80,12.72,-10.31,11.10,1.62,0.22,2.53,-0.63,183.00,592.00,411.00,731.00,1376.00,2394.00,1311.00,1412.00,,,,,,,,,,,,0,0,0,,-484,15388,4212,-191,145,-127
13.729,13.48,-0.71,8.99,-3.30,10.33,-2.39,0.60,-0.76,-1.45,0.70,315.00,450.00,586.00,464.00,1478.00,2559.00,1312.00,1595.00,,,,,,,,,,,,0,0,0,,-568,15296,4204,-129,147,-186
13.77,13.54,-0.86,-0.50,-0.39,3.46,-3.31,-3.58,3.35,-4.62,4.18,320.00,606.00,698.00,624.00,1277.00,2704.00,1151.00,1647.00,,,,,,,,,,,,0,0,0,,-752,15304,4072,-33,82,-155
13.873,13.59,-0.86,-9.07,8.51,-9.30,5.38,-0.97,1.55,-0.46,0.72,231.00,670.00,550.00,819.00,1342.00,2559.00,1287.00,1533.00,,,,,,,,,,,,0,0,0,,-640,15468,4128,-52,92,-114
13.894,13.65,-0.73,-0.60,1.78,-2.82,3.92,1.85,-1.88,0.29,-1.18,285.00,574.00,529.00,659.00,1535.00,2510.00,1407.00,1566.00,,,,,,,,,,,,0,0,0,,-620,15356,4068,-134,190,-149
13.955,13.70,-0.83,4.03,-6.27,8.21,-6.67,-2.75,1.30,-4.73,2.49,405.00,593.00,768.00,566.00,1405.00,2764.00,1264.00,1731.00,,,,,,,,,,,,0,0,0,,-636,15392,4092,-156,133,-140
13.996,13.76,-0.94,-8.69,5.36,-7.43,2.75,-3.11,3.56,-2.16,2.31,272.00,718.00,613.00,816.00,1252.00,2640.00,1218.00,1571.00,,,,,,,,,,,,0,0,0,,-560,15436,4148,-77,94,-133
14.059,13.81,-0.80,-6.91,9.80,-8.17,9.25,1.84,-1.14,1.64,-1.51,207.00,594.00,437.00,706.00,1475.00,2461.00,1398.00,1498.00,,,,,,,,,,,,0,0,0,,-536,15252,4032,-82,124,-162
14.12,13.87,-0.80,6.51,-3.04,8.90,-3.07,-0.83,0.21,-2.80,1.45,325.00,493.00,624.00,500.00,1440.00,2639.00,1291.00,1649.00,,,,,,,,,,,,0,0,0,,-536,15332,4100,-99,184,-229
14.18,13.92,-0.95,-2.72,1.67,-0.14,-1.32,-3.78,4.21,-3.33,3.73,298.00,626.00,669.00,682.00,1223.00,2663.00,1152.00,1584.00,,,,,,,,,,,,0,0,0,,-684,15336,4068,-261,78,-187
14.242,13.98,-0.84,-11.91,16.13,-9.78,10.52,1.31,0.36,3.17,-1.04,161.00,611.00,420.00,727.00,1373.00,2414.00,1325.00,1392.00,,,,,,,,,,,,0,0,0,,-696,15360,4184,-92,110,-175
14.262,14.03,-0.75,8.68,-2.84,7.99,-1.51,0.85,-0.89,-1.03,0.33,309.00,450.00,583.00,497.00,1482.00,2543.00,1328.00,1584.00,,,,,,,,,,,,0,0,0,,-704,15360,4112,-2,172,-128
14.323,14.09,-0.88,0.82,-1.85,4.49,-4.41,-3.27,2.66,-4.78,3.79,338.00,598.00,727.00,617.00,1318.00,2721.00,1179.00,1675.00,,,,,,,,,,,,0,0,0,,-704,15296,3992,-20,149,-152
14.384,14.14,-0.90,-7.36,6.03,-8.60,4.29,-1.25,1.99,-0.65,1.04,256.00,669.00,576.00,820.00,1317.00,2557.00,1269.00,1531.00,,,,,,,,,,,,0,0,0,,-604,15316,3832,-92,101,-167
14.447,14.20,-0.74,-0.37,1.64,-2.80,3.95,2.25,-1.95,1.14,-1.54,286.00,571.00,528.00,658.00,1530.00,2475.00,1413.00,1529.00,,,,,,,,,,,,0,0,0,,-640,15396,3896,-260,74,-167
14.509,14.25,-0.81,6.10,-7.06,8.96,-7.12,-2.15,1.15,-4.60,2.58,407.00,558.00,776.00,556.00,1401.00,2710.00,1255.00,1718.00,,,,,,,,,,,,0,0,0,,-684,15392,4108,-195,112,-144
14.55,14.31,-0.93,-8.55,5.11,-5.98,1.88,-3.09,3.98,-1.93,2.83,275.00,719.00,626.00,789.00,1223.00,2608.00,1179.00,1535.00,,,,,,,,,,,,0,0,0,,-624,15352,4172,-112,157,-173
14.612,14.36,-0.79,-6.50,10.03,-8.13,9.45,1.74,-0.21,2.12,-0.63,203.00,581.00,432.00,701.00,1405.00,2410.00,1321.00,1435.00,,,,,,,,,,,,0,0,0,,-644,15488,4132,-55,104,-177
14.673,14.42,-0.77,8.12,-4.03,10.65,-3.66,-0.30,-0.04,-2.31,1.41,333.00,475.00,624.00,474.00,1445.00,2601.00,1282.00,1619.00,,,,,,,,,,,,0,0,0,,-616,15324,4044,-15,88,-149
14.735,14.47,-0.92,-2.51,1.60,0.64,-1.58,-3.91,4.46,-3.87,4.27,298.00,622.00,669.00,666.00,1210.00,2660.00,1130.00,1595.00,,,,,,,,,,,,0,0,0,,-624,15448,4056,-107,157,-138
14.757,14.53,-0.84,-14.57,19.21,-10.82,10.66,0.80,0.62,2.65,-0.69,143.00,625.00,425.00,755.00,1367.00,2447.00,1313.00,1408.00,,,,,,,,,,,,0,0,0,,-700,15416,4196,-164,163,-142
14.818,14.58,-0.75,7.96,-2.35,5.43,0.29,0.89,-1.19,-1.31,0.30,305.00,457.00,554.00,524.00,1505.00,2559.00,1337.00,1603.00,,,,,,,,,,,,0,0,0,,-700,15364,3980,-99,87,-140
14.901,14.64,-0.88,1.98,-4.11,5.80,-5.79,-3.28,1.91,-4.73,2.92,374.00,607.00,765.00,608.00,1373.00,2778.00,1235.00,1711.00,,,,,,,,,,,,0,0,0,,-632,15460,4120,-96,110,-138
14.922,14.69,-0.93,-8.24,5.97,-8.25,3.52,-2.01,2.18,-1.40,1.20,261.00,694.00,597.00,826.00,1322.00,2622.00,1276.00,1571.00,,,,,,,,,,,,0,0,0,,-620,15424,3928,-94,200,-134
14.984,14.75,-0.77,-1.90,2.61,-4.26,5.15,2.44,-2.07,1.35,-1.92,279.00,591.00,508.00,675.00,1535.00,2465.00,1437.00,1532.00,,,,,,,,,,,,0,0,0,,-572,15292,4108,-214,121,-141
15.046,14.80,-0.84,7.91,-8.16,10.27,-7.34,-2.20,1.04,-4.49,2.48,418.00,535.00,767.00,531.00,1411.00,2724.00,1259.00,1715.00,,,,,,,,,,,,0,0,0,,-656,15292,4216,-123,79,-163
15.108,14.86,-0.95,-7.61,4.66,-4.89,1.36,-3.08,3.75,-2.28,2.87,277.00,701.00,631.00,766.00,1238.00,2623.00,1184.00,1555.00,,,,,,,,,,,,0,0,0,,-612,15504,4152,-58,161,-110
15.15,14.91,-0.81,-7.32,10.86,-8.49,9.83,1.81,-0.14,2.30,-0.76,197.00,587.00,426.00,704.00,1398.00,2399.00,1326.00,1430.00,,,,,,,,,,,,0,0,0,,-724,15284,3936,41,205,-102
15.213,14.97,-0.76,8.54,-4.34,10.67,-3.22,0.17,-0.12,-2.18,1.62,336.00,471.00,609.00,468.00,1439.00,2559.00,1265.00,1602.00,,,,,,,,,,,,0,0,0,,-644,15444,3876,-11,138,-95
15.275,15.02,-0.92,-2.83,1.95,1.75,-2.25,-3.84,4.58,-4.17,4.68,294.00,624.00,680.00,649.00,1200.00,2643.00,1111.00,1596.00,,,,,,,,,,,,0,0,0,,-664,15364,3960,-146,128,-137
15.356,15.08,-0.82,-13.69,19.31,-11.32,11.00,1.01,0.78,2.47,-0.47,140.00,602.00,421.00,763.00,1350.00,2416.00,1301.00,1409.00,,,,,,,,,,,,0,0,0,,-596,15364,4112,-270,90,-158
15.377,15.13,-0.70,6.38,-1.14,4.32,0.47,1.67,-1.57,-0.34,-0.33,294.00,471.00,560.00,545.00,1515.00,2507.00,1359.00,1569.00,,,,,,,,,,,,0,0,0,,-624,15408,4132,-183,147,-135
15.418,15.19,-0.80,3.29,-4.79,6.83,-5.87,-2.71,1.77,-4.09,2.61,379.00,587.00,754.00,585.00,1369.00,2726.00,1241.00,1682.00,,,,,,,,,,,,0,0,0,,-556,15356,4148,-140,130,-176
15.479,15.24,-0.85,-7.42,5.14,-7.83,3.34,-1.95,2.53,-0.96,1.41,269.00,687.00,598.00,816.00,1296.00,2592.00,1251.00,1535.00,,,,,,,,,,,,0,0,0,,-676,15420,4048,-55,62,-155
15.54,15.30,-0.68,-1.72,3.43,-4.87,6.45,2.54,-2.11,1.90,-2.07,266.00,574.00,479.00,668.00,1535.00,2457.00,1434.00,1505.00,,,,,,,,,,,,0,0,0,,-564,15280,4120,-75,101,-144
15.58,15.35,-0.74,9.22,-8.38,12.06,-7.28,-1.88,0.83,-4.50,2.56,413.00,511.00,740.00,494.00,1419.00,2705.00,1254.00,1712.00,,,,,,,,,,,,0,0,0,,-644,15324,4000,-138,166,-158
15.747,15.41,-0.87,-5.13,3.76,-2.66,0.44,-3.25,3.74,-2.84,3.22,278.00,651.00,637.00,719.00,1243.00,2642.00,1174.00,1575.00,,,,,,,,,,,,0,0,0,,-664,15476,4104,-134,111,-146
15.767,15.46,-0.75,-8.19,12.01,-9.46,10.73,1.50,-0.19,1.97,-0.69,188.00,589.00,413.00,714.00,1410.00,2432.00,1329.00,1446.00,,,,,,,,,,,,0,0,0,,-620,15384,4076,-88,107,-118
15.788,15.52,-0.72,7.99,-3.37,9.33,-2.64,-0.20,-0.30,-2.22,1.18,322.00,469.00,605.00,486.00,1463.00,2609.00,1296.00,1623.00,,,,,,,,,,,,0,0,0,,-600,15360,4124,-116,142,-117
15.829,15.57,-0.90,-1.22,0.68,2.09,-2.58,-4.34,4.40,-4.52,4.67,306.00,606.00,688.00,646.00,1223.00,2709.00,1119.00,1619.00,,,,,,,,,,,,0,0,0,,-544,15260,4056,-151,182,-203
15.87,15.63,-0.85,-13.00,16.96,-11.46,10.19,0.21,1.09,1.98,-0.13,157.00,624.00,441.00,784.00,1347.00,2473.00,1289.00,1424.00,,,,,,,,,,,,0,0,0,,-612,15444,4132,-255,66,-174
15.911,15.68,-0.71,1.57,0.16,-0.46,2.48,1.83,-1.86,0.01,-0.82,299.00,550.00,548.00,624.00,1534.00,2510.00,1387.00,1568.00,,,,,,,,,,,,0,0,0,,-572,15264,4300,-100,123,-173
15.973,15.74,-0.80,3.62,-4.91,7.07,-6.10,-2.45,1.60,-4.13,2.72,379.00,581.00,760.00,583.00,1375.00,2710.00,1235.00,1680.00,,,,,,,,,,,,0,0,0,,-672,15344,4140,-62,164,-140
16.097,15.79,-0.85,-7.86,5.36,-8.43,3.64,-1.75,2.70,-0.80,1.57,268.00,695.00,595.00,829.00,1279.00,2559.00,1237.00,1519.00,,,,,,,,,,,,0,0,0,,-596,15332,4052,-87,137,-128
16.118,15.85,-0.66,-2.63,5.56,-5.69,7.59,2.86,-2.02,2.50,-2.13,241.00,562.00,457.00,669.00,1519.00,2421.00,1423.00,1472.00,,,,,,,,,,,,0,0,0,,-696,15352,4008,-104,94,-171
16.139,15.90,-0.69,9.62,-8.15,11.95,-6.82,-1.21,0.75,-3.54,2.29,405.00,500.00,723.00,490.00,1408.00,2640.00,1250.00,1660.00,,,,,,,,,,,,0,0,0,,-624,15296,4088,-235,91,-145
16.18,15.96,-0.83,-3.13,2.69,-0.27,-0.45,-3.40,4.44,-2.40,3.53,284.00,619.00,640.00,670.00,1200.00,2608.00,1145.00,1535.00,,,,,,,,,,,,0,0,0,,-608,15340,4244,-216,153,-126
16.242,16.01,-0.70,-8.93,13.17,-9.15,10.53,1.63,0.02,2.56,-0.62,179.00,588.00,415.00,709.00,1391.00,2406.00,1310.00,1410.00,,,,,,,,,,,,0,0,0,,-592,15332,4212,-121,140,-186
16.304,16.07,-0.64,8.66,-2.89,10.32,-2.55,0.48,-0.58,-1.76,1.16,310.00,451.00,591.00,466.00,1467.00,2559.00,1287.00,1595.00,,,,,,,,,,,,0,0,0,,-564,15412,4252,-92,69,-120
16.367,16.12,-0.80,-1.23,0.50,3.03,-3.09,-3.70,3.98,-4.60,4.99,309.00,609.00,695.00,631.00,1237.00,2672.00,1101.00,1610.00,,,,,,,,,,,,0,0,0,,-696,15384,4124,-45,127,-100
16.47,16.18,-0.78,-13.21,17.03,-10.25,8.64,-0.47,1.44,1.07,0.25,157.00,628.00,469.00,779.00,1338.00,2517.00,1284.00,1461.00,,,,,,,,,,,,0,0,0,,-596,15404,4044,-162,171,-152
16.49,16.23,-0.65,0.98,0.36,-1.44,2.97,1.78,-1.85,-0.02,-0.92,299.00,560.00,543.00,640.00,1535.00,2515.00,1395.00,1574.00,,,,,,,,,,,,0,0,0,,-620,15284,4184,-186,113,-127
16.53,16.29,-0.76,3.07,-4.48,7.34,-6.23,-2.84,1.45,-4.75,2.78,374.00,587.00,762.00,579.00,1396.00,2763.00,1245.00,1719.00,,,,,,,,,,,,0,0,0,,-752,15380,4280,-166,112,-110
16.572,16.34,-0.86,-8.13,5.17,-8.29,3.16,-2.67,3.08,-1.69,1.96,272.00,706.00,609.00,835.00,1274.00,2627.00,1231.00,1557.00,,,,,,,,,,,,0,0,0,,-556,15456,4084,-105,152,-150
16.634,16.40,-0.70,-3.82,6.27,-6.86,8.23,2.31,-1.89,2.07,-1.94,237.00,578.00,451.00,689.00,1523.00,2465.00,1419.00,1489.00,,,,,,,,,,,,0,0,0,,-516,15364,4248,-100,126,-187
16.696,16.45,-0.70,9.48,-7.87,10.91,-5.82,-0.75,0.28,-2.41,1.68,400.00,499.00,698.00,497.00,1432.00,2625.00,1266.00,1614.00,,,,,,,,,,,,0,0,0,,-684,15216,4188,-243,116,-183
16.738,16.51,-0.85,-3.39,2.78,-1.04,-0.31,-3.62,4.25,-3.37,4.15,284.00,624.00,644.00,688.00,1217.00,2644.00,1127.00,1569.00,,,,,,,,,,,,0,0,0,,-664,15264,4304,-177,58,-166
16.819,16.56,-0.72,-9.71,14.06,-9.75,10.69,1.68,0.01,2.55,-0.55,173.00,592.00,416.00,723.00,1390.00,2402.00,1305.00,1408.00,,,,,,,,,,,,0,0,0,,-628,15292,4268,-96,146,-102
16.88,16.62,-0.65,9.87,-3.59,11.01,-2.59,0.70,-0.79,-1.42,0.87,315.00,438.00,585.00,454.00,1478.00,2551.00,1299.00,1586.00,,,,,,,,,,,,0,0,0,,-716,15340,4052,-61,181,-116
16.9,16.67,-0.80,-1.22,0.86,2.86,-2.90,-3.68,3.73,-4.73,4.94,303.00,603.00,690.00,632.00,1253.00,2687.00,1107.00,1621.00,,,,,,,,,,,,0,0,0,,-560,15296,4120,-101,124,-64
16.985,16.73,-0.81,-12.03,14.01,-10.92,7.95,-0.94,1.75,0.15,0.70,181.00,650.00,493.00,815.00,1327.00,2543.00,1274.00,1497.00,,,,,,,,,,,,0,0,0,,-536,15284,4228,-168,79,-73
17.027,16.78,-0.67,-0.60,2.44,-2.60,3.88,2.01,-1.91,0.72,-1.07,275.00,564.00,528.00,654.00,1533.00,2496.00,1388.00,1535.00,,,,,,,,,,,,0,0,0,,-604,15320,4128,-252,103,-101
17.069,16.84,-0.76,4.58,-5.47,8.00,-6.43,-2.56,1.41,-4.61,2.83,384.00,568.00,761.00,567.00,1392.00,2736.00,1238.00,1707.00,,,,,,,,,,,,0,0,0,,-588,15360,4060,-257,160,-115
17.132,16.89,-0.86,-8.85,5.55,-8.00,3.09,-2.71,3.61,-1.58,2.67,270.00,719.00,608.00,827.00,1239.00,2594.00,1182.00,1521.00,,,,,,,,,,,,0,0,0,,-596,15388,4200,-177,104,-232
17.192,16.95,-0.69,-5.72,8.88,-7.65,9.54,2.50,-1.50,2.61,-1.76,213.00,581.00,426.00,686.00,1486.00,2421.00,1392.00,1451.00,,,,,,,,,,,,0,0,0,,-640,15352,4316,-128,56,-185
17.233,17.00,-0.69,6.11,-2.68,9.64,-4.02,-0.69,0.25,-2.48,1.73,321.00,496.00,648.00,498.00,1433.00,2621.00,1264.00,1616.00,,,,,,,,,,,,0,0,0,,-604,15444,4252,-93,124,-169
17.295,17.06,-0.85,-2.57,1.87,-0.48,-0.81,-3.85,4.30,-3.41,4.02,294.00,619.00,655.00,682.00,1219.00,2665.00,1136.00,1577.00,,,,,,,,,,,,0,0,0,,-632,15420,4152,-171,194,-168
17.378,17.11,-0.75,-10.86,15.32,-10.54,11.09,1.21,0.33,2.68,-0.61,165.00,599.00,413.00,738.00,1378.00,2426.00,1306.00,1403.00,,,,,,,,,,,,0,0,0,,-576,15272,4308,-205,273,-180
17.4,17.17,-0.70,8.85,-3.43,8.26,-1.76,0.27,-0.74,-1.81,1.05,318.00,454.00,588.00,495.00,1486.00,2592.00,1296.00,1603.00,,,,,,,,,,,,0,0,0,,-664,15164,4260,-116,200,-103
17.482,17.22,-0.86,-1.17,0.48,3.35,-3.56,-3.90,3.26,-5.18,4.69,309.00,608.00,709.00,631.00,1291.00,2746.00,1131.00,1661.00,,,,,,,,,,,,0,0,0,,-592,15440,4180,-91,95,-135
17.543,17.28,-0.89,-8.92,7.29,-9.63,4.83,-1.58,1.98,-0.40,0.94,246.00,688.00,570.00,842.00,1326.00,2592.00,1270.00,1520.00,,,,,,,,,,,,0,0,0,,-632,15444,4380,-194,55,-111
17.564,17.33,-0.75,-0.20,2.10,-3.26,4.75,2.00,-1.93,0.64,-0.95,278.00,560.00,510.00,656.00,1535.00,2498.00,1381.00,1535.00,,,,,,,,,,,,0,0,0,,-648,15336,4420,-14,174,-102
17.625,17.39,-0.84,5.87,-7.11,8.54,-6.64,-2.61,1.48,-4.70,2.83,410.00,564.00,762.00,558.00,1388.00,2736.00,1240.00,1713.00,,,,,,,,,,,,0,0,0,,-588,15448,4148,-48,222,-103
17.686,17.44,-0.94,-8.67,5.49,-5.84,1.11,-2.92,3.80,-1.88,2.83,270.00,715.00,651.00,801.00,1231.00,2603.00,1178.00,1532.00,,,,,,,,,,,,0,0,0,,-588,15376,4220,-60,153,-187
17.747,17.50,-0.80,-6.06,9.70,-8.24,10.09,1.96,-0.85,2.37,-1.19,205.00,576.00,418.00,692.00,1449.00,2431.00,1356.00,1443.00,,,,,,,,,,,,0,0,0,,-520,15368,4208,-91,100,-227
17.811,17.55,-0.78,7.27,-3.24,10.82,-3.60,-0.39,0.21,-2.18,1.66,324.00,481.00,620.00,470.00,1428.00,2593.00,1262.00,1600.00,,,,,,,,,,,,0,0,0,,-744,15336,4224,-224,78,-219
17.831,17.61,-0.92,-3.48,3.27,-0.07,-0.98,-3.65,4.34,-3.49,4.27,277.00,618.00,656.00,674.00,1212.00,2641.00,1122.00,1571.00,,,,,,,,,,,,0,0,0,,-624,15296,4256,-191,51,-184
17.912,17.66,-0.81,-11.68,16.17,-10.43,11.23,1.41,0.41,3.08,-0.59,160.00,605.00,409.00,732.00,1367.00,2402.00,1295.00,1380.00,,,,,,,,,,,,0,0,0,,-696,15352,4408,-146,117,-157
17.953,17.72,-0.73,9.46,-2.98,7.54,-0.85,0.63,-0.58,-1.08,0.57,307.00,438.00,567.00,497.00,1463.00,2544.00,1312.00,1577.00,,,,,,,,,,,,0,0,0,,-700,15404,4488,-104,125,-187
18.015,17.77,-0.88,0.10,-0.65,4.36,-4.21,-3.56,2.55,-4.71,3.91,321.00,596.00,721.00,617.00,1333.00,2761.00,1170.00,1665.00,,,,,,,,,,,,0,0,0,,-668,15340,4036,-58,116,-137
18.076,17.83,-0.92,-7.60,6.11,-8.85,4.00,-1.81,2.34,-0.83,1.31,256.00,674.00,588.00,835.00,1306.00,2591.00,1255.00,1531.00,,,,,,,,,,,,0,0,0,,-680,15332,4200,-101,145,-120
18.136,17.88,-0.78,-0.60,2.31,-3.38,4.75,1.96,-1.91,0.79,-1.18,277.00,566.00,511.00,659.00,1535.00,2501.00,1394.00,1535.00,,,,,,,,,,,,0,0,0,,-572,15392,4288,-98,194,-122
18.198,17.94,-0.88,6.00,-6.84,9.81,-7.28,-2.81,1.42,-4.94,2.56,403.00,557.00,771.00,540.00,1398.00,2763.00,1264.00,1742.00,,,,,,,,,,,,0,0,0,,-668,15400,4260,-76,128,-155
18.218,17.99,-1.01,-8.72,5.30,-5.83,1.88,-3.40,3.80,-2.71,3.27,273.00,720.00,624.00,784.00,1242.00,2653.00,1168.00,1565.00,,,,,,,,,,,,0,0,0,,-644,15412,4080,-72,113,-243
18.281,18.05,-0.88,-4.83,7.57,-8.36,9.53,1.60,-0.00,1.81,-0.30,225.00,581.00,432.00,706.00,1393.00,2410.00,1305.00,1440.00,,,,,,,,,,,,0,0,0,,-556,15300,4244,-235,81,-243
18.362,18.10,-0.85,8.07,-3.56,10.29,-3.21,-0.28,0.03,-2.39,1.76,325.00,470.00,613.00,475.00,1439.00,2594.00,1260.00,1609.00,,,,,,,,,,,,0,0,0,,-632,15340,4312,-107,67,-230
18.403,18.16,-1.00,-3.21,2.34,1.01,-1.68,-3.89,4.49,-4.02,4.80,290.00,627.00,668.00,658.00,1207.00,2655.00,1101.00,1582.00,,,,,,,,,,,,0,0,0,,-768,15404,4436,-35,162,-150
18.465,18.21,-0.89,-12.91,18.65,-11.97,12.30,1.20,0.58,2.68,-0.24,143.00,594.00,397.00,756.00,1360.00,2411.00,1280.00,1389.00,,,,,,,,,,,,0,0,0,,-712,15312,4124,-10,155,-150
18.507,18.27,-0.78,8.45,-2.34,6.43,-0.24,1.27,-1.22,-0.89,0.44,302.00,448.00,560.00,511.00,1497.00,2523.00,1317.00,1571.00,,,,,,,,,,,,0,0,0,,-640,15424,4072,-17,145,-130
18.568,18.32,-0.89,1.00,-1.80,5.10,-4.51,-3.01,2.17,-4.32,3.31,336.00,593.00,723.00,604.00,1347.00,2729.00,1200.00,1666.00,,,,,,,,,,,,0,0,0,,-696,15240,4200,-119,110,-154
18.672,18.38,-0.93,-7.31,5.80,-8.24,3.95,-1.64,2.55,-0.86,1.64,259.00,672.00,583.00,816.00,1287.00,2559.00,1233.00,1519.00,,,,,,,,,,,,0,0,0,,-584,15356,4296,-176,127,-159
18.693,18.43,-0.76,-1.14,3.03,-4.18,5.75,2.57,-2.01,1.18,-1.36,269.00,567.00,491.00,662.00,1526.00,2448.00,1398.00,1519.00,,,,,,,,,,,,0,0,0,,-580,15352,4332,-108,162,-166
18.714,18.49,-0.83,7.82,-8.30,9.71,-6.79,-2.19,1.02,-4.77,2.98,422.00,539.00,752.00,535.00,1412.00,2724.00,1232.00,1711.00,,,,,,,,,,,,0,0,0,,-668,15260,4164,-71,148,-203
18.775,18.54,-0.95,-7.57,4.99,-5.79,1.87,-3.28,4.06,-2.57,3.22,272.00,694.00,624.00,783.00,1222.00,2622.00,1168.00,1558.00,,,,,,,,,,,,0,0,0,,-632,15284,3988,-26,83,-203
18.836,18.60,-0.82,-8.42,12.79,-9.47,11.28,1.59,-0.06,1.47,0.16,181.00,582.00,401.00,704.00,1398.00,2415.00,1281.00,1442.00,,,,,,,,,,,,0,0,0,,-736,15308,4304,-93,115,-198
18.897,18.65,-0.80,7.05,-2.29,9.02,-2.42,-0.47,0.12,-2.42,1.71,309.00,473.00,601.00,489.00,1437.00,2607.00,1264.00,1613.00,,,,,,,,,,,,0,0,0,,-680,15372,4212,-170,128,-162
18.959,18.71,-0.98,-2.64,2.40,0.87,-1.29,-4.31,4.56,-4.73,5.06,286.00,612.00,656.00,655.00,1212.00,2695.00,1100.00,1616.00,,,,,,,,,,,,0,0,0,,-740,15340,4132,-125,141,-169
19.019,18.76,-0.91,-13.93,18.87,-11.14,10.98,0.52,0.82,1.80,-0.03,144.00,615.00,420.00,758.00,1359.00,2461.00,1286.00,1430.00,,,,,,,,,,,,0,0,0,,-704,15432,4236,-44,160,-160
19.061,18.82,-0.80,6.78,-1.34,3.08,0.88,1.15,-1.30,-0.79,0.03,295.00,466.00,560.00,566.00,1507.00,2541.00,1344.00,1582.00,,,,,,,,,,,,0,0,0,,-752,15244,4040,-181,139,-169
19.103,18.87,-0.91,2.72,-3.96,6.63,-6.02,-2.94,1.83,-4.27,2.98,366.00,587.00,763.00,592.00,1370.00,2746.00,1221.00,1678.00,,,,,,,,,,,,0,0,0,,-664,15384,4232,-151,88,-158
19.166,18.93,-0.97,-7.43,5.70,-8.02,3.62,-2.05,2.80,-1.11,1.82,261.00,677.00,591.00,816.00,1279.00,2583.00,1227.00,1527.00,,,,,,,,,,,,0,0,0,,-720,15292,4332,-94,197,-99
19.23,18.98,-0.78,-1.87,3.97,-4.56,6.26,2.82,-2.18,2.08,-1.62,259.00,569.00,481.00,663.00,1533.00,2435.00,1395.00,1476.00,,,,,,,,,,,,0,0,0,,-652,15488,4324,-58,178,-95
19.311,19.04,-0.84,9.34,-7.96,11.75,-7.20,-2.00,1.22,-4.48,2.88,403.00,503.00,741.00,499.00,1392.00,2689.00,1232.00,1696.00,,,,,,,,,,,,0,0,0,,-596,15420,4148,-89,137,-80
19.332,19.09,-0.97,-5.73,4.37,-4.25,1.41,-3.38,4.47,-2.30,3.39,272.00,656.00,622.00,746.00,1197.00,2603.00,1152.00,1535.00,,,,,,,,,,,,0,0,0,,-672,15332,4268,-130,94,-151
19.394,19.15,-0.83,-8.83,13.34,-8.96,10.47,1.64,0.17,2.07,-0.22,177.00,583.00,415.00,705.00,1379.00,2395.00,1293.00,1422.00,,,,,,,,,,,,0,0,0,,-744,15292,4360,-222,69,-165
19.455,19.20,-0.78,7.58,-2.76,10.39,-2.57,0.18,-0.07,-2.16,1.65,314.00,469.00,591.00,465.00,1435.00,2554.00,1262.00,1599.00,,,,,,,,,,,,0,0,0,,-636,15328,4300,-201,133,-150
19.496,19.26,-0.95,-1.49,0.89,2.44,-2.51,-4.12,4.73,-4.69,5.24,304.00,609.00,681.00,636.00,1197.00,2663.00,1088.00,1605.00,,,,,,,,,,,,0,0,0,,-588,15332,4204,-130,156,-194
19.559,19.31,-0.90,-14.19,19.74,-10.98,10.80,0.10,1.47,1.71,0.37,138.00,607.00,423.00,757.00,1322.00,2459.00,1261.00,1420.00,,,,,,,,,,,,0,0,0,,-656,15292,4164,-61,101,-191
19.621,19.37,-0.77,1.45,0.90,-0.30,2.90,1.64,-1.60,-0.58,-0.11,288.00,542.00,534.00,613.00,1518.00,2512.00,1349.00,1575.00,,,,,,,,,,,,0,0,0,,-700,15252,4208,-56,113,-138
19.725,19.42,-0.87,3.54,-4.98,6.67,-5.77,-2.82,1.79,-4.75,3.26,381.00,584.00,752.00,587.00,1370.00,2736.00,1213.00,1697.00,,,,,,,,,,,,0,0,0,,-652,15268,4216,-156,130,-141
19.767,19.48,-0.95,-8.52,6.07,-8.42,3.76,-2.34,2.90,-1.94,2.16,261.00,700.00,591.00,826.00,1279.00,2606.00,1223.00,1564.00,,,,,,,,,,,,0,0,0,,-684,15448,4252,-124,144,-154
19.787,19.53,-0.79,-3.36,5.65,-5.74,7.29,2.15,-1.79,1.77,-1.83,243.00,577.00,465.00,676.00,1520.00,2475.00,1419.00,1503.00,,,,,,,,,,,,0,0,0,,-584,15244,4216,-87,113,-139
19.828,19.59,-0.85,9.79,-8.48,11.57,-6.71,-1.93,0.96,-4.64,2.77,411.00,501.00,724.00,496.00,1410.00,2701.00,1243.00,1712.00,,,,,,,,,,,,0,0,0,,-612,15292,4224,-71,138,-222
19.89,19.64,-0.99,-3.70,3.48,-0.92,0.11,-3.63,4.51,-3.33,4.04,275.00,620.00,628.00,677.00,1200.00,2626.00,1133.00,1571.00,,,,,,,,,,,,0,0,0,,-572,15288,4320,-247,73,-165
19.951,19.70,-0.85,-9.67,14.26,-9.97,11.53,1.73,0.21,1.92,-0.02,171.00,588.00,399.00,713.00,1374.00,2384.00,1283.00,1423.00,,,,,,,,,,,,0,0,0,,-768,15392,4568,-118,105,-161
19.993,19.75,-0.79,7.51,-1.52,9.77,-1.88,0.44,-0.16,-2.31,1.69,294.00,455.00,576.00,468.00,1435.00,2534.00,1263.00,1607.00,,,,,,,,,,,,0,0,0,,-712,15356,4200,-50,183,-118
20.137,19.81,-0.95,-1.55,1.33,2.29,-2.41,-3.96,4.62,-4.61,5.02,297.00,603.00,679.00,638.00,1200.00,2653.00,1100.00,1610.00,,,,,,,,,,,,0,0,0,,-696,15292,4172,-71,131,-142
20.158,19.86,-0.91,-13.42,17.46,-10.67,9.55,-0.22,1.66,0.76,0.83,154.00,626.00,450.00,773.00,1316.00,2477.00,1251.00,1456.00,,,,,,,,,,,,0,0,0,,-652,15428,4096,-57,73,-174
20.178,19.92,-0.77,1.44,0.83,-1.33,3.45,1.99,-1.67,-0.01,-0.54,289.00,543.00,528.00,629.00,1514.00,2482.00,1367.00,1558.00,,,,,,,,,,,,0,0,0,,-660,15264,4280,-204,99,-182
20.199,19.97,-0.86,3.20,-4.22,7.82,-5.91,-2.64,1.91,-4.85,3.32,368.00,580.00,742.00,563.00,1357.00,2708.00,1211.00,1701.00,,,,,,,,,,,,0,0,0,,-536,15256,4224,-208,121,-161
20.26,20.03,-0.92,-8.98,6.58,-7.99,3.58,-2.13,3.27,-1.71,2.51,256.00,703.00,592.00,816.00,1249.00,2559.00,1195.00,1535.00,,,,,,,,,,,,0,0,0,,-624,15328,4132,-135,166,-174
20.322,20.08,-0.74,-3.99,7.04,-6.61,8.72,2.82,-1.84,2.28,-1.66,228.00,570.00,437.00,673.00,1505.00,2413.00,1393.00,1466.00,,,,,,,,,,,,0,0,0,,-740,15348,4248,-60,129,-166
20.404,20.14,-0.75,8.95,-6.94,12.05,-6.28,-1.00,0.85,-3.42,2.39,384.00,497.00,701.00,481.00,1395.00,2611.00,1241.00,1648.00,,,,,,,,,,,,0,0,0,,-580,15324,4344,-37,108,-119
20.507,20.19,-0.89,-1.71,0.30,-1.21,0.15,-3.67,4.64,-3.73,4.27,315.00,624.00,630.00,684.00,1193.00,2622.00,1127.00,1586.00,,,,,,,,,,,,0,0,0,,-652,15244,4064,-117,128,-151
20.529,20.25,-0.79,-9.61,13.92,-9.98,11.45,1.30,0.45,1.72,-0.05,174.00,592.00,401.00,715.00,1367.00,2410.00,1290.00,1436.00,,,,,,,,,,,,0,0,0,,-684,15360,4268,-152,161,-166
20.549,20.30,-0.74,8.61,-2.81,9.84,-2.07,0.07,-0.33,-2.59,1.64,309.00,451.00,581.00,469.00,1458.00,2583.00,1273.00,1627.00,,,,,,,,,,,,0,0,0,,-748,15260,4344,-82,91,-149
20.591,20.36,-0.92,-2.03,1.69,3.02,-2.90,-4.35,4.29,-5.26,5.22,294.00,609.00,688.00,628.00,1231.00,2719.00,1101.00,1643.00,,,,,,,,,,,,0,0,0,,-680,15340,4300,-88,136,-148
20.652,20.41,-0.94,-15.07,18.38,-10.13,7.95,-1.20,1.89,-0.86,1.26,151.00,652.00,486.00,790.00,1323.00,2559.00,1259.00,1535.00,,,,,,,,,,,,0,0,0,,-676,15268,4248,-123,144,-217
20.714,20.47,-0.81,-0.14,1.82,-2.09,3.82,1.67,-1.39,-0.20,-0.48,282.00,563.00,525.00,642.00,1500.00,2495.00,1367.00,1567.00,,,,,,,,,,,,0,0,0,,-740,15244,4268,-245,91,-156
20.755,20.52,-0.90,3.68,-4.53,8.17,-6.22,-2.63,1.72,-5.14,3.42,371.00,574.00,750.00,560.00,1371.00,2721.00,1211.00,1716.00,,,,,,,,,,,,0,0,0,,-672,15356,4424,-91,124,-156
20.859,20.58,-0.97,-9.38,6.29,-8.07,3.61,-2.43,3.71,-1.87,2.75,262.00,720.00,592.00,818.00,1226.00,2559.00,1183.00,1535.00,,,,,,,,,,,,0,0,0,,-676,15364,4432,-10,169,-167
20.879,20.63,-0.79,-5.44,8.78,-7.08,9.53,2.77,-1.49,2.25,-1.44,213.00,576.00,422.00,671.00,1478.00,2395.00,1377.00,1459.00,,,,,,,,,,,,0,0,0,,-764,15132,4180,-76,123,-135
20.921,20.69,-0.77,7.74,-5.75,12.36,-5.63,-0.37,0.68,-2.84,2.27,368.00,505.00,673.00,467.00,1392.00,2559.00,1236.00,1616.00,,,,,,,,,,,,0,0,0,,-696,15204,4132,-115,76,-175
20.982,20.74,-0.90,-3.30,2.95,-0.41,-0.09,-3.53,4.56,-3.85,4.66,281.00,619.00,629.00,667.00,1195.00,2613.00,1106.00,1577.00,,,,,,,,,,,,0,0,0,,-760,15312,4412,-257,158,-143
21.043,20.80,-0.78,-10.42,15.17,-9.98,11.49,1.62,0.49,1.91,0.05,165.00,591.00,400.00,714.00,1356.00,2377.00,1278.00,1421.00,,,,,,,,,,,,0,0,0,,-736,15332,4144,-256,202,-100
21.105,20.85,-0.71,9.05,-2.72,9.91,-1.93,0.65,-0.34,-2.26,1.66,305.00,442.00,576.00,466.00,1444.00,2526.00,1264.00,1605.00,,,,,,,,,,,,0,0,0,,-744,15344,4168,-158,143,-153
21.146,20.91,-0.87,-1.11,0.94,4.10,-3.10,-4.01,4.20,-5.42,5.22,301.00,599.00,682.00,605.00,1229.00,2689.00,1104.00,1653.00,,,,,,,,,,,,0,0,0,,-656,15300,4328,-136,69,-152
21.249,20.96,-0.90,-9.88,10.72,-10.22,7.38,-1.38,2.33,-1.08,1.59,208.00,652.00,502.00,805.00,1296.00,2547.00,1242.00,1535.00,,,,,,,,,,,,0,0,0,,-596,15336,4392,-79,113,-67
21.269,21.02,-0.76,-0.31,2.21,-2.51,4.49,1.86,-1.64,-0.41,-0.34,277.00,561.00,510.00,641.00,1515.00,2493.00,1362.00,1574.00,,,,,,,,,,,,0,0,0,,-684,15276,4156,-171,175,-105
21.31,21.07,-0.86,3.92,-4.56,8.17,-6.22,-2.84,1.82,-5.67,3.50,370.00,569.00,750.00,560.00,1369.00,2737.00,1217.00,1748.00,,,,,,,,,,,,0,0,0,,-668,15336,4140,-204,144,-109
21.371,21.13,-0.98,-9.93,7.04,-8.22,3.79,-3.22,4.09,-2.75,3.05,254.00,721.00,588.00,819.00,1219.00,2614.00,1183.00,1577.00,,,,,,,,,,,,0,0,0,,-684,15312,4376,-92,81,-137
21.432,21.18,-0.83,-7.38,11.07,-7.74,9.58,2.06,-1.06,0.86,-0.93,195.00,585.00,426.00,688.00,1463.00,2435.00,1374.00,1521.00,,,,,,,,,,,,0,0,0,,-732,15360,4328,-130,118,-142
21.494,21.24,-0.83,5.70,-2.07,9.81,-2.90,-0.82,0.60,-3.29,2.32,313.00,496.00,608.00,480.00,1409.00,2610.00,1243.00,1643.00,,,,,,,,,,,,0,0,0,,-712,15236,4384,-228,125,-200
21.535,21.29,-0.98,-3.59,2.65,-0.22,-0.53,-3.84,4.79,-4.37,5.17,287.00,631.00,642.00,670.00,1187.00,2629.00,1086.00,1588.00,,,,,,,,,,,,0,0,0,,-764,15252,4300,-88,115,-133
21.597,21.35,-0.87,-11.65,16.74,-11.12,12.20,1.28,0.77,1.87,0.11,155.00,595.00,393.00,733.00,1344.00,2391.00,1275.00,1421.00,,,,,,,,,,,,0,0,0,,-668,15276,4444,-70,141,-106
21.659,21.40,-0.79,8.63,-2.52,9.01,-1.24,0.77,-0.52,-1.92,1.30,304.00,447.00,564.00,474.00,1455.00,2526.00,1281.00,1599.00,,,,,,,,,,,,0,0,0,,-724,15312,4280,-44,134,-156
21.72,21.46,-0.93,-0.89,1.05,3.96,-3.27,-3.74,3.84,-5.72,5.29,298.00,592.00,690.00,611.00,1247.00,2686.00,1106.00,1670.00,,,,,,,,,,,,0,0,0,,-668,15488,4184,-66,139,-155
21.781,21.51,-0.96,-8.92,7.67,-8.62,4.92,-1.38,2.38,-1.21,1.78,241.00,681.00,557.00,807.00,1293.00,2544.00,1232.00,1535.00,,,,,,,,,,,,0,0,0,,-744,15276,4308,-166,73,-157
21.801,21.57,-0.80,-0.37,2.36,-3.11,5.21,2.11,-1.55,-0.10,-0.42,275.00,560.00,496.00,644.00,1501.00,2462.00,1360.00,1558.00,,,,,,,,,,,,0,0,0,,-652,15332,4388,-229,80,-157
21.864,21.62,-0.90,5.04,-5.63,9.24,-6.51,-2.75,1.86,-5.65,3.59,384.00,560.00,747.00,541.00,1363.00,2723.00,1211.00,1743.00,,,,,,,,,,,,0,0,0,,-716,15236,4504,-165,114,-141
21.967,21.68,-1.01,-8.94,6.00,-7.40,3.17,-3.01,4.14,-3.20,3.90,264.00,713.00,599.00,806.00,1211.00,2589.00,1139.00,1569.00,,,,,,,,,,,,0,0,0,,-636,15252,4328,-101,139,-183
21.988,21.73,-0.85,-6.90,10.62,-8.40,10.55,2.05,-0.65,1.53,-0.83,198.00,581.00,409.00,688.00,1431.00,2409.00,1350.00,1477.00,,,,,,,,,,,,0,0,0,,-612,15204,4232,-23,67,-161
22.029,21.79,-0.84,5.89,-1.90,10.47,-2.84,-0.56,0.49,-3.33,2.46,309.00,490.00,599.00,467.00,1411.00,2591.00,1234.00,1639.00,,,,,,,,,,,,0,0,0,,-588,15304,4416,-22,84,-118
22.069,21.84,-1.00,-3.29,2.75,-0.08,-0.52,-4.01,4.78,-4.57,4.95,284.00,622.00,640.00,666.00,1191.00,2647.00,1103.00,1610.00,,,,,,,,,,,,0,0,0,,-712,15332,4276,-71,137,-139
22.131,21.90,-0.90,-12.89,17.40,-11.88,12.36,1.00,0.79,1.98,0.03,153.00,614.00,395.00,752.00,1349.00,2416.00,1278.00,1418.00,,,,,,,,,,,,0,0,0,,-788,15320,4440,-84,149,-111
22.193,21.95,-0.83,8.83,-2.65,7.46,-0.72,0.40,-0.40,-1.65,0.95,305.00,445.00,564.00,497.00,1455.00,2555.00,1299.00,1597.00,,,,,,,,,,,,0,0,0,,-696,15264,4124,-85,152,-99
22.256,22.01,-0.98,-0.06,-0.54,4.59,-4.19,-3.79,3.35,-5.31,4.46,320.00,598.00,717.00,611.00,1282.00,2727.00,1148.00,1680.00,,,,,,,,,,,,0,0,0,,-648,15328,4300,-200,132,-117
22.336,22.06,-1.02,-8.03,6.70,-9.27,4.87,-1.70,2.63,-1.23,1.80,250.00,675.00,565.00,829.00,1283.00,2559.00,1231.00,1535.00,,,,,,,,,,,,0,0,0,,-640,15264,4364,-100,98,-171
22.377,22.12,-0.86,-0.84,2.72,-6.13,6.19,2.06,-1.52,-0.12,-0.41,272.00,565.00,497.00,707.00,1500.00,2465.00,1360.00,1559.00,,,,,,,,,,,,0,0,0,,-588,15336,4268,-100,117,-132
22.397,22.17,-0.95,5.75,-6.34,9.14,-6.30,-2.55,1.84,-5.43,3.61,394.00,555.00,740.00,540.00,1360.00,2704.00,1205.00,1727.00,,,,,,,,,,,,0,0,0,,-752,15376,4204,-53,134,-164
22.459,22.23,-1.07,-8.94,6.21,-6.91,3.00,-3.34,4.66,-3.20,3.95,261.00,709.00,599.00,794.00,1184.00,2586.00,1136.00,1567.00,,,,,,,,,,,,0,0,0,,-712,15348,4196,-5,106,-157
22.522,22.28,-0.93,-6.11,9.45,-7.85,9.35,1.57,0.44,1.67,-0.10,208.00,581.00,432.00,695.00,1361.00,2385.00,1294.00,1440.00,,,,,,,,,,,,0,0,0,,-708,15340,4248,-170,108,-193
22.583,22.34,-0.90,6.86,-2.40,10.48,-3.09,-0.25,0.49,-3.09,2.43,312.00,478.00,607.00,470.00,1403.00,2559.00,1231.00,1625.00,,,,,,,,,,,,0,0,0,,-696,15380,4368,-196,69,-118
22.624,22.39,-1.05,-3.31,3.02,0.67,-0.83,-3.95,5.01,-4.42,5.27,280.00,618.00,642.00,652.00,1175.00,2625.00,1081.00,1587.00,,,,,,,,,,,,0,0,0,,-764,15252,4360,-147,158,-112
22.726,22.45,-0.95,-14.20,19.88,-11.72,12.08,1.03,1.07,2.07,0.16,137.00,605.00,400.00,753.00,1328.00,2395.00,1267.00,1408.00,,,,,,,,,,,,0,0,0,,-672,15348,4428,-131,136,-145
22.747,22.50,-0.86,8.49,-2.47,7.54,-0.61,0.84,-0.50,-1.91,1.27,304.00,449.00,560.00,494.00,1451.00,2517.00,1283.00,1600.00,,,,,,,,,,,,0,0,0,,-652,15308,4284,-25,102,-144
22.788,22.56,-0.98,0.34,-1.08,4.78,-3.86,-3.33,2.62,-5.24,3.92,327.00,597.00,702.00,601.00,1322.00,2730.00,1181.00,1700.00,,,,,,,,,,,,0,0,0,,-612,15268,4276,-98,94,-119
22.85,22.61,-1.02,-8.42,7.05,-8.67,4.54,-1.82,2.81,-1.57,1.90,247.00,679.00,569.00,817.00,1273.00,2559.00,1232.00,1552.00,,,,,,,,,,,,0,0,0,,-708,15456,4400,-118,145,-158
22.912,22.67,-0.87,-1.54,3.16,-4.39,5.68,2.08,-1.95,-0.00,-0.68,269.00,574.00,495.00,669.00,1535.00,2492.00,1377.00,1563.00,,,,,,,,,,,,0,0,0,,-816,15268,4260,-99,141,-163
22.974,22.72,-0.97,5.62,-6.34,10.20,-7.03,-2.82,1.79,-5.61,3.54,395.00,558.00,755.00,528.00,1370.00,2736.00,1213.00,1742.00,,,,,,,,,,,,0,0,0,,-676,15324,4384,-123,108,-194
23.095,22.78,-1.08,-8.42,5.75,-6.67,2.80,-3.26,4.42,-3.06,3.88,265.00,703.00,603.00,791.00,1198.00,2595.00,1137.00,1561.00,,,,,,,,,,,,0,0,0,,-652,15200,4380,-226,71,-141
23.135,22.83,-0.94,-6.69,10.18,-8.13,10.14,1.73,0.36,1.04,0.44,202.00,583.00,416.00,688.00,1363.00,2375.00,1271.00,1455.00,,,,,,,,,,,,0,0,0,,-780,15324,4540,-138,84,-193
23.156,22.89,-0.90,7.38,-2.46,9.93,-2.60,-0.16,0.43,-2.90,2.35,310.00,469.00,597.00,474.00,1405.00,2554.00,1232.00,1616.00,,,,,,,,,,,,0,0,0,,-668,15352,4316,-49,162,-143
23.178,22.94,-1.05,-2.77,2.77,0.42,-0.69,-3.91,5.11,-4.15,5.08,281.00,609.00,640.00,656.00,1168.00,2614.00,1087.00,1578.00,,,,,,,,,,,,0,0,0,,-700,15196,4336,-103,123,-173
23.238,23.00,-0.94,-14.09,20.53,-12.03,12.89,1.11,1.13,2.16,0.26,132.00,592.00,385.00,746.00,1322.00,2384.00,1258.00,1399.00,,,,,,,,,,,,0,0,0,,-708,15416,4136,-61,92,-210
23.278,23.05,-0.84,8.18,-1.43,6.18,0.28,1.19,-0.72,-1.60,1.25,289.00,442.00,547.00,509.00,1459.00,2497.00,1277.00,1581.00,,,,,,,,,,,,0,0,0,,-556,15280,4336,-229,109,-173
23.343,23.11,-0.95,0.58,-0.93,5.61,-4.58,-3.00,2.57,-5.34,4.70,323.00,589.00,719.00,593.00,1318.00,2699.00,1134.00,1671.00,,,,,,,,,,,,0,0,0,,-768,15400,4508,-170,117,-162
23.423,23.16,-0.98,-7.97,7.05,-8.61,4.36,-1.72,2.84,-1.15,1.91,245.00,667.00,574.00,819.00,1269.00,2547.00,1222.00,1526.00,,,,,,,,,,,,0,0,0,,-588,15252,4344,-131,150,-139
23.443,23.22,-0.82,-1.38,3.38,-1.65,2.54,2.29,-1.60,0.58,-0.86,265.00,567.00,558.00,653.00,1500.00,2448.00,1376.00,1535.00,,,,,,,,,,,,0,0,0,,-660,15384,4392,-91,90,-155
23.503,23.27,-0.91,8.74,-7.67,10.99,-6.97,-2.53,1.78,-5.19,3.45,401.00,511.00,742.00,511.00,1364.00,2706.00,1210.00,1718.00,,,,,,,,,,,,0,0,0,,-636,15160,4340,-72,116,-119
23.565,23.33,-1.02,-8.48,5.84,-6.18,2.54,-3.28,4.39,-2.57,2.97,264.00,703.00,606.00,781.00,1200.00,2598.00,1184.00,1569.00,,,,,,,,,,,,0,0,0,,-708,15228,4328,-127,164,-125
23.627,23.38,-0.91,-7.72,11.95,-8.95,10.55,1.29,0.51,1.34,0.22,187.00,579.00,413.00,703.00,1363.00,2407.00,1280.00,1447.00,,,,,,,,,,,,0,0,0,,-568,15392,4488,-140,158,-128
23.687,23.44,-0.89,7.25,-2.36,9.35,-2.22,-0.48,0.49,-3.02,2.25,309.00,470.00,591.00,480.00,1409.00,2583.00,1241.00,1628.00,,,,,,,,,,,,0,0,0,,-644,15296,4308,-70,138,-197
23.729,23.49,-1.05,-3.48,3.27,0.62,-1.21,-4.15,4.94,-4.66,5.34,277.00,618.00,656.00,660.00,1184.00,2651.00,1082.00,1599.00,,,,,,,,,,,,0,0,0,,-612,15144,4360,-135,95,-232
23.833,23.55,-0.95,-14.18,20.28,-11.75,12.32,1.07,1.14,2.13,0.23,134.00,598.00,395.00,749.00,1322.00,2387.00,1261.00,1402.00,,,,,,,,,,,,0,0,0,,-672,15288,4556,-178,76,-181
23.853,23.60,-0.84,7.58,-1.29,6.02,0.36,1.19,-0.63,-1.40,1.24,290.00,451.00,546.00,511.00,1452.00,2491.00,1273.00,1569.00,,,,,,,,,,,,0,0,0,,-652,15208,4400,-45,152,-127
23.894,23.66,-0.94,1.81,-2.93,5.55,-4.87,-2.89,2.52,-4.46,3.56,352.00,592.00,731.00,599.00,1319.00,2691.00,1187.00,1664.00,,,,,,,,,,,,0,0,0,,-648,15252,4440,-29,153,-144
23.975,23.71,-0.98,-7.44,6.50,-8.61,4.49,-1.67,2.95,-0.90,1.90,250.00,663.00,570.00,816.00,1260.00,2534.00,1217.00,1511.00,,,,,,,,,,,,0,0,0,,-712,15200,4236,-88,104,-94
23.995,23.77,-0.79,-1.99,4.16,-4.43,6.41,2.68,-1.66,0.93,-0.94,257.00,569.00,476.00,657.00,1494.00,2414.00,1373.00,1517.00,,,,,,,,,,,,0,0,0,,-772,15272,4348,-93,85,-165
24.056,23.82,-0.87,7.51,-7.07,12.21,-7.28,-2.33,1.83,-4.90,3.41,397.00,528.00,738.00,491.00,1355.00,2681.00,1206.00,1700.00,,,,,,,,,,,,0,0,0,,-840,15272,4392,-221,136,-132
24.119,23.88,-0.98,-7.71,5.51,-5.37,2.27,-2.96,4.49,-2.79,4.10,265.00,688.00,606.00,762.00,1187.00,2559.00,1118.00,1535.00,,,,,,,,,,,,0,0,0,,-680,15284,4440,-168,160,-125
24.16,23.93,-0.83,-7.26,11.60,-8.45,10.57,1.86,0.36,1.80,0.13,189.00,574.00,409.00,689.00,1360.00,2363.00,1275.00,1424.00,,,,,,,,,,,,0,0,0,,-684,15272,4588,-109,140,-177
24.222,23.99,-0.80,6.70,-1.93,10.56,-2.66,-0.10,0.49,-2.58,2.22,305.00,475.00,592.00,463.00,1399.00,2544.00,1233.00,1601.00,,,,,,,,,,,,0,0,0,,-700,15408,4456,-70,74,-188
24.284,24.04,-0.97,-3.20,3.05,1.27,-1.32,-4.23,5.21,-4.69,5.43,279.00,615.00,652.00,645.00,1168.00,2639.00,1077.00,1597.00,,,,,,,,,,,,0,0,0,,-772,15268,4172,-51,115,-155
24.346,24.10,-0.88,-14.84,20.64,-10.78,11.44,0.70,1.32,2.20,0.20,133.00,608.00,407.00,738.00,1318.00,2410.00,1261.00,1399.00,,,,,,,,,,,,0,0,0,,-732,15380,4352,-182,157,-143
24.447,24.15,-0.79,7.08,-0.80,4.55,0.96,1.09,-0.76,-1.36,0.82,285.00,454.00,543.00,533.00,1465.00,2510.00,1301.00,1584.00,,,,,,,,,,,,0,0,0,,-680,15312,4392,-119,144,-140
24.467,24.21,-0.91,2.10,-3.29,5.98,-5.06,-3.21,2.43,-4.78,3.45,357.00,591.00,733.00,592.00,1333.00,2731.00,1201.00,1690.00,,,,,,,,,,,,0,0,0,,-740,15348,4328,-61,135,-143
24.529,24.26,-0.95,-8.49,7.38,-8.52,4.27,-1.71,2.65,-1.28,1.88,243.00,675.00,576.00,818.00,1282.00,2559.00,1227.00,1535.00,,,,,,,,,,,,0,0,0,,-656,15324,4408,-101,160,-246
24.55,24.32,-0.76,-1.82,4.17,-4.35,6.35,2.73,-1.77,1.52,-1.17,256.00,565.00,477.00,656.00,1502.00,2417.00,1375.00,1491.00,,,,,,,,,,,,0,0,0,,-632,15344,4356,-225,88,-190
24.612,24.37,-0.83,8.62,-7.49,11.55,-6.76,-2.06,1.55,-4.53,3.24,398.00,511.00,726.00,497.00,1369.00,2672.00,1209.00,1683.00,,,,,,,,,,,,0,0,0,,-784,15264,4544,-73,125,-178
24.674,24.43,-0.94,-8.16,6.02,-4.85,1.94,-3.00,4.55,-2.29,3.64,260.00,691.00,611.00,753.00,1184.00,2559.00,1136.00,1524.00,,,,,,,,,,,,0,0,0,,-720,15332,4416,-63,147,-146
24.716,24.48,-0.79,-8.02,12.66,-9.05,11.13,1.97,0.32,2.12,0.05,181.00,575.00,401.00,695.00,1360.00,2355.00,1273.00,1409.00,,,,,,,,,,,,0,0,0,,-768,15300,4228,-97,109,-145
24.777,24.54,-0.75,7.48,-2.13,11.47,-2.93,0.08,0.38,-2.27,2.20,304.00,463.00,591.00,450.00,1403.00,2534.00,1228.00,1583.00,,,,,,,,,,,,0,0,0,,-828,15172,4212,-60,106,-199
24.838,24.59,-0.90,-2.04,1.81,1.28,-0.97,-3.81,5.12,-4.42,5.55,292.00,607.00,640.00,639.00,1165.00,2602.00,1065.00,1575.00,,,,,,,,,,,,0,0,0,,-664,15172,4300,-235,83,-164
24.898,24.65,-0.81,-14.00,20.08,-11.55,11.93,0.95,1.34,2.16,0.45,135.00,597.00,402.00,751.00,1311.00,2386.00,1245.00,1392.00,,,,,,,,,,,,0,0,0,,-728,15320,4432,-219,112,-160
24.96,24.70,-0.69,6.78,-0.77,4.43,1.41,1.54,-0.98,-0.18,0.26,286.00,459.00,531.00,529.00,1471.00,2481.00,1313.00,1535.00,,,,,,,,,,,,0,0,0,,-644,15272,4524,-139,164,-179
25.02,24.76,-0.78,2.95,-3.78,6.81,-5.59,-2.55,2.13,-4.48,3.57,361.00,579.00,743.00,581.00,1339.00,2683.00,1187.00,1665.00,,,,,,,,,,,,0,0,0,,-708,15208,4424,-57,90,-182
25.081,24.81,-0.83,-8.31,7.16,-8.83,4.83,-1.73,2.92,-0.94,1.84,245.00,674.00,562.00,816.00,1264.00,2543.00,1222.00,1516.00,,,,,,,,,,,,0,0,0,,-668,15288,4328,-31,89,-155
25.101,24.87,-0.66,-1.53,4.07,-4.66,6.80,2.60,-1.76,1.68,-1.33,256.00,560.00,468.00,656.00,1505.00,2429.00,1383.00,1488.00,,,,,,,,,,,,0,0,0,,-780,15280,4536,-109,139,-163
25.162,24.92,-0.74,8.74,-7.30,11.09,-6.45,-2.26,1.65,-4.60,3.19,393.00,506.00,720.00,502.00,1367.00,2687.00,1214.00,1690.00,,,,,,,,,,,,0,0,0,,-740,15268,4300,-199,137,-153
25.203,24.98,-0.87,-7.69,5.65,-4.67,1.88,-3.39,4.42,-2.56,3.76,263.00,685.00,611.00,749.00,1201.00,2608.00,1134.00,1535.00,,,,,,,,,,,,0,0,0,,-748,15256,4368,-123,118,-121
25.304,25.03,-0.76,-8.87,13.46,-9.09,10.60,1.44,0.35,1.90,-0.02,176.00,582.00,413.00,706.00,1371.00,2403.00,1283.00,1424.00,,,,,,,,,,,,0,0,0,,-748,15196,4288,-93,129,-163
25.324,25.09,-0.73,7.38,-2.46,10.17,-2.56,-0.13,0.32,-2.32,1.83,310.00,469.00,593.00,469.00,1413.00,2559.00,1254.00,1602.00,,,,,,,,,,,,0,0,0,,-680,15300,4304,-91,164,-194
25.386,25.14,-0.90,-2.83,2.99,1.40,-1.44,-4.19,5.04,-4.68,5.60,278.00,607.00,655.00,644.00,1178.00,2647.00,1067.00,1589.00,,,,,,,,,,,,0,0,0,,-820,15244,4328,-207,94,-182
25.427,25.20,-0.81,-12.86,18.90,-11.48,11.72,0.81,1.37,2.20,0.42,141.00,589.00,406.00,753.00,1312.00,2397.00,1246.00,1391.00,,,,,,,,,,,,0,0,0,,-776,15228,4620,-112,112,-193
25.488,25.25,-0.69,7.14,-1.46,2.89,1.96,1.59,-1.09,-0.32,0.49,295.00,461.00,530.00,554.00,1478.00,2483.00,1300.00,1534.00,,,,,,,,,,,,0,0,0,,-752,15432,4660,-45,154,-119
25.549,25.31,-0.79,2.62,-3.10,6.53,-4.92,-2.61,2.16,-3.93,3.51,350.00,576.00,720.00,577.00,1338.00,2687.00,1179.00,1632.00,,,,,,,,,,,,0,0,0,,-776,15412,4144,-53,170,-128
25.632,25.36,-0.84,-8.05,7.00,-7.92,4.46,-1.73,3.06,-0.68,1.86,246.00,670.00,564.00,795.00,1254.00,2533.00,1215.00,1500.00,,,,,,,,,,,,0,0,0,,-712,15212,4216,-90,100,-158
25.652,25.42,-0.65,-2.31,5.22,-4.94,7.34,2.91,-1.82,1.73,-1.22,244.00,560.00,457.00,654.00,1501.00,2403.00,1374.00,1481.00,,,,,,,,,,,,0,0,0,,-732,15224,4256,-217,60,-169
25.714,25.47,-0.71,8.51,-6.89,11.75,-6.59,-1.81,1.50,-3.93,2.71,386.00,505.00,717.00,491.00,1367.00,2650.00,1231.00,1667.00,,,,,,,,,,,,0,0,0,,-668,15252,4316,-233,110,-158
25.794,25.53,-0.83,-6.75,5.47,-4.06,1.74,-3.20,4.52,-2.25,3.68,261.00,663.00,609.00,734.00,1190.00,2581.00,1133.00,1520.00,,,,,,,,,,,,0,0,0,,-864,15248,4568,-161,168,-172
25.814,25.58,-0.70,-8.39,12.89,-9.79,12.33,1.83,0.37,2.20,0.07,180.00,580.00,381.00,693.00,1360.00,2365.00,1270.00,1404.00,,,,,,,,,,,,0,0,0,,-632,15336,4436,-50,129,-170
25.876,25.64,-0.68,7.41,-2.11,10.23,-2.33,-0.40,0.27,-2.16,2.05,304.00,464.00,585.00,465.00,1424.00,2590.00,1235.00,1582.00,,,,,,,,,,,,0,0,0,,-728,15248,4472,-10,72,-164
25.937,25.69,-0.86,-3.05,3.06,1.42,-1.54,-4.13,4.99,-4.43,5.59,278.00,611.00,658.00,645.00,1180.00,2645.00,1063.00,1574.00,,,,,,,,,,,,0,0,0,,-736,15272,4368,-80,145,-163
25.997,25.75,-0.78,-12.73,19.93,-11.19,11.00,0.68,1.19,2.24,0.31,133.00,570.00,420.00,759.00,1328.00,2421.00,1253.00,1393.00,,,,,,,,,,,,0,0,0,,-740,15176,4268,-167,151,-189
26.039,25.80,-0.67,5.43,-0.05,2.46,1.94,1.36,-1.17,-0.54,0.24,282.00,475.00,535.00,564.00,1491.00,2511.00,1323.00,1558.00,,,,,,,,,,,,0,0,0,,-724,15256,4268,-168,78,-160
26.102,25.86,-0.78,2.65,-3.48,7.00,-5.60,-2.87,2.12,-4.50,3.37,357.00,581.00,741.00,577.00,1347.00,2717.00,1200.00,1675.00,,,,,,,,,,,,0,0,0,,-712,15296,4424,-78,107,-155
26.143,25.91,-0.85,-8.42,6.83,-7.77,3.17,-2.13,2.92,-1.23,2.03,250.00,683.00,603.00,818.00,1273.00,2583.00,1216.00,1526.00,,,,,,,,,,,,0,0,0,,-776,15180,4292,-71,162,-160
26.205,25.97,-0.68,-3.08,5.63,-5.41,7.29,2.46,-1.94,1.80,-1.50,242.00,571.00,462.00,667.00,1523.00,2454.00,1393.00,1488.00,,,,,,,,,,,,0,0,0,,-736,15220,4356,-62,167,-221
26.266,26.02,-0.75,8.62,-7.49,11.66,-6.77,-1.94,1.29,-4.48,3.17,398.00,511.00,725.00,495.00,1386.00,2679.00,1213.00,1683.00,,,,,,,,,,,,0,0,0,,-780,15240,4300,-178,88,-189
26.37,26.08,-0.87,-6.15,4.99,-3.07,1.26,-3.26,4.41,-2.46,3.66,265.00,656.00,614.00,715.00,1199.00,2596.00,1138.00,1533.00,,,,,,,,,,,,0,0,0,,-788,15392,4408,-23,118,-167
26.412,26.13,-0.73,-10.27,14.57,-9.04,11.22,1.91,0.20,2.30,-0.11,170.00,597.00,399.00,693.00,1370.00,2368.00,1280.00,1405.00,,,,,,,,,,,,0,0,0,,-824,15240,4240,1,172,-132
26.454,26.19,-0.68,7.75,-2.52,10.48,-2.54,0.28,0.16,-1.99,2.21,309.00,463.00,589.00,463.00,1415.00,2529.00,1221.00,1565.00,,,,,,,,,,,,0,0,0,,-664,15296,4416,-87,170,-151
26.475,26.24,-0.85,-3.18,3.37,1.35,-1.31,-3.95,4.91,-4.25,5.70,274.00,609.00,651.00,643.00,1181.00,2631.00,1053.00,1558.00,,,,,,,,,,,,0,0,0,,-704,15248,4304,-75,80,-187
26.537,26.30,-0.76,-13.77,19.87,-10.71,10.84,0.88,1.34,2.35,0.52,136.00,595.00,420.00,748.00,1313.00,2393.00,1236.00,1379.00,,,,,,,,,,,,0,0,0,,-764,15232,4272,-255,62,-162
26.579,26.35,-0.64,6.12,-0.29,2.92,1.99,1.75,-1.28,-0.03,0.14,282.00,465.00,529.00,553.00,1489.00,2480.00,1318.00,1531.00,,,,,,,,,,,,0,0,0,,-724,15336,4488,-204,125,-164
26.661,26.41,-0.73,2.68,-3.38,6.83,-5.55,-2.59,2.08,-4.09,3.37,355.00,579.00,741.00,580.00,1343.00,2690.00,1191.00,1648.00,,,,,,,,,,,,0,0,0,,-680,15240,4400,-119,153,-175
26.742,26.46,-0.78,-8.43,7.28,-8.07,4.12,-1.76,2.92,-0.91,2.16,244.00,675.00,576.00,807.00,1264.00,2545.00,1200.00,1501.00,,,,,,,,,,,,0,0,0,,-688,15308,4312,-60,110,-164
26.762,26.52,-0.60,-3.56,6.34,-4.75,6.99,2.91,-1.98,1.93,-1.37,235.00,571.00,464.00,655.00,1514.00,2413.00,1380.00,1475.00,,,,,,,,,,,,0,0,0,,-824,15272,4360,-20,77,-129
26.822,26.57,-0.67,8.51,-7.03,11.48,-6.58,-1.94,1.38,-4.38,3.09,389.00,507.00,720.00,496.00,1379.00,2672.00,1216.00,1680.00,,,,,,,,,,,,0,0,0,,-672,15328,4248,-138,163,-169
26.863,26.63,-0.80,-6.55,5.40,-3.65,1.54,-3.36,4.38,-2.51,3.71,261.00,659.00,611.00,726.00,1203.00,2608.00,1136.00,1534.00,,,,,,,,,,,,0,0,0,,-828,15232,4328,-141,137,-154
26.925,26.68,-0.69,-9.09,13.54,-10.00,11.73,1.48,0.25,1.96,0.01,176.00,586.00,395.00,710.00,1377.00,2405.00,1280.00,1420.00,,,,,,,,,,,,0,0,0,,-760,15252,4268,-147,97,-146
26.987,26.74,-0.65,7.07,-1.69,9.57,-2.07,0.02,0.10,-2.16,1.93,299.00,465.00,584.00,474.00,1426.00,2559.00,1243.00,1587.00,,,,,,,,,,,,0,0,0,,-684,15296,4328,-80,88,-132
27.028,26.79,-0.83,-2.32,2.16,1.12,-1.49,-4.17,4.66,-4.60,5.56,288.00,608.00,660.00,652.00,1202.00,2672.00,1068.00,1586.00,,,,,,,,,,,,0,0,0,,-716,15236,4464,-113,178,-134
27.11,26.85,-0.77,-14.77,19.80,-10.95,10.35,0.30,1.33,2.12,0.21,139.00,620.00,433.00,765.00,1327.00,2448.00,1262.00,1403.00,,,,,,,,,,,,0,0,0,,-748,15228,4240,-121,142,-220
27.13,26.90,-0.65,4.89,-0.20,2.87,1.59,1.59,-1.34,-0.07,0.09,287.00,487.00,541.00,560.00,1498.00,2499.00,1322.00,1535.00,,,,,,,,,,,,0,0,0,,-804,15216,4404,-191,69,-168
27.191,26.96,-0.75,2.43,-3.40,6.52,-4.96,-2.67,2.06,-4.03,3.29,357.00,585.00,722.00,578.00,1347.00,2701.00,1195.00,1648.00,,,,,,,,,,,,0,0,0,,-704,15308,4356,-17,119,-191
27.252,27.01,-0.81,-8.39,7.12,-7.96,3.54,-1.87,2.96,-0.78,2.15,246.00,677.00,593.00,816.00,1264.00,2554.00,1198.00,1494.00,,,,,,,,,,,,0,0,0,,-848,15228,4312,-23,186,-145
27.314,27.07,-0.63,-2.87,5.72,-4.67,6.77,2.76,-1.77,2.33,-1.45,240.00,565.00,469.00,657.00,1501.00,2414.00,1376.00,1455.00,,,,,,,,,,,,0,0,0,,-768,15240,4300,-81,133,-133
27.356,27.12,-0.69,8.65,-7.17,11.48,-6.58,-1.83,1.41,-4.30,3.30,391.00,506.00,720.00,496.00,1374.00,2658.00,1200.00,1665.00,,,,,,,,,,,,0,0,0,,-736,15280,4512,-109,83,-179
27.42,27.18,-0.81,-6.72,5.60,-3.41,1.49,-3.05,4.32,-2.43,4.07,259.00,660.00,610.00,720.00,1200.00,2580.00,1113.00,1515.00,,,,,,,,,,,,0,0,0,,-740,15256,4244,-266,89,-169
27.483,27.23,-0.67,-8.47,13.33,-11.27,13.97,1.99,0.18,2.50,-0.03,176.00,575.00,358.00,703.00,1370.00,2362.00,1270.00,1391.00,,,,,,,,,,,,0,0,0,,-760,15332,4492,-199,133,-171
27.525,27.29,-0.62,7.71,-2.15,9.93,-2.13,0.32,0.09,-1.72,1.95,303.00,459.00,582.00,468.00,1419.00,2529.00,1232.00,1559.00,,,,,,,,,,,,0,0,0,,-804,15240,4428,-83,160,-174
27.607,27.34,-0.78,-2.38,2.44,1.83,-1.78,-3.83,4.69,-4.23,5.35,284.00,605.00,662.00,639.00,1193.00,2635.00,1073.00,1572.00,,,,,,,,,,,,0,0,0,,-684,15268,4472,-2,68,-165
27.628,27.40,-0.70,-14.86,20.79,-11.67,12.06,0.75,1.17,2.28,0.45,132.00,606.00,400.00,752.00,1328.00,2416.00,1242.00,1385.00,,,,,,,,,,,,0,0,0,,-848,15248,4284,-14,115,-113
27.71,27.45,-0.59,5.17,-0.23,3.34,1.64,1.66,-1.42,-0.16,0.25,286.00,482.00,535.00,549.00,1503.00,2498.00,1313.00,1534.00,,,,,,,,,,,,0,0,0,,-776,15312,4368,-125,148,-134
27.772,27.51,-0.70,2.07,-3.12,6.26,-5.48,-2.84,2.07,-4.11,3.33,354.00,589.00,746.00,592.00,1350.00,2718.00,1194.00,1651.00,,,,,,,,,,,,0,0,0,,-772,15236,4260,-177,132,-132
27.833,27.56,-0.76,-8.26,6.92,-8.30,4.03,-2.01,2.81,-1.22,2.17,248.00,677.00,581.00,816.00,1278.00,2579.00,1206.00,1519.00,,,,,,,,,,,,0,0,0,,-768,15240,4344,-95,89,-125
27.874,27.62,-0.60,-2.73,4.91,-5.25,7.28,2.49,-1.98,2.13,-1.47,250.00,574.00,461.00,663.00,1526.00,2454.00,1382.00,1467.00,,,,,,,,,,,,0,0,0,,-792,15380,4388,-90,127,-137
27.914,27.67,-0.68,7.55,-6.71,10.98,-6.44,-2.14,1.23,-4.32,3.11,389.00,522.00,721.00,504.00,1395.00,2704.00,1213.00,1675.00,,,,,,,,,,,,0,0,0,,-696,15284,4312,-49,163,-144
27.955,27.73,-0.82,-6.92,5.11,-3.92,1.42,-3.47,4.31,-2.34,3.54,267.00,674.00,618.00,736.00,1210.00,2624.00,1143.00,1531.00,,,,,,,,,,,,0,0,0,,-652,15224,4376,-151,134,-181
28.015,27.78,-0.69,-9.15,13.56,-9.61,11.37,1.76,0.20,2.40,0.09,176.00,587.00,400.00,706.00,1374.00,2382.00,1264.00,1392.00,,,,,,,,,,,,0,0,0,,-728,15364,4572,-122,91,-195
28.076,27.84,-0.64,7.79,-2.83,10.04,-2.45,0.19,0.07,-1.70,2.02,314.00,466.00,591.00,470.00,1424.00,2544.00,1227.00,1555.00,,,,,,,,,,,,0,0,0,,-784,15180,4484,6,152,-140
28.14,27.89,-0.82,-2.48,2.35,1.55,-1.49,-4.17,5.11,-3.71,5.47,286.00,609.00,655.00,641.00,1173.00,2640.00,1056.00,1535.00,,,,,,,,,,,,0,0,0,,-800,15240,4336,37,173,-138
28.221,27.95,-0.74,-13.46,18.97,-11.26,11.11,0.80,1.29,2.89,0.40,142.00,602.00,418.00,759.00,1318.00,2403.00,1232.00,1354.00,,,,,,,,,,,,0,0,0,,-824,15216,4168,29,133,-72
28.262,28.00,-0.61,5.22,0.02,3.19,1.94,1.92,-1.45,0.41,-0.15,282.00,478.00,528.00,548.00,1498.00,2474.00,1328.00,1516.00,,,,,,,,,,,,0,0,0,,-772,15316,4168,-26,75,-133
28.282,28.06,-0.70,1.95,-2.82,6.05,-5.03,-2.47,2.06,-3.78,3.39,349.00,587.00,731.00,590.00,1342.00,2679.00,1183.00,1627.00,,,,,,,,,,,,0,0,0,,-852,15256,4432,-249,91,-132
28.343,28.11,-0.75,-8.08,6.94,-8.19,4.16,-1.62,2.92,-0.55,2.06,247.00,672.00,576.00,810.00,1261.00,2531.00,1199.00,1484.00,,,,,,,,,,,,0,0,0,,-736,15256,4496,-155,174,-94
28.403,28.17,-0.55,-3.20,5.67,-4.73,6.90,3.10,-1.96,2.47,-1.66,242.00,573.00,466.00,656.00,1507.00,2394.00,1388.00,1455.00,,,,,,,,,,,,0,0,0,,-652,15292,4408,-52,170,-161
28.466,28.22,-0.61,8.67,-7.27,12.10,-6.97,-1.67,1.25,-4.42,3.34,393.00,507.00,727.00,489.00,1382.00,2653.00,1200.00,1671.00,,,,,,,,,,,,0,0,0,,-752,15288,4392,35,62,-143
28.568,28.28,-0.71,-7.12,5.74,-3.40,1.21,-2.61,3.97,-2.26,3.70,259.00,668.00,619.00,725.00,1213.00,2559.00,1132.00,1520.00,,,,,,,,,,,,0,0,0,,-740,15268,4528,74,113,-92
28.589,28.33,-0.59,-9.34,13.83,-9.23,11.28,1.76,0.17,2.40,-0.17,174.00,587.00,399.00,697.00,1376.00,2384.00,1282.00,1402.00,,,,,,,,,,,,0,0,0,,-856,15332,4356,74,168,-110
28.651,28.39,-0.55,7.57,-2.34,10.21,-2.54,0.14,0.10,-1.84,1.80,307.00,464.00,592.00,468.00,1423.00,2547.00,1245.00,1573.00,,,,,,,,,,,,0,0,0,,-828,15332,4424,279,116,6
28.671,28.44,-0.73,-4.65,3.40,1.40,-1.55,-4.18,4.87,-4.22,5.39,281.00,645.00,659.00,646.00,1189.00,2659.00,1070.00,1569.00,,,,,,,,,,,,0,0,0,,-760,15344,4364,401,161,1
28.732,28.50,-0.67,-15.07,21.28,-11.32,11.00,0.47,1.22,2.54,0.07,129.00,603.00,421.00,763.00,1331.00,2439.00,1262.00,1385.00,,,,,,,,,,,,0,0,0,,-776,15396,4100,419,265,-42
28.795,28.55,-0.57,5.83,-0.25,2.60,1.92,1.36,-1.53,0.16,-0.25,283.00,470.00,534.00,561.00,1520.00,2535.00,1341.00,1535.00,,,,,,,,,,,,0,0,0,,-576,15504,4008,324,297,-81
28.836,28.61,-0.69,1.77,-2.86,6.07,-5.19,-2.99,2.11,-4.08,3.23,351.00,592.00,737.00,592.00,1351.00,2731.00,1200.00,1654.00,,,,,,,,,,,,0,0,0,,-684,15400,3644,83,196,-112
28.939,28.66,-0.74,-8.06,6.64,-7.87,3.95,-1.69,2.82,-0.79,1.89,251.00,677.00,579.00,804.00,1270.00,2546.00,1215.00,1505.00,,,,,,,,,,,,0,0,0,,-684,15396,4112,-63,71,-178
28.959,28.72,-0.56,-2.75,5.14,-4.72,7.06,2.84,-1.87,2.40,-1.56,247.00,571.00,462.00,653.00,1507.00,2413.00,1382.00,1455.00,,,,,,,,,,,,0,0,0,,-724,15472,3908,-161,92,-223
29.02,28.77,-0.62,8.77,-7.49,12.44,-6.85,-1.71,1.30,-4.37,3.15,397.00,508.00,718.00,481.00,1379.00,2653.00,1212.00,1677.00,,,,,,,,,,,,0,0,0,,-780,15436,4084,-255,109,-251
29.102,28.83,-0.73,-7.09,5.59,-3.50,1.67,-2.90,4.41,-2.20,3.53,261.00,670.00,605.00,719.00,1191.00,2559.00,1141.00,1523.00,,,,,,,,,,,,0,0,0,,-736,15436,4060,-337,36,-274
29.123,28.88,-0.59,-9.34,13.83,-9.32,11.32,2.09,0.13,2.63,-0.38,174.00,587.00,399.00,699.00,1371.00,2356.00,1291.00,1397.00,,,,,,,,,,,,0,0,0,,-768,15300,4148,-358,24,-263
29.164,28.94,-0.54,7.13,-2.01,10.43,-2.30,0.46,-0.02,-1.84,1.81,304.00,468.00,582.00,461.00,1424.00,2523.00,1244.00,1572.00,,,,,,,,,,,,0,0,0,,-1012,15340,4296,-321,43,-213
29.226,28.99,-0.71,-2.31,2.10,2.12,-1.63,-3.98,4.91,-4.04,5.42,289.00,609.00,653.00,629.00,1182.00,2635.00,1065.00,1557.00,,,,,,,,,,,,0,0,0,,-796,15448,4448,-187,157,-173
29.31,29.05,-0.63,-14.85,21.21,-11.63,12.00,1.00,1.13,2.76,-0.06,129.00,599.00,401.00,752.00,1325.00,2395.00,1266.00,1378.00,,,,,,,,,,,,0,0,0,,-800,15324,4136,-83,149,-141
29.331,29.10,-0.51,5.87,-0.40,3.55,1.60,1.78,-1.32,0.02,-0.03,285.00,471.00,534.00,545.00,1491.00,2479.00,1329.00,1535.00,,,,,,,,,,,,0,0,0,,-796,15336,4220,-67,93,-116
29.392,29.16,-0.61,2.77,-3.77,6.83,-5.75,-2.66,2.07,-4.23,3.25,362.00,583.00,749.00,583.00,1346.00,2699.00,1202.00,1663.00,,,,,,,,,,,,0,0,0,,-704,15324,4168,-95,129,-122
29.456,29.21,-0.67,-8.45,6.76,-8.24,4.27,-1.72,2.72,-1.12,2.00,251.00,685.00,573.00,809.00,1277.00,2555.00,1215.00,1520.00,,,,,,,,,,,,0,0,0,,-740,15364,4156,-215,167,-166
29.497,29.27,-0.49,-2.78,5.46,-4.79,6.77,2.90,-2.05,1.78,-1.48,243.00,567.00,470.00,660.00,1520.00,2419.00,1392.00,1488.00,,,,,,,,,,,,0,0,0,,-672,15376,4232,-169,106,-139
29.559,29.32,-0.57,7.30,-6.91,12.57,-7.50,-2.04,1.27,-4.28,2.83,395.00,530.00,742.00,487.00,1390.00,2691.00,1231.00,1685.00,,,,,,,,,,,,0,0,0,,-708,15408,4240,-96,100,-159
29.622,29.38,-0.70,-7.24,4.87,-4.78,1.89,-3.27,4.15,-2.91,3.85,272.00,687.00,612.00,752.00,1216.00,2615.00,1136.00,1553.00,,,,,,,,,,,,0,0,0,,-792,15320,4100,-43,154,-184
29.725,29.43,-0.58,-8.13,11.80,-9.52,11.34,1.77,0.16,2.39,-0.31,190.00,591.00,400.00,704.00,1377.00,2384.00,1292.00,1408.00,,,,,,,,,,,,0,0,0,,-672,15300,4020,-133,112,-169
29.747,29.49,-0.54,7.57,-2.34,10.00,-2.47,0.19,0.07,-1.97,1.88,307.00,464.00,592.00,471.00,1424.00,2544.00,1242.00,1577.00,,,,,,,,,,,,0,0,0,,-768,15332,4224,-60,93,-152
29.768,29.54,-0.70,-3.33,3.36,1.65,-1.70,-3.70,4.72,-3.98,5.28,275.00,613.00,661.00,642.00,1188.00,2619.00,1072.00,1559.00,,,,,,,,,,,,0,0,0,,-860,15324,4212,-28,199,-88
29.83,29.60,-0.62,-14.58,20.01,-11.51,11.87,0.94,1.11,2.34,0.18,137.00,612.00,403.00,751.00,1328.00,2402.00,1259.00,1392.00,,,,,,,,,,,,0,0,0,,-820,15368,4280,23,218,-68
29.892,29.65,-0.50,5.90,-0.28,4.00,1.35,1.79,-1.34,0.08,-0.03,283.00,469.00,537.00,539.00,1493.00,2480.00,1327.00,1531.00,,,,,,,,,,,,0,0,0,,-768,15432,4052,-16,156,-43
29.955,29.71,-0.60,1.96,-3.09,6.84,-5.50,-2.63,2.06,-4.09,3.37,354.00,591.00,739.00,579.00,1346.00,2696.00,1191.00,1648.00,,,,,,,,,,,,0,0,0,,-720,15348,4276,-97,108,-98
30.036,29.76,-0.66,-8.26,7.15,-8.19,4.48,-1.76,2.92,-0.60,1.78,245.00,673.00,566.00,803.00,1264.00,2545.00,1218.00,1498.00,,,,,,,,,,,,1,1,0,,-740,15380,4172,-190,105,-112
30.057,29.82,-0.47,-2.07,4.40,-4.80,7.01,3.16,-2.32,2.05,-1.55,254.00,567.00,464.00,656.00,1535.00,2411.00,1390.00,1475.00,,,,,,,,,,,,1,1,0,,-776,15436,4040,-159,178,-179
30.119,29.87,-0.53,8.50,-7.31,12.15,-6.81,-1.73,1.28,-4.35,3.09,395.00,511.00,720.00,486.00,1381.00,2657.00,1215.00,1678.00,,,,,,,,,,,,1,1,0,,-740,15440,4192,-75,148,-178
30.181,29.93,-0.67,-6.95,5.33,-4.12,1.67,-3.32,4.56,-2.30,3.63,264.00,671.00,612.00,737.00,1190.00,2591.00,1137.00,1525.00,,,,,,,,,,,,1,1,0,,-828,15444,4184,-24,59,-151
30.223,29.98,-0.55,-8.78,13.33,-9.73,11.97,1.81,0.20,2.18,-0.17,177.00,582.00,388.00,698.00,1373.00,2378.00,1287.00,1414.00,,,,,,,,,,,,1,1,0,,-848,15428,4028,-34,147,-124
30.264,30.04,-0.52,7.46,-2.66,10.36,-2.68,0.05,0.05,-2.10,1.71,313.00,470.00,595.00,467.00,1429.00,2559.00,1257.00,1593.00,,,,,,,,,,,,1,1,0,,-760,15300,4192,-144,173,-156
30.326,30.09,-0.70,-3.39,2.78,1.65,-1.58,-4.19,4.70,-4.51,5.41,284.00,624.00,657.00,640.00,1200.00,2672.00,1075.00,1587.00,,,,,,,,,,,,1,1,0,,-688,15408,4032,-165,111,-155
30.428,30.15,-0.64,-15.43,20.84,-11.56,11.21,0.53,1.09,2.24,-0.02,133.00,619.00,418.00,766.00,1339.00,2442.00,1275.00,1405.00,,,,,,,,,,,,1,1,0,,-728,15364,4028,-91,103,-120
30.448,30.20,-0.54,5.63,-0.83,2.78,1.93,1.34,-1.44,-0.40,-0.17,293.00,481.00,532.00,557.00,1513.00,2531.00,1349.00,1566.00,,,,,,,,,,,,1,1,0,,-764,15292,4188,-55,165,-122
30.489,30.26,-0.66,1.54,-2.84,6.10,-5.18,-2.86,1.85,-4.42,3.15,352.00,597.00,736.00,591.00,1367.00,2736.00,1213.00,1680.00,,,,,,,,,,,,1,1,0,,-772,15216,4112,-118,166,-169
30.55,30.31,-0.71,-9.03,7.41,-8.03,4.10,-1.73,2.68,-0.68,1.67,245.00,689.00,576.00,806.00,1280.00,2559.00,1227.00,1507.00,,,,,,,,,,,,1,1,0,,-748,15328,4052,-180,84,-165
30.612,30.37,-0.55,-2.46,4.46,-4.90,7.04,2.57,-1.88,1.93,-1.68,255.00,575.00,464.00,658.00,1515.00,2439.00,1403.00,1487.00,,,,,,,,,,,,1,1,0,,-780,15456,4144,-65,122,-153
30.674,30.42,-0.61,8.50,-7.31,12.24,-6.86,-1.89,1.19,-4.22,2.85,395.00,511.00,721.00,485.00,1392.00,2680.00,1228.00,1680.00,,,,,,,,,,,,1,1,0,,-660,15468,4072,54,185,-112
30.734,30.48,-0.75,-7.47,5.64,-3.54,1.17,-3.24,4.28,-2.32,3.54,262.00,679.00,622.00,730.00,1207.00,2603.00,1143.00,1530.00,,,,,,,,,,,,1,1,0,,-796,15416,3932,23,137,-105
30.776,30.53,-0.63,-9.62,14.24,-9.66,12.18,1.66,0.21,2.36,-0.27,171.00,587.00,383.00,692.00,1376.00,2391.00,1290.00,1408.00,,,,,,,,,,,,1,1,0,,-724,15360,4080,18,133,-129
30.817,30.59,-0.59,7.71,-2.63,10.24,-2.27,0.04,0.13,-2.17,2.00,311.00,465.00,583.00,464.00,1423.00,2555.00,1239.00,1585.00,,,,,,,,,,,,1,1,0,,-592,15432,4136,-135,90,-127
30.878,30.64,-0.77,-3.65,3.46,1.65,-1.64,-4.11,4.88,-4.11,5.24,275.00,619.00,659.00,641.00,1187.00,2651.00,1077.00,1569.00,,,,,,,,,,,,1,1,0,,-724,15388,4244,-161,130,-128
30.94,30.70,-0.70,-14.55,19.60,-11.09,11.05,0.66,1.04,2.47,0.07,140.00,618.00,418.00,755.00,1339.00,2432.00,1264.00,1389.00,,,,,,,,,,,,1,1,0,,-776,15372,4136,-101,196,-156
30.982,30.75,-0.59,5.53,0.11,2.86,1.94,1.42,-1.28,-0.65,0.21,279.00,471.00,531.00,555.00,1498.00,2512.00,1328.00,1566.00,,,,,,,,,,,,1,1,0,,-792,15404,4184,21,109,-112
31.065,30.81,-0.71,1.81,-2.93,7.65,-5.85,-2.93,1.93,-4.35,3.11,352.00,592.00,742.00,566.00,1363.00,2738.00,1214.00,1677.00,,,,,,,,,,,,1,1,0,,-736,15280,4212,140,122,-89
31.085,30.86,-0.78,-8.66,6.91,-8.35,4.11,-2.23,2.84,-1.17,1.84,250.00,688.00,579.00,816.00,1281.00,2599.00,1227.00,1530.00,,,,,,,,,,,,1,1,0,,-720,15364,4200,228,149,-88
31.148,30.92,-0.63,-2.48,4.61,-5.24,7.16,2.23,-1.93,1.48,-1.66,253.00,573.00,464.00,665.00,1529.00,2476.00,1413.00,1513.00,,,,,,,,,,,,1,1,0,,-768,15400,5360,71,-44,129
31.21,30.97,-0.72,7.82,-7.31,11.70,-6.91,-2.28,1.15,-4.79,2.83,400.00,525.00,730.00,496.00,1405.00,2725.00,1242.00,1719.00,,,,,,,,,,,,1,1,0,,-792,15008,5808,1939,-179,752
31.271,31.03,-0.86,-7.75,5.95,-4.41,1.50,-3.65,4.24,-3.00,3.62,259.00,681.00,621.00,749.00,1218.00,2647.00,1152.00,1568.00,,,,,,,,,,,,1,1,0,,-576,15380,4784,4307,-64,592
31.332,31.08,-0.76,-10.50,14.98,-10.02,11.51,1.11,0.18,1.47,-0.10,167.00,596.00,400.00,715.00,1392.00,2446.00,1299.00,1452.00,,,,,,,,,,,,1,1,0,,-624,15552,3204,5972,525,649
31.373,31.14,-0.75,7.08,-2.42,9.14,-2.37,-0.43,0.21,-2.30,1.67,311.00,474.00,598.00,486.00,1429.00,2597.00,1264.00,1607.00,,,,,,,,,,,,1,1,0,,-412,15820,1432,4909,1088,238
31.456,31.19,-0.93,-4.34,3.76,0.91,-1.70,-4.39,4.77,-4.53,5.31,274.00,631.00,670.00,661.00,1200.00,2688.00,1081.00,1592.00,,,,,,,,,,,,1,1,0,,-356,15932,0,2983,1252,-87
31.518,31.25,-0.87,-14.66,18.99,-12.09,11.17,0.17,1.26,2.09,0.05,145.00,631.00,423.00,783.00,1335.00,2465.00,1274.00,1411.00,,,,,,,,,,,,1,1,0,,-428,16260,-228,2338,721,6
31.538,31.30,-0.77,4.19,0.23,2.56,1.60,1.16,-1.38,-0.65,-0.15,284.00,495.00,544.00,567.00,1513.00,2545.00,1354.00,1581.00,,,,,,,,,,,,1,1,0,,-476,16116,44,1946,317,242
31.6,31.36,-0.89,1.76,-3.78,5.49,-5.39,-3.11,2.01,-4.59,3.26,369.00,607.00,753.00,609.00,1361.00,2751.00,1209.00,1686.00,,,,,,,,,,,,1,1,0,,-408,15960,272,800,-86,258
31.642,31.41,-0.96,-8.54,5.72,-8.67,3.81,-2.40,2.95,-1.21,1.78,266.00,707.00,592.00,833.00,1277.00,2609.00,1232.00,1535.00,,,,,,,,,,,,1,1,0,,-328,15972,864,-705,-211,318
31.723,31.47,-0.80,-2.98,4.20,-6.18,7.28,2.41,-2.07,1.33,-1.55,261.00,591.00,469.00,688.00,1535.00,2467.00,1409.00,1518.00,,,,,,,,,,,,1,1,0,,-200,16116,1268,-1203,-96,228
31.807,31.52,-0.87,7.00,-7.08,9.82,-6.53,-2.32,1.13,-4.89,2.85,401.00,539.00,740.00,529.00,1407.00,2730.00,1243.00,1725.00,,,,,,,,,,,,1,1,0,,-152,16424,1528,-715,-95,84
31.828,31.58,-1.01,-7.21,4.66,-4.35,1.36,-3.73,4.24,-3.33,3.73,275.00,690.00,625.00,750.00,1220.00,2656.00,1152.00,1584.00,,,,,,,,,,,,1,1,0,,-108,16212,1544,74,-109,-31
31.891,31.63,-0.91,-10.30,13.63,-10.01,11.18,1.11,0.22,1.47,-0.26,179.00,613.00,407.00,721.00,1389.00,2443.00,1310.00,1458.00,,,,,,,,,,,,1,1,0,,-212,16180,1324,222,-28,-257
31.932,31.69,-0.90,5.45,-1.63,9.00,-2.63,-0.67,0.11,-2.59,1.55,307.00,495.00,608.00,492.00,1443.00,2629.00,1279.00,1631.00,,,,,,,,,,,,1,1,0,,-280,15972,932,-129,-55,-296
31.993,31.74,-1.09,-3.66,2.23,0.64,-1.85,-4.82,4.90,-5.48,5.61,294.00,640.00,679.00,671.00,1201.00,2725.00,1082.00,1640.00,,,,,,,,,,,,1,1,0,,-316,16200,1248,-22,-20,-168
32.035,31.80,-1.05,-14.87,18.18,-13.29,11.40,-0.29,1.24,1.24,0.08,152.00,650.00,427.00,816.00,1348.00,2512.00,1292.00,1458.00,,,,,,,,,,,,1,1,0,,-200,16072,1304,-901,44,-158
32.097,31.85,-0.97,4.09,-0.43,2.23,1.17,0.60,-1.46,-1.38,0.04,295.00,506.00,560.00,581.00,1535.00,2607.00,1358.00,1619.00,,,,,,,,,,,,1,1,0,,-216,16200,1456,-821,34,-334
32.158,31.91,-1.10,1.02,-3.49,7.01,-6.27,-3.63,1.92,-5.06,3.06,368.00,620.00,768.00,587.00,1381.00,2816.00,1233.00,1727.00,,,,,,,,,,,,1,1,0,,-220,16064,1140,-379,-81,-346
32.26,31.96,-1.19,-9.54,6.62,-6.56,3.10,-2.74,2.86,-1.68,1.74,258.00,718.00,592.00,781.00,1291.00,2650.00,1245.00,1565.00,,,,,,,,,,,,1,1,0,,-328,16092,1168,-72,-488,-577
32.28,32.02,-1.02,-3.21,3.79,-5.72,6.93,2.03,-1.94,1.38,-1.56,268.00,603.00,474.00,682.00,1535.00,2496.00,1408.00,1515.00,,,,,,,,,,,,1,1,0,,-484,15604,456,-267,-1528,-212
32.342,32.07,-1.10,6.42,-7.25,11.40,-7.14,-2.58,1.18,-5.40,3.68,409.00,554.00,743.00,505.00,1410.00,2755.00,1200.00,1722.00,,,,,,,,,,,,1,1,0,,-200,15388,-1028,910,-6257,1766
32.383,32.13,-1.24,-7.38,4.92,-3.96,0.93,-3.83,4.17,-3.23,3.60,272.00,690.00,635.00,747.00,1227.00,2672.00,1158.00,1583.00,,,,,,,,,,,,1,1,0,,544,16084,448,3446,-11730,3603
32.445,32.18,-1.12,-9.37,12.02,-10.62,11.62,1.07,0.15,1.74,-0.28,192.00,617.00,402.00,730.00,1395.00,2451.00,1305.00,1443.00,,,,,,,,,,,,1,1,0,,948,16928,3188,2792,-9710,3164
32.466,32.24,-1.09,5.66,-1.94,8.53,-2.37,-0.55,0.02,-2.65,1.70,311.00,495.00,605.00,498.00,1447.00,2623.00,1270.00,1628.00,,,,,,,,,,,,1,1,0,,1128,16660,2844,1570,-3204,1422
32.528,32.29,-1.28,-3.23,1.78,0.67,-1.61,-4.83,4.87,-5.34,5.38,299.00,637.00,670.00,666.00,1203.00,2728.00,1093.00,1641.00,,,,,,,,,,,,1,1,0,,1396,16440,1580,1088,1616,687
32.608,32.35,-1.23,-14.83,18.54,-11.73,10.83,-0.31,1.30,1.29,0.16,149.00,643.00,428.00,779.00,1344.00,2510.00,1285.00,1452.00,,,,,,,,,,,,1,1,0,,1868,16592,-16,-77,3880,-187
32.629,32.40,-1.14,2.53,0.28,0.85,1.64,0.66,-1.36,-1.24,0.15,292.00,528.00,560.00,606.00,1525.00,2594.00,1346.00,1605.00,,,,,,,,,,,,1,1,0,,1916,15892,-548,-296,3124,-51
32.69,32.46,-1.27,1.11,-3.87,5.54,-5.78,-3.73,1.98,-5.04,3.14,375.00,624.00,768.00,614.00,1379.00,2822.00,1227.00,1722.00,,,,,,,,,,,,1,1,0,,1748,16268,60,-669,2518,-34
32.752,32.51,-1.35,-9.79,6.42,-9.53,3.85,-2.96,2.88,-2.16,2.01,262.00,729.00,600.00,861.00,1295.00,2672.00,1238.00,1584.00,,,,,,,,,,,,1,1,0,,1752,16248,-204,-916,1671,-289
32.813,32.57,-1.20,-4.54,5.01,-6.59,7.02,1.60,-1.79,1.08,-1.60,257.00,615.00,479.00,704.00,1535.00,2529.00,1419.00,1535.00,,,,,,,,,,,,1,1,0,,1724,16436,428,-1160,1444,-471
32.854,32.62,-1.29,6.59,-7.71,9.11,-6.47,-2.85,1.11,-5.09,2.74,418.00,557.00,747.00,543.00,1422.00,2789.00,1255.00,1744.00,,,,,,,,,,,,1,1,0,,1632,16376,332,-865,659,-1104
32.915,32.68,-1.44,-6.81,4.13,-4.01,0.80,-4.40,4.20,-4.02,3.88,281.00,689.00,640.00,751.00,1238.00,2731.00,1157.00,1621.00,,,,,,,,,,,,1,1,0,,1188,16084,988,-995,248,-1103
32.998,32.73,-1.34,-11.67,14.40,-10.69,10.61,0.65,0.06,0.97,-0.19,176.00,634.00,425.00,752.00,1413.00,2499.00,1317.00,1484.00,,,,,,,,,,,,1,1,0,,1028,15892,864,-822,461,-766
33.019,32.79,-1.32,4.27,-1.94,7.79,-2.25,-0.88,0.00,-2.88,1.72,319.00,523.00,609.00,511.00,1457.00,2658.00,1274.00,1642.00,,,,,,,,,,,,1,1,0,,900,16028,984,-500,580,-553
33.102,32.84,-1.49,-3.82,1.61,0.42,-1.97,-4.75,4.55,-5.32,5.30,305.00,655.00,686.00,679.00,1222.00,2742.00,1097.00,1643.00,,,,,,,,,,,,1,1,0,,928,15984,708,-369,270,-360
33.144,32.90,-1.44,-14.70,17.89,-12.23,10.57,-0.48,1.39,1.12,0.43,154.00,651.00,438.00,800.00,1342.00,2521.00,1270.00,1451.00,,,,,,,,,,,,1,1,0,,868,16072,856,-521,335,-186
33.205,32.95,-1.32,0.53,0.76,-0.78,2.35,0.88,-1.55,-0.85,-0.18,295.00,564.00,555.00,634.00,1535.00,2585.00,1361.00,1595.00,,,,,,,,,,,,1,1,0,,1040,16152,1104,-526,301,-86
33.247,33.01,-1.44,1.11,-3.87,5.08,-5.28,-3.73,2.06,-5.00,3.29,375.00,624.00,754.00,617.00,1373.00,2816.00,1216.00,1712.00,,,,,,,,,,,,1,1,0,,936,16168,1152,-145,303,-156
33.372,33.06,-1.51,-9.45,5.62,-9.43,3.88,-2.89,3.01,-1.94,2.04,272.00,735.00,598.00,857.00,1284.00,2655.00,1231.00,1569.00,,,,,,,,,,,,1,1,0,,1088,16132,824,163,-33,-27
33.392,33.12,-1.34,-4.97,5.89,-6.97,7.74,1.96,-1.91,1.24,-1.47,247.00,611.00,464.00,701.00,1535.00,2501.00,1405.00,1520.00,,,,,,,,,,,,1,1,0,,1088,15936,-272,1059,-1852,210
33.412,33.17,-1.40,6.67,-7.70,9.60,-6.63,-2.63,1.09,-4.73,2.86,417.00,555.00,747.00,535.00,1418.00,2767.00,1239.00,1714.00,,,,,,,,,,,,1,1,0,,1344,16312,-1236,3422,-6194,899
33.454,33.23,-1.56,-5.13,3.37,-2.63,0.34,-4.60,4.49,-4.15,4.60,284.00,658.00,640.00,720.00,1223.00,2731.00,1116.00,1599.00,,,,,,,,,,,,1,1,0,,2112,16584,-416,6009,-11122,1554
33.515,33.28,-1.50,-10.41,13.26,-10.97,10.88,-0.23,0.14,0.71,-0.17,183.00,622.00,421.00,755.00,1429.00,2581.00,1322.00,1499.00,,,,,,,,,,,,1,1,0,,2088,16892,1192,3507,-9488,765
33.576,33.34,-1.52,5.15,-1.41,7.79,-2.25,-1.91,-0.46,-3.36,1.16,305.00,498.00,609.00,511.00,1522.00,2803.00,1325.00,1699.00,,,,,,,,,,,,1,1,0,,1868,17208,1008,2477,-3530,-244
33.637,33.39,-1.74,-3.77,1.59,-0.14,-2.02,-5.92,3.78,-6.18,4.68,305.00,654.00,695.00,695.00,1302.00,2933.00,1153.00,1729.00,,,,,,,,,,,,1,1,0,,1668,16508,-144,1257,1171,-1546
33.72,33.45,-1.76,-16.68,20.58,-12.40,9.76,-2.17,0.82,-0.48,-0.05,138.00,655.00,459.00,823.00,1427.00,2737.00,1342.00,1566.00,,,,,,,,,,,,1,1,0,,1484,15700,-1500,368,2683,-1073
33.741,33.50,-1.70,-1.06,0.98,-3.28,2.73,-0.65,-2.27,-2.09,-1.00,300.00,597.00,569.00,693.00,1641.00,2800.00,1455.00,1712.00,,,,,,,,,,,,1,1,0,,1368,16508,-1292,-1834,3343,-1024
33.782,33.56,-1.86,0.84,-4.40,3.09,-4.12,-4.88,1.30,-6.08,2.67,388.00,640.00,734.00,647.00,1461.00,3008.00,1283.00,1817.00,,,,,,,,,,,,1,1,0,,1100,16464,-1212,-1660,3880,-1321
33.845,33.61,-1.97,-10.60,5.87,-9.78,3.36,-3.94,2.38,-2.98,1.58,274.00,764.00,619.00,881.00,1355.00,2816.00,1286.00,1655.00,,,,,,,,,,,,1,1,0,,820,16260,-936,-761,4335,-1047
33.908,33.67,-1.83,-5.86,5.89,-7.77,7.93,0.84,-2.15,0.48,-1.96,251.00,633.00,466.00,720.00,1587.00,2631.00,1463.00,1587.00,,,,,,,,,,,,1,1,0,,760,15560,-1852,-730,4083,-370
33.97,33.72,-1.88,5.70,-7.19,9.28,-6.65,-2.93,0.64,-5.02,1.82,413.00,569.00,752.00,542.00,1461.00,2834.00,1318.00,1783.00,,,,,,,,,,,,1,1,0,,996,16072,-2088,-18,576,1285
34.033,33.78,-2.04,-5.99,3.08,-2.50,0.15,-5.09,4.33,-4.42,3.80,293.00,686.00,645.00,720.00,1245.00,2797.00,1171.00,1651.00,,,,,,,,,,,,1,1,0,,1392,16536,-908,-404,-437,1067
34.094,33.83,-1.93,-11.13,12.61,-10.80,10.43,0.19,-0.01,0.58,-0.53,192.00,651.00,430.00,759.00,1430.00,2549.00,1351.00,1521.00,,,,,,,,,,,,1,1,0,,1504,16408,-364,-387,257,616
34.115,33.89,-1.90,4.06,-1.99,6.74,-1.56,-1.29,-0.21,-3.35,1.20,321.00,528.00,598.00,523.00,1485.00,2717.00,1322.00,1697.00,,,,,,,,,,,,1,1,0,,1824,16484,-724,-424,769,249
34.176,33.94,-2.07,-4.27,0.93,0.20,-1.97,-5.35,4.18,-5.69,4.74,319.00,679.00,689.00,685.00,1261.00,2837.00,1139.00,1693.00,,,,,,,,,,,,1,1,0,,1772,16320,-832,-325,853,310
34.238,34.00,-2.04,-14.67,16.49,-12.13,9.55,-1.38,1.19,0.01,0.22,166.00,675.00,462.00,819.00,1379.00,2627.00,1311.00,1525.00,,,,,,,,,,,,1,1,0,,1840,16352,-712,-420,912,-114
34.299,34.05,-1.91,-1.40,0.02,-2.63,2.81,0.40,-1.98,-1.60,-0.60,318.00,621.00,560.00,674.00,1585.00,2665.00,1411.00,1661.00,,,,,,,,,,,,1,1,0,,1672,16232,-856,-513,808,-259
34.36,34.11,-2.02,0.04,-4.09,4.85,-5.42,-4.05,1.53,-5.81,2.85,387.00,655.00,763.00,625.00,1421.00,2893.00,1264.00,1789.00,,,,,,,,,,,,1,1,0,,1616,16256,-592,-637,488,-254
34.462,34.16,-2.10,-11.03,6.01,-10.12,3.78,-3.66,2.85,-3.26,2.26,274.00,774.00,609.00,883.00,1314.00,2750.00,1246.00,1643.00,,,,,,,,,,,,1,1,0,,1632,16300,-296,-945,708,-201
34.482,34.22,-1.94,-6.13,5.77,-8.02,8.29,1.10,-1.96,0.39,-1.87,254.00,642.00,459.00,720.00,1563.00,2591.00,1458.00,1589.00,,,,,,,,,,,,1,1,0,,1516,16400,-684,-609,1029,-493
34.502,34.27,-2.00,5.30,-7.63,6.60,-5.35,-2.97,0.72,-5.12,2.23,426.00,585.00,736.00,582.00,1456.00,2833.00,1291.00,1770.00,,,,,,,,,,,,1,1,0,,1452,16228,-724,53,160,-93
34.564,34.33,-2.14,-6.73,3.27,-3.05,0.20,-4.95,4.09,-4.72,3.83,294.00,703.00,650.00,735.00,1258.00,2799.00,1175.00,1669.00,,,,,,,,,,,,1,1,0,,1392,16244,-164,-444,-45,-96
34.625,34.38,-2.02,-11.34,12.02,-10.94,10.44,0.27,0.04,0.70,-0.46,199.00,667.00,431.00,763.00,1424.00,2538.00,1343.00,1511.00,,,,,,,,,,,,1,1,0,,1460,16300,-392,-306,580,-97
34.667,34.44,-1.95,4.01,-2.53,6.82,-1.89,-0.62,-0.87,-4.19,2.96,331.00,537.00,608.00,526.00,1520.00,2693.00,1220.00,1673.00,,,,,,,,,,,,1,1,0,,1388,16212,-312,-595,702,-276
34.729,34.49,-2.11,-4.32,0.83,0.20,-1.87,-5.16,4.44,-5.54,4.99,321.00,682.00,685.00,683.00,1239.00,2796.00,1120.00,1671.00,,,,,,,,,,,,1,1,0,,1424,16188,-336,-225,802,-248
34.812,34.55,-2.07,-15.39,16.85,-11.49,9.06,-1.29,1.63,0.01,0.49,165.00,688.00,469.00,809.00,1344.00,2586.00,1292.00,1514.00,,,,,,,,,,,,1,1,0,,1484,16184,-156,-101,561,-167
34.832,34.60,-1.92,-1.92,1.03,-2.26,2.98,0.90,-1.90,-1.05,-0.38,304.00,617.00,551.00,661.00,1564.00,2608.00,1381.00,1616.00,,,,,,,,,,,,1,1,0,,1316,16108,-416,51,469,-62
34.894,34.66,-2.01,0.83,-4.92,5.75,-5.85,-3.62,1.78,-5.35,3.17,399.00,649.00,768.00,610.00,1391.00,2825.00,1232.00,1742.00,,,,,,,,,,,,1,1,0,,1364,16128,-444,-161,49,165
34.954,34.71,-2.08,-10.81,5.74,-9.48,3.77,-3.35,3.46,-2.33,2.23,277.00,773.00,602.00,861.00,1264.00,2672.00,1227.00,1585.00,,,,,,,,,,,,1,1,0,,1460,16284,-192,-405,457,148
35.015,34.77,-1.87,-6.09,6.34,-7.56,8.14,1.96,-1.82,1.27,-1.69,246.00,631.00,459.00,710.00,1527.00,2495.00,1421.00,1527.00,,,,,,,,,,,,1,1,0,,1716,16292,-596,-127,299,64
35.076,34.82,-1.87,5.50,-6.76,9.14,-5.95,-1.88,0.84,-3.89,2.37,405.00,567.00,726.00,535.00,1418.00,2704.00,1253.00,1680.00,,,,,,,,,,,,1,1,0,,1620,16028,-208,-493,201,3
35.118,34.88,-2.00,-6.32,3.19,-2.69,0.27,-4.45,4.55,-4.21,4.29,293.00,693.00,643.00,723.00,1216.00,2711.00,1136.00,1616.00,,,,,,,,,,,,1,1,0,,1744,16224,-40,-492,438,167
35.2,34.93,-1.87,-11.31,12.20,-10.96,11.05,0.56,0.36,1.14,-0.13,197.00,663.00,417.00,751.00,1392.00,2487.00,1309.00,1472.00,,,,,,,,,,,,1,1,0,,1644,16200,-28,-359,457,-14
35.22,34.99,-1.82,4.71,-2.94,7.44,-1.73,-0.86,-0.00,-2.92,1.45,334.00,528.00,596.00,511.00,1457.00,2657.00,1294.00,1657.00,,,,,,,,,,,,1,1,0,,1744,16204,-116,-253,533,-135
35.302,35.04,-1.99,-4.69,1.60,0.29,-2.01,-5.21,4.63,-5.47,5.12,310.00,678.00,689.00,683.00,1227.00,2787.00,1111.00,1661.00,,,,,,,,,,,,1,1,0,,1604,16208,-76,-239,446,-199
35.322,35.10,-2.00,-14.68,15.41,-12.21,9.30,-2.14,1.93,-0.61,0.88,176.00,695.00,469.00,827.00,1343.00,2653.00,1279.00,1535.00,,,,,,,,,,,,1,1,0,,1664,16360,-76,-291,468,-315
35.384,35.15,-1.87,-3.42,1.54,-3.17,3.32,0.54,-1.67,-1.22,-0.45,304.00,646.00,550.00,679.00,1555.00,2629.00,1390.00,1630.00,,,,,,,,,,,,1,1,0,,1544,16024,-220,-38,296,-210
35.448,35.21,-1.97,-0.10,-3.94,5.18,-5.85,-3.80,1.83,-5.53,3.20,385.00,656.00,776.00,624.00,1392.00,2841.00,1234.00,1753.00,,,,,,,,,,,,1,1,0,,1504,16028,-188,-148,200,-184
35.51,35.26,-2.04,-11.46,6.23,-10.26,4.16,-3.38,3.47,-2.56,2.69,273.00,783.00,598.00,879.00,1264.00,2674.00,1202.00,1580.00,,,,,,,,,,,,1,1,0,,1620,16084,-244,-290,72,-83
35.552,35.32,-1.85,-7.58,8.25,-8.10,8.73,1.82,-1.73,1.48,-1.38,228.00,636.00,449.00,714.00,1524.00,2503.00,1392.00,1502.00,,,,,,,,,,,,1,1,0,,1676,16172,68,-422,182,-131
35.614,35.37,-1.83,4.26,-5.46,9.01,-5.33,-1.55,0.72,-3.28,2.39,386.00,575.00,704.00,529.00,1419.00,2678.00,1238.00,1639.00,,,,,,,,,,,,1,1,0,,1592,16276,92,-507,456,-165
35.675,35.43,-1.97,-6.47,3.69,-2.43,0.36,-4.51,4.64,-4.17,4.62,286.00,688.00,637.00,714.00,1211.00,2710.00,1115.00,1599.00,,,,,,,,,,,,1,1,0,,1644,16272,188,-252,480,-342
35.715,35.48,-1.84,-10.84,12.42,-11.21,11.22,0.57,0.35,1.78,-0.08,193.00,647.00,415.00,755.00,1393.00,2487.00,1290.00,1433.00,,,,,,,,,,,,1,1,1,,1572,16224,-88,-46,347,-294
35.778,35.54,-1.78,5.90,-2.89,8.31,-1.90,-0.73,-0.32,-2.43,1.58,326.00,503.00,592.00,496.00,1479.00,2666.00,1273.00,1619.00,,,,,,,,,,,,1,1,1,,1408,16188,-36,51,251,-198
35.841,35.59,-1.94,-3.74,0.81,1.22,-2.72,-4.95,4.10,-5.11,5.39,318.00,667.00,704.00,671.00,1257.00,2798.00,1088.00,1626.00,,,,,,,,,,,,1,1,1,,1448,16204,68,-50,313,-38
35.964,35.65,-1.96,-14.08,13.99,-11.93,8.66,-2.21,1.93,-0.84,1.37,188.00,705.00,483.00,832.00,1345.00,2661.00,1251.00,1529.00,,,,,,,,,,,,1,1,1,,1472,16200,-40,196,374,177
35.984,35.70,-1.82,-2.78,2.00,-3.72,3.54,0.79,-1.83,-0.60,-0.22,293.00,622.00,549.00,690.00,1561.00,2614.00,1358.00,1581.00,,,,,,,,,,,,1,1,1,,1712,16104,100,-243,590,171
36.006,35.76,-1.92,1.07,-4.62,5.40,-5.87,-3.90,1.66,-5.21,3.62,391.00,638.00,774.00,619.00,1407.00,2865.00,1199.00,1711.00,,,,,,,,,,,,1,1,1,,1764,16252,-220,197,437,211
36.049,35.81,-2.01,-11.14,6.19,-10.20,3.35,-3.76,3.18,-2.15,3.16,272.00,774.00,624.00,896.00,1293.00,2736.00,1163.00,1535.00,,,,,,,,,,,,1,1,1,,1840,16148,-156,-133,427,257
36.11,35.87,-1.85,-8.24,9.04,-8.96,8.41,1.24,-1.67,1.70,-1.02,221.00,639.00,464.00,745.00,1535.00,2557.00,1360.00,1475.00,,,,,,,,,,,,1,1,1,,2008,16224,-320,-505,374,-41
36.171,35.92,-1.86,4.16,-5.38,7.25,-4.92,-2.02,0.48,-3.12,2.65,385.00,576.00,711.00,561.00,1450.00,2746.00,1217.00,1617.00,,,,,,,,,,,,1,1,1,,1644,16244,-200,-490,59,-124
36.231,35.98,-2.02,-6.74,3.33,-3.23,-0.50,-5.05,4.41,-3.74,4.46,293.00,702.00,677.00,754.00,1238.00,2785.00,1116.00,1579.00,,,,,,,,,,,,1,1,1,,1760,16276,288,-702,171,-162
36.293,36.03,-1.91,-12.25,13.98,-12.04,10.38,0.21,0.23,2.10,0.00,182.00,656.00,441.00,798.00,1411.00,2531.00,1277.00,1412.00,,,,,,,,,,,,1,1,1,,1696,16164,424,-222,640,-326
36.333,36.09,-1.85,5.99,-2.58,6.98,-2.28,-0.72,-0.55,-1.95,1.70,320.00,497.00,619.00,528.00,1497.00,2681.00,1254.00,1584.00,,,,,,,,,,,,1,1,1,,1696,16272,204,-341,703,-474
36.374,36.14,-1.99,-3.85,1.08,0.55,-2.44,-4.72,3.88,-4.83,5.56,314.00,665.00,702.00,684.00,1267.00,2789.00,1072.00,1600.00,,,,,,,,,,,,1,1,1,,1672,15904,284,-644,628,-527
36.436,36.20,-2.00,-12.91,12.28,-11.14,6.76,-2.11,1.81,-0.20,1.66,202.00,705.00,528.00,849.00,1351.00,2659.00,1217.00,1479.00,,,,,,,,,,,,1,1,1,,1472,16196,272,-476,421,-92
36.497,36.25,-1.85,-2.31,1.97,-3.84,3.28,1.00,-1.85,0.35,-0.13,291.00,611.00,558.00,698.00,1557.00,2594.00,1328.00,1519.00,,,,,,,,,,,,1,1,1,,1612,16260,252,-337,435,104
36.578,36.31,-1.94,1.76,-5.00,5.70,-6.07,-3.63,1.80,-4.79,3.94,394.00,627.00,778.00,615.00,1390.00,2825.00,1170.00,1669.00,,,,,,,,,,,,1,1,1,,1780,16140,408,16,492,38
36.598,36.36,-2.02,-11.02,6.14,-9.42,3.09,-3.51,3.76,-1.75,3.56,272.00,771.00,624.00,875.00,1247.00,2667.00,1130.00,1495.00,,,,,,,,,,,,1,1,1,,1724,16236,200,-120,409,-57
36.661,36.42,-1.83,-6.46,7.31,-8.89,9.12,1.74,-1.30,2.55,-1.08,235.00,624.00,446.00,729.00,1491.00,2482.00,1343.00,1428.00,,,,,,,,,,,,1,1,1,,1736,16192,248,-176,179,-144
36.723,36.47,-1.81,3.98,-3.66,7.99,-4.19,-1.39,0.60,-2.48,2.78,352.00,554.00,674.00,534.00,1424.00,2670.00,1194.00,1571.00,,,,,,,,,,,,1,1,1,,1592,16192,436,-183,118,-218
36.763,36.53,-1.94,-6.90,4.16,-2.06,-0.45,-4.43,4.74,-3.06,4.87,281.00,691.00,661.00,719.00,1203.00,2695.00,1078.00,1520.00,,,,,,,,,,,,1,1,1,,1636,16248,232,-391,213,-265
36.825,36.58,-1.80,-12.64,14.73,-11.12,10.45,0.85,0.49,2.82,0.26,176.00,653.00,432.00,768.00,1375.00,2450.00,1243.00,1363.00,,,,,,,,,,,,1,1,1,,1564,16152,344,-167,237,-215
36.887,36.64,-1.72,5.69,-2.65,7.66,-2.05,-0.33,-0.37,-1.62,1.71,323.00,504.00,604.00,511.00,1472.00,2627.00,1246.00,1563.00,,,,,,,,,,,,1,1,1,,1704,16148,380,-234,165,-59
36.947,36.69,-1.87,-3.54,0.57,1.62,-2.85,-4.68,4.10,-4.70,5.68,321.00,666.00,704.00,663.00,1251.00,2768.00,1063.00,1587.00,,,,,,,,,,,,1,1,1,,1528,16204,464,-293,188,-99
37.049,36.75,-1.87,-11.85,9.93,-9.95,5.70,-1.84,2.06,-0.44,1.75,225.00,720.00,547.00,833.00,1327.00,2614.00,1217.00,1490.00,,,,,,,,,,,,1,1,1,,1604,16180,364,-277,108,-126
37.07,36.80,-1.72,-2.83,1.95,-3.78,3.73,1.21,-1.66,0.09,0.08,294.00,624.00,544.00,688.00,1535.00,2559.00,1319.00,1526.00,,,,,,,,,,,,1,1,1,,1624,16224,644,-268,152,-167
37.131,36.86,-1.80,1.65,-4.77,6.55,-6.28,-3.38,1.87,-4.72,3.94,390.00,626.00,775.00,598.00,1378.00,2791.00,1168.00,1664.00,,,,,,,,,,,,1,1,1,,1640,16056,600,-419,282,-91
37.151,36.91,-1.87,-10.44,5.48,-9.31,3.35,-3.20,3.90,-1.62,3.61,279.00,767.00,614.00,865.00,1231.00,2625.00,1124.00,1485.00,,,,,,,,,,,,1,1,1,,1612,16120,572,-130,343,-81
37.212,36.97,-1.67,-7.03,8.14,-8.10,8.93,2.15,-1.06,2.82,-0.82,227.00,624.00,444.00,710.00,1461.00,2427.00,1318.00,1403.00,,,,,,,,,,,,1,1,1,,1772,16148,476,27,246,-30
37.274,37.02,-1.64,3.74,-2.56,9.48,-3.70,-1.00,0.93,-2.23,2.87,333.00,543.00,639.00,497.00,1389.00,2606.00,1183.00,1552.00,,,,,,,,,,,,1,1,1,,1732,16144,344,-341,282,-127
37.316,37.08,-1.75,-5.18,2.93,-1.20,-0.40,-3.96,5.03,-2.47,5.01,291.00,667.00,649.00,694.00,1174.00,2624.00,1058.00,1479.00,,,,,,,,,,,,1,1,1,,1656,16116,208,-209,206,-180
37.399,37.13,-1.59,-13.22,16.34,-10.90,11.17,1.50,0.69,3.53,0.15,163.00,640.00,414.00,747.00,1344.00,2375.00,1234.00,1329.00,,,,,,,,,,,,1,1,1,,1548,16168,408,-435,162,-110
37.419,37.19,-1.49,6.25,-2.43,8.31,-1.68,0.44,-0.11,-1.09,1.96,316.00,490.00,585.00,493.00,1431.00,2531.00,1217.00,1520.00,,,,,,,,,,,,1,1,1,,1664,16180,728,-136,110,-111
37.48,37.24,-1.62,-2.90,0.53,2.29,-2.71,-4.03,4.24,-4.25,5.70,318.00,650.00,690.00,643.00,1227.00,2688.00,1053.00,1558.00,,,,,,,,,,,,1,1,1,,1676,16040,540,-291,204,-88
37.541,37.30,-1.61,-10.69,8.27,-9.03,4.89,-1.44,2.50,0.25,1.82,241.00,719.00,562.00,821.00,1286.00,2542.00,1197.00,1447.00,,,,,,,,,,,,1,1,1,,1680,16136,772,-202,279,-15
37.602,37.35,-1.43,-2.21,2.19,-3.18,4.11,1.93,-1.47,1.03,-0.07,287.00,605.00,527.00,665.00,1499.00,2474.00,1307.00,1476.00,,,,,,,,,,,,1,1,1,,1776,16200,444,-239,173,-43
37.666,37.41,-1.50,1.91,-4.86,7.35,-5.99,-2.90,2.09,-4.54,4.04,390.00,621.00,752.00,575.00,1350.00,2723.00,1158.00,1648.00,,,,,,,,,,,,1,1,1,,1844,16156,564,-359,196,-110
37.687,37.46,-1.58,-10.63,6.02,-8.42,3.17,-3.09,4.33,-1.69,3.96,272.00,762.00,610.00,839.00,1200.00,2583.00,1104.00,1475.00,,,,,,,,,,,,1,1,1,,1820,16064,500,-463,302,-249
37.771,37.52,-1.40,-7.96,9.29,-7.85,8.93,2.13,-0.77,3.04,-0.95,217.00,628.00,442.00,703.00,1438.00,2409.00,1322.00,1396.00,,,,,,,,,,,,1,1,1,,1836,16228,588,-211,240,-192
37.813,37.57,-1.37,3.51,-2.14,8.77,-3.03,-0.96,0.94,-2.40,2.80,327.00,542.00,624.00,502.00,1387.00,2601.00,1191.00,1565.00,,,,,,,,,,,,1,1,1,,1804,16296,444,-244,-137,-349
37.854,37.63,-1.50,-6.16,3.39,-1.16,-0.30,-3.89,5.13,-3.04,4.96,289.00,685.00,645.00,691.00,1166.00,2610.00,1072.00,1515.00,,,,,,,,,,,,1,1,1,,1940,16140,784,-211,-764,-715
37.916,37.68,-1.34,-12.40,14.54,-10.91,11.53,1.65,0.86,3.53,0.18,177.00,650.00,406.00,740.00,1328.00,2350.00,1232.00,1328.00,,,,,,,,,,,,1,1,1,,1892,16288,1096,-37,-630,-1108
37.978,37.74,-1.24,6.52,-2.76,8.61,-1.59,0.65,0.00,-0.61,1.58,320.00,489.00,579.00,486.00,1417.00,2502.00,1232.00,1507.00,,,,,,,,,,,,1,1,1,,1688,16296,1052,-98,-466,-1344
38.02,37.79,-1.35,-2.95,0.78,3.78,-3.60,-3.47,4.31,-3.68,5.44,314.00,647.00,705.00,621.00,1210.00,2624.00,1057.00,1534.00,,,,,,,,,,,,1,1,2,,1508,16864,1296,1183,-111,-2002
38.142,37.85,-1.33,-10.05,7.38,-9.11,5.05,-0.94,3.09,0.74,1.78,250.00,718.00,558.00,820.00,1234.00,2453.00,1189.00,1421.00,,,,,,,,,,,,1,1,2,,1288,16464,1192,2588,288,-2098
38.164,37.90,-1.14,-2.63,2.14,-2.91,5.03,2.55,-0.87,1.46,-0.04,290.00,616.00,499.00,642.00,1435.00,2376.00,1295.00,1450.00,,,,,,,,,,,,1,1,2,,1380,16792,1464,4414,642,-3704
38.225,37.96,-1.20,2.27,-5.45,8.92,-6.18,-2.40,2.89,-3.92,3.95,400.00,622.00,738.00,543.00,1281.00,2613.00,1151.00,1612.00,,,,,,,,,,,,1,1,2,,936,17264,148,5541,658,-5330
38.246,38.01,-1.26,-10.33,4.99,-7.66,3.79,-2.35,5.09,-0.58,3.59,286.00,774.00,582.00,801.00,1136.00,2458.00,1104.00,1426.00,,,,,,,,,,,,1,1,2,,44,16036,-1304,4685,789,-5519
38.307,38.07,-1.05,-8.65,9.02,-7.23,9.98,3.00,-0.34,3.58,-0.78,223.00,650.00,413.00,667.00,1383.00,2301.00,1297.00,1360.00,,,,,,,,,,,,1,1,2,,-824,15964,-2224,4078,927,-6141
38.348,38.12,-1.00,2.05,-2.26,10.90,-3.23,-0.12,1.45,-1.78,2.86,338.00,576.00,607.00,464.00,1329.00,2482.00,1174.00,1525.00,,,,,,,,,,,,1,1,2,,-1976,15512,-2960,2489,1451,-5324
38.409,38.18,-1.12,-6.82,2.56,-0.42,-0.40,-3.41,5.63,-2.73,5.21,306.00,719.00,640.00,673.00,1125.00,2527.00,1052.00,1487.00,,,,,,,,,,,,1,1,2,,-2788,15052,-3292,1453,1688,-4412
38.552,38.23,-0.96,-13.70,14.57,-10.95,12.01,2.01,1.28,3.49,0.18,181.00,684.00,396.00,732.00,1290.00,2291.00,1233.00,1330.00,,,,,,,,,,,,1,1,2,,-3104,15316,-4080,808,1751,-3295
38.573,38.29,-0.87,4.31,-3.67,8.46,-1.45,0.94,0.22,-0.76,1.52,350.00,547.00,576.00,487.00,1393.00,2459.00,1239.00,1518.00,,,,,,,,,,,,1,1,2,,-3412,15160,-3972,918,605,-2407
38.594,38.34,-1.00,-4.14,-0.72,3.07,-2.91,-3.54,4.56,-4.62,5.50,348.00,706.00,688.00,627.00,1195.00,2614.00,1072.00,1590.00,,,,,,,,,,,,1,1,2,,-3676,15144,-3528,-904,-240,-1550
38.634,38.40,-1.02,-10.92,6.04,-9.63,4.96,-1.26,3.16,-0.10,1.72,273.00,770.00,566.00,839.00,1237.00,2480.00,1211.00,1471.00,,,,,,,,,,,,1,1,2,,-3924,15408,-2800,-399,125,-413
38.697,38.45,-0.85,-3.29,0.60,-3.04,4.24,2.31,-1.04,1.25,-0.36,319.00,659.00,522.00,659.00,1455.00,2410.00,1323.00,1475.00,,,,,,,,,,,,1,1,2,,-3688,15452,-2644,138,310,-164
38.758,38.51,-0.93,1.43,-6.37,8.56,-6.52,-2.49,2.58,-4.18,3.78,427.00,659.00,757.00,556.00,1305.00,2644.00,1167.00,1636.00,,,,,,,,,,,,1,1,2,,-3792,15844,-2628,-820,3,269
38.82,38.56,-1.01,-11.06,4.79,-7.96,3.45,-2.57,4.90,-0.77,3.37,293.00,801.00,596.00,818.00,1153.00,2493.00,1121.00,1445.00,,,,,,,,,,,,1,1,2,,-3572,15276,-2372,-1069,35,514
38.861,38.62,-0.82,-8.70,8.46,-8.52,11.00,2.92,-0.31,3.23,-0.59,230.00,661.00,400.00,683.00,1383.00,2307.00,1292.00,1372.00,,,,,,,,,,,,1,1,2,,-3120,15764,-3076,-2059,-197,1030
38.943,38.67,-0.79,3.11,-3.10,10.90,-3.23,-0.23,1.15,-1.52,2.52,347.00,565.00,607.00,464.00,1353.00,2512.00,1190.00,1523.00,,,,,,,,,,,,1,1,2,,-3152,16548,-2512,-1084,-295,121
38.984,38.73,-0.92,-6.35,1.87,-0.15,-0.35,-3.38,5.18,-2.45,5.04,315.00,719.00,635.00,665.00,1152.00,2554.00,1056.00,1477.00,,,,,,,,,,,,1,1,2,,-2960,16088,-2348,-812,-329,-317
39.024,38.78,-0.77,-13.88,14.94,-9.47,10.37,1.96,0.89,4.47,-0.15,178.00,682.00,421.00,721.00,1319.00,2320.00,1233.00,1291.00,,,,,,,,,,,,1,1,2,,-2880,15784,-2316,28,17,-257
39.065,38.84,-0.69,4.72,-3.38,8.73,-1.54,0.99,-0.23,-0.39,1.50,342.00,534.00,576.00,483.00,1426.00,2484.00,1232.00,1497.00,,,,,,,,,,,,1,1,2,,-2964,15928,-2264,-545,65,-449
39.147,38.89,-0.83,-3.35,-1.20,4.19,-3.48,-3.55,3.91,-4.03,5.21,352.00,693.00,695.00,609.00,1238.00,2661.00,1077.00,1565.00,,,,,,,,,,,,1,1,2,,-3040,15900,-1948,-507,257,-508
39.229,38.95,-0.86,-10.10,5.77,-9.29,5.41,-1.40,2.63,0.59,1.44,273.00,751.00,549.00,818.00,1276.00,2529.00,1214.00,1442.00,,,,,,,,,,,,1,1,2,,-3192,15928,-1880,-407,83,-405
39.249,39.00,-0.73,-3.71,1.33,-2.99,5.21,1.76,-1.35,1.31,-0.45,309.00,657.00,495.00,641.00,1494.00,2483.00,1328.00,1475.00,,,,,,,,,,,,1,1,2,,-3476,15712,-1664,-658,292,-315
39.311,39.06,-0.84,1.73,-6.12,8.81,-6.56,-2.94,1.96,-4.32,3.56,419.00,647.00,755.00,551.00,1361.00,2737.00,1184.00,1655.00,,,,,,,,,,,,1,1,2,,-3432,15984,-1976,-183,367,11
39.352,39.11,-0.97,-10.57,4.43,-7.69,3.14,-3.41,4.41,-1.39,3.32,296.00,793.00,603.00,816.00,1202.00,2611.00,1137.00,1483.00,,,,,,,,,,,,1,1,2,,-3412,15536,-2080,491,100,-75
39.414,39.17,-0.83,-10.36,8.94,-8.11,9.96,1.74,-0.65,2.98,-0.95,231.00,697.00,420.00,691.00,1439.00,2439.00,1323.00,1399.00,,,,,,,,,,,,1,1,2,,-3196,15644,-2212,-17,-252,328
39.475,39.22,-0.83,2.57,-3.03,11.14,-3.68,-0.88,0.65,-1.97,2.49,349.00,576.00,619.00,465.00,1407.00,2613.00,1202.00,1552.00,,,,,,,,,,,,1,1,2,,-3288,15956,-1784,-393,161,190
39.537,39.28,-1.00,-5.71,1.71,-0.49,-0.35,-4.10,5.17,-2.46,4.75,314.00,704.00,639.00,674.00,1168.00,2629.00,1073.00,1489.00,,,,,,,,,,,,1,1,2,,-3160,16040,-2208,68,454,71
39.619,39.33,-0.87,-12.77,13.36,-10.69,11.91,1.52,0.70,4.25,-0.34,190.00,681.00,396.00,726.00,1343.00,2373.00,1251.00,1309.00,,,,,,,,,,,,1,1,2,,-2976,15792,-2108,-469,287,-89
