Time_Host,Time_Arduino,easingdata,CH1_Oxy,CH1_Deoxy,CH2_Oxy,CH2_Deoxy,CH3_Oxy,CH3_Deoxy,CH4_Oxy,CH4_Deoxy,CH1_PD730,CH1_PD850,CH2_PD730,CH2_PD850,CH3_PD730,CH3_PD850,CH4_PD730,CH4_PD850,Answers,airplane_playstate,trail_times,frameRate,Airplane X,Airplane Y,Correct,Wrong,Slow,AnswerRate,CorrectRate,VFTstates,VFTchoose,VFTCount,Culfstates,ax,ay,az,gx,gy,gz
1.03,0.04,0.00,0.00,0.00,0.00,0.00,0.00,0.00,0.00,0.00,785.00,1756.00,224.00,384.00,437.00,1049.00,757.00,1158.00,,,,,,,,,,,,0,0,0,,-2200,15888,-1376,60,399,-227
1.051,0.10,0.00,0.00,0.00,0.00,0.00,0.00,0.00,0.00,0.00,805.00,1754.00,225.00,373.00,450.00,1050.00,783.00,1142.00,,,,,,,,,,,,0,0,0,,-2188,16092,-1608,112,91,-439
1.071,0.15,0.00,0.00,0.00,0.00,0.00,0.00,0.00,0.00,0.00,816.00,1757.00,242.00,368.00,446.00,1073.00,763.00,1191.00,,,,,,,,,,,,0,0,0,,-2368,15964,-1304,-425,10,-204
1.091,0.21,0.00,0.00,0.00,0.00,0.00,0.00,0.00,0.00,0.00,800.00,1787.00,231.00,389.00,436.00,1067.00,749.00,1165.00,,,,,,,,,,,,0,0,0,,-2364,16224,-968,-690,170,-179
1.112,0.26,0.00,0.00,0.00,0.00,0.00,0.00,0.00,0.00,0.00,802.00,1775.00,225.00,378.00,461.00,1056.00,787.00,1151.00,,,,,,,,,,,,0,0,0,,-2240,16316,-1048,-649,206,-177
1.133,1.05,0.00,0.00,0.00,0.00,0.00,0.00,0.00,0.00,0.00,815.00,1743.00,258.00,363.00,439.00,1067.00,748.00,1171.00,,,,,,,,,,,,0,0,0,,-2376,16048,-1740,2529,662,-502
1.154,1.11,0.00,0.00,0.00,0.00,0.00,0.00,0.00,0.00,0.00,791.00,1766.00,233.00,385.00,429.00,1040.00,739.00,1135.00,,,,,,,,,,,,0,0,0,,-2464,16008,-2388,2146,440,-318
1.216,1.16,0.00,0.00,0.00,0.00,0.00,0.00,0.00,0.00,0.00,779.00,1745.00,221.00,373.00,449.00,1040.00,783.00,1138.00,,,,,,,,,,,,0,0,0,,-2588,16452,-2600,1851,351,-350
1.297,1.22,0.00,0.00,0.00,0.00,0.00,0.00,0.00,0.00,0.00,802.00,1739.00,235.00,364.00,445.00,1059.00,751.00,1175.00,,,,,,,,,,,,0,0,0,,-2632,16132,-2508,1375,266,-353
1.318,1.27,0.00,0.00,0.00,0.00,0.00,0.00,0.00,0.00,0.00,794.00,1760.00,236.00,374.00,434.00,1063.00,747.00,1152.00,,,,,,,,,,,,0,0,0,,-2496,15984,-2804,1194,293,-507
1.379,1.33,0.02,-0.48,0.63,-1.55,1.42,0.31,0.09,0.25,-0.02,779.00,1762.00,222.00,384.00,438.00,1041.00,758.00,1147.00,,,,,,,,,,,,0,0,0,,-2696,15944,-3052,828,126,-515
1.42,1.38,0.02,0.29,-0.10,1.05,-0.43,0.12,-0.26,-0.01,-0.03,799.00,1743.00,234.00,364.00,448.00,1059.00,762.00,1159.00,,,,,,,,,,,,0,0,0,,-2616,15740,-3104,625,10,-319
1.48,1.44,-0.01,-0.15,-0.09,1.11,-0.92,-0.65,0.41,-0.89,0.41,805.00,1773.00,240.00,368.00,438.00,1072.00,756.00,1186.00,,,,,,,,,,,,0,0,0,,-2856,15844,-3180,763,274,-178
1.563,1.49,-0.04,-0.51,0.17,-1.51,0.12,-0.61,0.36,-0.72,0.46,799.00,1786.00,238.00,397.00,439.00,1072.00,752.00,1177.00,,,,,,,,,,,,0,0,0,,-2748,15944,-3172,663,409,-121
1.604,1.55,-0.03,-0.36,0.03,-0.81,0.51,0.26,-0.76,0.23,-0.80,803.00,1782.00,230.00,382.00,459.00,1067.00,791.00,1172.00,,,,,,,,,,,,0,0,0,,-2560,16076,-3520,626,639,-295
1.645,1.60,-0.06,0.12,-0.68,1.08,-1.89,-0.65,-0.01,-1.20,0.47,827.00,1782.00,253.00,378.00,448.00,1084.00,758.00,1199.00,,,,,,,,,,,,0,0,0,,-2564,16000,-3524,194,504,-354
1.708,1.66,-0.07,-0.58,0.38,-1.79,0.52,-0.38,0.58,-0.26,0.70,791.00,1781.00,234.00,397.00,432.00,1056.00,736.00,1148.00,,,,,,,,,,,,0,0,0,,-2620,15996,-3452,45,206,-433
1.77,1.71,-0.04,-0.26,0.44,-1.08,1.01,0.56,-0.45,0.55,-0.34,784.00,1756.00,225.00,381.00,449.00,1046.00,767.00,1143.00,,,,,,,,,,,,0,0,0,,-2704,15960,-3300,165,189,-436
1.812,1.77,-0.06,0.33,-0.18,1.11,-0.92,-0.37,0.32,-0.70,0.67,802.00,1744.00,240.00,368.00,438.00,1063.00,743.00,1169.00,,,,,,,,,,,,0,0,0,,-2580,15736,-3516,-82,587,-553
1.872,1.82,-0.08,-0.29,0.14,-0.20,-0.48,-0.50,0.62,-0.32,0.57,797.00,1772.00,240.00,383.00,432.00,1060.00,742.00,1155.00,,,,,,,,,,,,0,0,0,,-2740,15992,-3608,-230,237,-263
1.934,1.88,-0.07,-0.71,0.82,-0.65,0.38,0.23,-0.01,0.05,-0.05,774.00,1769.00,231.00,381.00,441.00,1047.00,762.00,1157.00,,,,,,,,,,,,0,0,0,,-2796,15960,-3476,24,10,-335
2.058,1.93,-0.05,0.25,-0.09,1.15,-1.09,0.22,-0.42,-0.15,0.02,799.00,1745.00,242.00,369.00,451.00,1059.00,762.00,1164.00,,,,,,,,,,,,0,0,0,,-2776,15976,-3520,480,239,-383
2.078,1.99,-0.09,-0.17,-0.11,0.49,-0.71,-0.85,0.61,-0.85,0.45,806.00,1775.00,240.00,375.00,435.00,1075.00,754.00,1183.00,,,,,,,,,,,,0,0,0,,-2824,15608,-3792,648,220,-237
2.12,2.04,-0.12,-0.64,0.21,-0.93,-0.08,-0.73,0.57,-0.71,0.52,799.00,1793.00,238.00,390.00,435.00,1071.00,749.00,1174.00,,,,,,,,,,,,0,0,0,,-2896,15540,-3756,314,175,-182
2.161,2.10,-0.10,-0.37,0.19,-1.05,0.67,0.41,-1.05,0.19,-0.76,796.00,1775.00,229.00,384.00,465.00,1069.00,790.00,1173.00,,,,,,,,,,,,0,0,0,,-2808,15636,-3472,-79,120,-84
2.223,2.15,-0.13,0.08,-0.64,1.62,-2.28,-0.82,0.01,-1.66,0.65,826.00,1783.00,256.00,374.00,449.00,1091.00,757.00,1215.00,,,,,,,,,,,,0,0,0,,-2904,15832,-3320,-338,247,-180
2.284,2.21,-0.16,-0.60,0.18,0.15,-2.15,-0.61,0.36,-0.19,0.40,800.00,1792.00,261.00,395.00,439.00,1072.00,747.00,1154.00,,,,,,,,,,,,0,0,0,,-2884,16068,-3532,-119,346,-236
2.326,2.26,-0.12,-0.28,0.47,-2.07,2.18,0.62,-0.52,0.67,-0.47,783.00,1756.00,215.00,384.00,450.00,1045.00,771.00,1142.00,,,,,,,,,,,,0,0,0,,-2740,15792,-3416,169,182,-151
2.428,2.32,-0.11,0.23,-0.01,0.96,-0.40,0.08,-0.21,-0.78,0.80,796.00,1743.00,234.00,365.00,447.00,1059.00,739.00,1169.00,,,,,,,,,,,,0,0,0,,-2688,15852,-3748,365,324,-252
2.448,2.37,-0.14,-0.23,0.21,0.36,-0.82,-0.68,0.80,-0.64,0.65,793.00,1764.00,242.00,378.00,429.00,1062.00,743.00,1167.00,,,,,,,,,,,,0,0,0,,-2696,15764,-3904,515,68,-349
2.469,2.43,-0.14,-0.61,0.65,-1.05,0.67,-0.14,0.32,0.02,0.06,780.00,1770.00,229.00,384.00,436.00,1053.00,758.00,1155.00,,,,,,,,,,,,0,0,0,,-2732,15432,-3788,277,159,-67
2.531,2.48,-0.12,0.18,0.05,0.74,-0.49,0.12,-0.26,-0.23,0.17,794.00,1743.00,236.00,369.00,448.00,1059.00,757.00,1163.00,,,,,,,,,,,,0,0,0,,-2752,15768,-4004,-197,-111,-250
2.593,2.54,-0.14,0.11,-0.20,1.00,-1.26,-0.47,0.14,-0.89,0.51,806.00,1760.00,245.00,373.00,443.00,1072.00,752.00,1183.00,,,,,,,,,,,,0,0,0,,-2912,15888,-3436,-501,-97,-31
2.635,2.59,-0.16,-0.53,0.36,-1.08,0.05,-0.52,0.33,-0.74,0.63,791.00,1778.00,237.00,391.00,439.00,1069.00,745.00,1172.00,,,,,,,,,,,,0,0,0,,-2844,15924,-3348,-259,173,-51
2.696,2.65,-0.13,-0.33,0.34,-0.18,0.38,0.51,-0.80,0.44,-0.75,789.00,1765.00,229.00,374.00,458.00,1058.00,786.00,1161.00,,,,,,,,,,,,0,0,0,,-2756,15796,-3528,8,242,-133
2.758,2.70,-0.14,0.11,-0.45,1.83,-1.99,-0.41,-0.09,-1.64,0.74,817.00,1772.00,251.00,368.00,448.00,1076.00,753.00,1211.00,,,,,,,,,,,,0,0,0,,-2888,15964,-4132,133,254,-219
2.82,2.76,-0.16,-0.75,0.44,-1.05,0.20,-0.61,0.52,-0.39,0.57,791.00,1790.00,235.00,389.00,435.00,1067.00,743.00,1158.00,,,,,,,,,,,,0,0,0,,-2880,15648,-3880,-113,176,-204
2.862,2.81,-0.13,-0.20,0.53,-0.73,0.89,0.58,-0.38,0.71,-0.34,779.00,1747.00,225.00,377.00,447.00,1043.00,765.00,1136.00,,,,,,,,,,,,0,0,0,,-2884,15936,-3780,-388,136,-26
2.923,2.87,-0.11,0.60,-0.11,1.48,-0.34,0.24,-0.30,-0.24,0.54,795.00,1722.00,231.00,357.00,448.00,1055.00,742.00,1152.00,,,,,,,,,,,,0,0,0,,-2660,15800,-3776,-495,-40,-66
2.985,2.92,-0.15,0.20,0.14,0.88,-0.69,-0.87,0.74,0.44,0.49,790.00,1738.00,238.00,369.00,432.00,1072.00,735.00,1123.00,,,,,,,,,,,,0,0,0,,-2844,15852,-3532,-375,-20,29
3.026,2.98,-0.15,-0.58,0.92,-0.63,0.94,-0.26,-0.10,0.27,0.34,768.00,1755.00,224.00,375.00,447.00,1070.00,743.00,1135.00,,,,,,,,,,,,0,0,0,,-2800,15732,-3304,-847,154,37
3.129,3.03,-0.14,0.28,0.23,0.65,0.26,0.10,-0.91,0.87,-0.08,785.00,1728.00,227.00,363.00,464.00,1078.00,752.00,1121.00,,,,,,,,,,,,0,0,0,,-2696,16180,-3528,-1127,457,-24
3.15,3.09,-0.16,0.21,-0.07,1.44,-1.41,-0.52,-0.34,-0.01,0.05,799.00,1747.00,245.00,368.00,455.00,1088.00,759.00,1157.00,,,,,,,,,,,,0,0,0,,-2708,15760,-3340,-1229,191,-338
3.192,3.14,-0.18,-0.32,0.24,-0.90,0.07,-0.62,-0.02,0.09,0.58,793.00,1769.00,236.00,388.00,448.00,1083.00,736.00,1136.00,,,,,,,,,,,,0,0,0,,-2784,15900,-3172,-587,-9,-145
3.254,3.20,-0.15,-0.05,0.22,-0.01,0.32,0.36,-1.43,1.67,-1.19,790.00,1751.00,229.00,372.00,475.00,1082.00,787.00,1119.00,,,,,,,,,,,,0,0,0,,-2880,16156,-3040,-97,-119,-39
3.336,3.25,-0.19,0.49,-0.47,1.51,-1.51,-0.89,-0.33,-1.01,0.85,812.00,1746.00,246.00,368.00,458.00,1104.00,740.00,1178.00,,,,,,,,,,,,0,0,0,,-2748,16172,-3092,174,31,-153
3.356,3.31,-0.21,-0.26,0.15,1.55,-1.07,-0.48,0.06,0.73,0.47,796.00,1769.00,240.00,363.00,445.00,1075.00,732.00,1111.00,,,,,,,,,,,,0,0,0,,-2672,15960,-3176,-111,-25,-163
3.418,3.36,-0.16,0.09,0.58,-0.76,0.74,0.72,-0.26,1.31,-0.23,773.00,1725.00,227.00,379.00,443.00,1034.00,752.00,1106.00,,,,,,,,,,,,0,0,0,,-2692,15928,-3096,-17,12,-167
3.501,3.42,-0.11,0.97,0.02,2.19,-1.28,0.87,-0.52,0.45,0.51,784.00,1691.00,240.00,356.00,448.00,1035.00,734.00,1122.00,,,,,,,,,,,,0,0,0,,-2696,15768,-2948,61,62,-126
3.522,3.47,-0.10,0.88,0.01,1.64,-1.10,0.12,0.62,0.67,0.49,786.00,1698.00,240.00,362.00,427.00,1034.00,732.00,1113.00,,,,,,,,,,,,0,0,0,,-2652,15896,-3112,-145,29,-232
3.583,3.53,-0.04,0.24,0.74,-1.27,2.08,1.08,0.09,0.86,0.27,764.00,1707.00,213.00,373.00,432.00,1010.00,738.00,1111.00,,,,,,,,,,,,0,0,0,,-2756,15904,-3104,13,-78,-235
3.624,3.58,0.06,1.06,0.04,1.84,0.19,1.83,-0.84,1.27,-0.24,782.00,1684.00,223.00,347.00,448.00,1005.00,753.00,1108.00,,,,,,,,,,,,0,0,0,,-2660,15852,-3100,134,34,-137
3.684,3.64,0.09,1.09,-0.04,2.76,-1.16,0.84,-0.01,0.18,0.27,785.00,1686.00,236.00,347.00,436.00,1022.00,747.00,1141.00,,,,,,,,,,,,0,0,0,,-2760,16000,-3104,143,160,-288
3.746,3.69,0.14,0.48,0.35,0.17,0.67,0.98,0.38,0.45,0.51,777.00,1709.00,224.00,366.00,426.00,1006.00,734.00,1122.00,,,,,,,,,,,,0,0,0,,-2856,15952,-3300,49,68,-213
3.788,3.75,0.24,0.99,0.04,0.06,1.55,2.26,-0.98,1.44,-0.92,783.00,1689.00,214.00,359.00,448.00,992.00,779.00,1121.00,,,,,,,,,,,,0,0,0,,-2872,15928,-3280,321,-48,5
3.871,3.80,0.28,1.38,-0.49,3.11,-1.36,1.04,0.10,-0.58,0.63,800.00,1687.00,237.00,344.00,432.00,1011.00,743.00,1165.00,,,,,,,,,,,,0,0,0,,-2700,16112,-3356,335,184,-83
3.913,3.86,0.32,0.63,0.28,0.23,0.98,1.06,0.52,1.09,0.07,778.00,1702.00,220.00,362.00,422.00,999.00,743.00,1107.00,,,,,,,,,,,,0,0,0,,-2824,15980,-3292,142,182,-111
3.974,3.91,0.42,0.87,0.73,0.55,2.09,2.20,-0.29,1.67,-0.52,756.00,1666.00,206.00,347.00,432.00,976.00,759.00,1099.00,,,,,,,,,,,,0,0,0,,-2760,15876,-3324,99,132,-206
4.035,3.97,0.50,1.89,-0.07,2.89,0.51,2.06,-0.16,0.77,0.40,775.00,1635.00,215.00,330.00,430.00,978.00,734.00,1111.00,,,,,,,,,,,,0,0,0,,-2828,15796,-3464,15,129,-129
4.076,4.02,0.55,1.67,-0.05,3.09,-0.23,1.44,0.75,0.91,0.43,777.00,1648.00,223.00,334.00,414.00,978.00,731.00,1104.00,,,,,,,,,,,,0,0,0,,-2692,15616,-3200,-35,224,-151
4.137,4.08,0.61,1.01,0.90,0.28,2.27,1.90,0.37,1.09,0.17,747.00,1649.00,205.00,349.00,419.00,970.00,739.00,1104.00,,,,,,,,,,,,0,0,0,,-2800,15728,-3704,32,91,-185
4.219,4.13,0.72,1.68,0.09,1.76,1.50,2.67,-0.49,1.90,-0.72,771.00,1641.00,208.00,336.00,433.00,963.00,764.00,1095.00,,,,,,,,,,,,0,0,0,,-2840,15948,-3412,51,-6,-42
4.239,4.19,0.76,1.85,-0.30,4.34,-1.06,1.49,0.34,0.31,0.26,785.00,1647.00,228.00,325.00,423.00,987.00,746.00,1136.00,,,,,,,,,,,,0,0,0,,-2768,15796,-3412,165,-39,-222
4.319,4.24,0.80,1.29,0.15,0.80,0.88,1.59,0.61,0.96,0.36,774.00,1664.00,219.00,355.00,416.00,976.00,733.00,1104.00,,,,,,,,,,,,0,0,0,,-2824,15868,-3324,-151,121,-147
4.341,4.30,0.90,1.50,0.20,1.96,1.44,2.87,-0.90,1.96,-1.22,769.00,1648.00,208.00,334.00,441.00,966.00,784.00,1107.00,,,,,,,,,,,,0,0,0,,-2864,15940,-3624,-274,127,-191
4.401,4.35,0.93,2.14,-0.75,4.86,-1.47,1.56,-0.04,-0.04,0.57,800.00,1648.00,231.00,322.00,431.00,994.00,738.00,1142.00,,,,,,,,,,,,0,0,0,,-2704,16072,-3392,-252,140,-48
4.463,4.41,0.97,1.56,0.08,2.20,0.74,1.66,0.54,1.39,0.09,773.00,1649.00,215.00,337.00,417.00,975.00,738.00,1093.00,,,,,,,,,,,,0,0,0,,-2816,15956,-3360,-327,92,-184
4.524,4.46,1.08,1.66,0.53,1.55,2.48,3.10,-0.42,2.12,-0.50,753.00,1623.00,198.00,330.00,428.00,945.00,752.00,1079.00,,,,,,,,,,,,0,0,0,,-2584,15712,-3268,-206,191,-133
4.585,4.52,1.15,2.63,-0.13,4.76,-0.03,2.58,-0.12,1.68,-0.13,767.00,1590.00,214.00,311.00,425.00,957.00,743.00,1087.00,,,,,,,,,,,,0,0,0,,-2668,16028,-3348,-195,151,-180
4.667,4.57,1.20,2.37,-0.07,4.57,-1.06,2.02,0.25,1.51,0.13,768.00,1604.00,227.00,322.00,421.00,969.00,735.00,1087.00,,,,,,,,,,,,0,0,0,,-2636,15780,-3272,-321,70,-157
4.687,4.63,1.27,1.82,0.53,1.76,1.50,2.60,0.31,1.50,0.10,751.00,1613.00,208.00,336.00,415.00,945.00,736.00,1088.00,,,,,,,,,,,,0,0,0,,-2724,16024,-3408,-23,29,-178
4.748,4.68,1.37,2.36,0.03,2.22,2.07,3.33,-0.71,2.49,-0.87,764.00,1600.00,200.00,325.00,433.00,944.00,762.00,1074.00,,,,,,,,,,,,0,0,0,,-2672,15888,-3256,-40,51,-90
4.789,4.74,1.41,2.76,-0.60,5.40,-1.33,2.23,0.09,0.79,-0.03,785.00,1602.00,227.00,314.00,423.00,965.00,751.00,1123.00,,,,,,,,,,,,0,0,0,,-2756,15960,-3200,22,151,-196
4.851,4.79,1.45,1.86,0.08,1.09,1.73,2.22,0.53,1.36,0.10,769.00,1630.00,208.00,343.00,413.00,954.00,738.00,1094.00,,,,,,,,,,,,0,0,0,,-2716,15848,-3372,-96,285,-228
4.912,4.85,1.54,2.06,0.16,2.26,1.79,3.29,-0.66,2.40,-1.22,763.00,1614.00,203.00,327.00,432.00,944.00,778.00,1088.00,,,,,,,,,,,,0,0,0,,-2836,15932,-3296,-110,140,-61
4.994,4.90,1.58,2.86,-0.85,4.98,-0.36,2.27,-0.01,0.39,0.43,794.00,1606.00,217.00,311.00,425.00,966.00,738.00,1127.00,,,,,,,,,,,,0,0,0,,-2868,16024,-3240,-151,65,-64
5.015,4.96,1.59,2.05,-0.22,3.19,0.41,1.81,0.62,0.91,0.13,779.00,1631.00,215.00,327.00,414.00,967.00,743.00,1113.00,,,,,,,,,,,,0,0,0,,-2812,16012,-3204,-156,306,-78
5.056,5.01,1.67,1.91,0.21,2.36,1.75,3.06,-0.32,2.07,-0.63,763.00,1621.00,203.00,326.00,426.00,944.00,758.00,1085.00,,,,,,,,,,,,0,0,0,,-2816,15900,-3244,-97,167,-214
5.118,5.07,1.74,3.01,-0.43,4.95,0.17,3.22,-0.64,1.78,-0.24,774.00,1579.00,211.00,307.00,432.00,946.00,746.00,1086.00,,,,,,,,,,,,0,0,0,,-2796,15788,-3352,-97,29,-117
5.179,5.12,1.80,2.76,-0.25,4.83,-0.73,2.81,-0.06,1.75,0.05,770.00,1587.00,222.00,316.00,422.00,947.00,735.00,1079.00,,,,,,,,,,,,0,0,0,,-2796,15856,-3044,-28,129,-27
5.22,5.18,1.84,2.43,0.30,2.20,1.54,2.70,0.32,1.76,0.17,752.00,1584.00,206.00,330.00,414.00,941.00,730.00,1075.00,,,,,,,,,,,,0,0,0,,-2752,15876,-3096,-187,394,-115
5.321,5.23,1.95,2.71,-0.09,3.07,1.51,3.96,-0.97,2.80,-1.04,764.00,1583.00,203.00,319.00,434.00,927.00,765.00,1066.00,,,,,,,,,,,,0,0,0,,-2720,15884,-3396,-20,400,-153
5.343,5.29,1.97,3.36,-1.02,6.56,-1.97,2.33,0.10,1.12,0.06,794.00,1582.00,230.00,305.00,422.00,961.00,743.00,1106.00,,,,,,,,,,,,0,0,0,,-2748,15848,-3436,-95,228,53
5.385,5.34,1.99,2.30,-0.02,2.04,1.32,2.44,0.64,1.60,0.30,767.00,1606.00,209.00,334.00,409.00,943.00,727.00,1078.00,,,,,,,,,,,,0,0,0,,-2708,15916,-3152,-224,214,-81
5.449,5.40,1.95,2.69,-0.10,2.91,1.75,1.28,2.83,2.95,-1.48,765.00,1585.00,201.00,319.00,371.00,931.00,781.00,1072.00,,,,,,,,,,,,0,0,0,,-2732,15884,-3360,-308,189,37
5.51,5.45,2.00,3.17,-0.74,4.77,-0.29,2.84,-0.12,1.13,0.20,785.00,1582.00,217.00,313.00,423.00,947.00,737.00,1101.00,,,,,,,,,,,,0,0,0,,-2644,15912,-3216,-283,29,20
5.551,5.51,2.01,2.64,-0.40,3.52,0.39,2.22,0.49,1.74,-0.25,778.00,1601.00,214.00,323.00,414.00,955.00,747.00,1088.00,,,,,,,,,,,,0,0,0,,-2628,16076,-3124,-182,271,-196
5.613,5.56,2.07,2.05,0.28,2.17,2.37,3.25,-0.56,1.93,-0.56,758.00,1609.00,197.00,323.00,430.00,943.00,757.00,1089.00,,,,,,,,,,,,0,0,0,,-2484,15972,-3100,-19,273,-162
5.697,5.62,2.12,2.82,-0.51,4.81,0.12,2.99,-0.77,1.50,-0.34,780.00,1594.00,212.00,309.00,437.00,958.00,754.00,1101.00,,,,,,,,,,,,0,0,0,,-2512,15820,-2996,193,282,-322
5.718,5.67,2.11,2.42,-0.54,4.33,-0.81,2.05,-0.11,1.26,-0.46,787.00,1621.00,225.00,323.00,429.00,977.00,762.00,1115.00,,,,,,,,,,,,0,0,0,,-2700,16100,-3588,-56,46,-438
5.779,5.73,2.14,2.29,-0.19,1.66,1.10,2.66,0.07,1.61,0.04,774.00,1614.00,213.00,341.00,420.00,949.00,737.00,1085.00,,,,,,,,,,,,0,0,0,,-2668,15672,-3092,43,47,-73
5.84,5.78,2.22,2.88,-0.29,3.06,1.07,3.72,-1.06,2.95,-1.48,770.00,1581.00,208.00,323.00,438.00,938.00,781.00,1072.00,,,,,,,,,,,,0,0,0,,-2612,15800,-3376,102,127,20
5.902,5.84,2.23,3.32,-0.93,5.40,-1.33,2.32,0.14,1.12,-0.02,791.00,1581.00,227.00,314.00,421.00,960.00,746.00,1108.00,,,,,,,,,,,,0,0,0,,-2616,15864,-3360,-122,107,-73
5.964,5.89,2.24,2.45,-0.09,1.90,1.19,2.60,0.41,1.99,-0.06,768.00,1600.00,211.00,337.00,413.00,943.00,736.00,1072.00,,,,,,,,,,,,0,0,0,,-2592,15884,-3392,-313,-6,5
5.985,5.95,2.33,2.63,0.06,2.56,2.14,4.03,-0.99,2.77,-1.18,759.00,1582.00,198.00,320.00,434.00,925.00,771.00,1071.00,,,,,,,,,,,,0,0,0,,-2536,15988,-3156,-522,-41,-6
6.066,6.00,2.38,3.17,-0.48,5.52,-0.80,3.36,-0.64,1.42,0.06,774.00,1571.00,220.00,308.00,431.00,941.00,739.00,1093.00,,,,,,,,,,,,0,0,0,,-2608,16144,-3088,-461,44,-122
6.128,6.06,2.39,2.76,-0.32,3.36,0.27,2.48,0.58,1.95,-0.32,773.00,1590.00,216.00,326.00,410.00,943.00,747.00,1081.00,,,,,,,,,,,,0,0,0,,-2536,16148,-3148,-264,144,-239
6.168,6.11,2.44,2.29,0.27,2.08,1.94,3.48,-0.42,1.91,-0.50,755.00,1594.00,202.00,328.00,425.00,931.00,755.00,1088.00,,,,,,,,,,,,0,0,0,,-2544,16024,-3032,-13,165,-147
6.23,6.17,2.49,3.23,-0.62,6.78,-0.80,3.43,-0.79,1.81,-0.67,779.00,1573.00,215.00,293.00,434.00,942.00,763.00,1097.00,,,,,,,,,,,,0,0,0,,-2580,15900,-3192,-22,120,-71
6.293,6.22,2.49,2.86,-0.66,4.63,-0.91,2.52,-0.18,1.25,-0.40,786.00,1598.00,225.00,320.00,427.00,961.00,760.00,1114.00,,,,,,,,,,,,0,0,0,,-2608,15932,-3160,-43,176,-145
6.355,6.28,2.50,2.21,-0.18,1.28,1.23,2.58,-0.12,1.22,-0.20,775.00,1619.00,213.00,345.00,425.00,957.00,752.00,1109.00,,,,,,,,,,,,0,0,0,,-2632,15592,-3148,-63,118,-264
6.375,6.33,2.55,2.64,-0.52,2.21,1.17,3.60,-1.35,2.38,-1.50,783.00,1606.00,210.00,333.00,446.00,950.00,790.00,1097.00,,,,,,,,,,,,0,0,0,,-2684,16044,-3128,-172,87,-135
6.436,6.39,2.55,3.31,-1.14,5.27,-1.85,2.47,-0.08,0.83,-0.09,800.00,1590.00,234.00,320.00,425.00,960.00,753.00,1123.00,,,,,,,,,,,,0,0,0,,-2604,16104,-3028,-158,46,-179
6.498,6.44,2.55,2.43,-0.16,2.06,0.62,2.46,0.45,2.46,-0.44,771.00,1604.00,217.00,340.00,413.00,947.00,745.00,1063.00,,,,,,,,,,,,0,0,0,,-2604,15816,-2924,60,131,-146
6.538,6.50,2.60,2.52,0.12,2.47,1.35,3.67,-0.70,2.44,-1.14,758.00,1586.00,207.00,328.00,430.00,931.00,774.00,1084.00,,,,,,,,,,,,0,0,0,,-2504,16028,-3304,-46,166,-159
6.6,6.55,2.64,3.42,-0.57,4.52,-0.03,3.28,-0.53,1.29,-0.10,774.00,1559.00,215.00,314.00,429.00,941.00,747.00,1103.00,,,,,,,,,,,,0,0,0,,-2664,15960,-3236,-157,173,-266
6.662,6.61,2.63,2.82,-0.39,3.54,-0.21,2.58,0.19,1.81,-0.35,775.00,1589.00,221.00,328.00,418.00,949.00,750.00,1088.00,,,,,,,,,,,,0,0,0,,-2580,15820,-3112,-167,36,-169
6.704,6.66,2.68,2.44,0.25,1.90,1.63,3.58,-0.46,2.00,-0.63,754.00,1586.00,206.00,333.00,425.00,928.00,759.00,1088.00,,,,,,,,,,,,0,0,0,,-2632,15968,-3188,-203,-17,-112
6.806,6.72,2.71,3.28,-0.54,2.37,0.95,3.36,-0.77,2.08,-0.92,775.00,1567.00,212.00,333.00,434.00,944.00,770.00,1093.00,,,,,,,,,,,,0,0,0,,-2640,16008,-3004,-156,26,-175
6.827,6.77,2.71,2.76,-0.56,4.95,-1.27,2.55,-0.15,1.42,-0.73,783.00,1600.00,228.00,319.00,426.00,959.00,771.00,1116.00,,,,,,,,,,,,0,0,0,,-2576,16008,-2956,-57,-12,-110
6.867,6.83,2.70,2.35,-0.30,1.34,1.03,2.63,0.04,1.23,-0.08,778.00,1615.00,215.00,346.00,421.00,951.00,747.00,1105.00,,,,,,,,,,,,0,0,0,,-2628,15940,-3028,-10,78,-145
6.929,6.88,2.74,2.64,-0.33,1.67,1.54,3.49,-1.15,2.48,-1.72,775.00,1598.00,208.00,337.00,442.00,949.00,798.00,1099.00,,,,,,,,,,,,0,0,0,,-2540,15928,-3104,-70,175,-151
6.989,6.94,2.71,3.07,-1.08,4.33,-1.62,2.20,-0.29,0.30,-0.16,801.00,1603.00,235.00,330.00,432.00,976.00,763.00,1149.00,,,,,,,,,,,,0,0,0,,-2552,16016,-2936,-148,105,-171
7.051,6.99,2.67,2.09,-0.36,1.28,0.38,1.81,0.31,1.12,-0.31,784.00,1634.00,223.00,353.00,421.00,975.00,758.00,1117.00,,,,,,,,,,,,0,0,0,,-2576,15976,-3024,-183,-38,-55
7.113,7.05,2.68,2.13,-0.20,1.38,1.19,2.89,-0.74,1.75,-1.22,777.00,1625.00,213.00,344.00,437.00,961.00,787.00,1116.00,,,,,,,,,,,,0,0,0,,-2496,16140,-3020,-101,165,-19
7.176,7.10,2.67,2.66,-0.64,2.97,-0.27,2.39,-0.57,0.69,-0.41,788.00,1610.00,224.00,336.00,437.00,976.00,768.00,1139.00,,,,,,,,,,,,0,0,0,,-2592,15988,-3016,-69,54,-181
7.197,7.16,2.64,2.74,-0.57,3.25,-0.69,2.16,0.11,1.42,-0.39,784.00,1602.00,228.00,336.00,423.00,967.00,757.00,1106.00,,,,,,,,,,,,0,0,0,,-2616,15904,-3028,-84,17,-140
7.278,7.21,2.66,2.11,0.33,0.91,1.35,3.06,-0.32,1.88,-0.67,755.00,1603.00,213.00,349.00,426.00,944.00,762.00,1094.00,,,,,,,,,,,,0,0,0,,-2584,16032,-3024,-50,171,-102
7.32,7.27,2.72,3.28,-0.54,3.13,-0.41,3.74,-1.36,1.93,-0.87,775.00,1567.00,225.00,335.00,445.00,945.00,770.00,1098.00,,,,,,,,,,,,0,0,0,,-2576,15984,-2920,-185,182,-222
7.38,7.32,2.70,2.90,-0.61,4.27,-1.75,2.47,-0.38,1.01,-0.59,783.00,1593.00,237.00,332.00,432.00,968.00,771.00,1130.00,,,,,,,,,,,,0,0,0,,-2536,15928,-3148,-158,44,-98
7.441,7.38,2.70,1.98,0.01,3.13,-0.41,2.62,-0.17,1.34,-0.24,770.00,1625.00,225.00,335.00,426.00,957.00,752.00,1105.00,,,,,,,,,,,,0,0,0,,-2632,16016,-3096,-158,37,-98
7.566,7.43,2.75,2.78,-0.35,2.33,0.44,3.78,-1.49,2.83,-1.86,774.00,1590.00,218.00,338.00,448.00,947.00,799.00,1088.00,,,,,,,,,,,,0,0,0,,-2624,15984,-2844,-113,92,-104
7.587,7.49,2.74,3.44,-1.18,4.27,-1.75,2.45,-0.59,0.28,0.07,800.00,1584.00,237.00,332.00,437.00,974.00,754.00,1143.00,,,,,,,,,,,,0,0,0,,-2572,15952,-3008,-134,66,-155
7.607,7.54,2.70,2.23,-0.19,2.71,-1.84,2.06,0.41,1.35,-0.31,775.00,1618.00,245.00,354.00,417.00,963.00,755.00,1107.00,,,,,,,,,,,,0,0,0,,-2592,16044,-3040,-5,35,-137
7.648,7.60,2.73,2.14,0.01,0.32,1.90,3.19,-0.71,1.58,-1.09,768.00,1615.00,209.00,352.00,434.00,949.00,784.00,1120.00,,,,,,,,,,,,0,0,0,,-2560,15980,-2984,-134,200,-155
7.708,7.65,2.72,2.84,-0.61,3.38,-0.65,2.61,-0.89,0.65,-0.25,784.00,1597.00,227.00,334.00,443.00,976.00,762.00,1136.00,,,,,,,,,,,,0,0,0,,-2524,15996,-3052,-24,159,-198
7.749,7.71,2.69,2.19,-0.37,2.41,-0.65,2.06,-0.16,0.78,-0.44,783.00,1628.00,231.00,347.00,430.00,978.00,768.00,1136.00,,,,,,,,,,,,0,0,0,,-2616,15976,-3004,-79,126,-179
7.81,7.76,2.67,1.63,0.32,0.56,1.13,2.30,-0.37,0.78,-0.61,762.00,1634.00,217.00,356.00,433.00,974.00,775.00,1141.00,,,,,,,,,,,,0,0,0,,-2628,16132,-2928,-4,40,-106
7.912,7.82,2.67,2.27,-0.46,2.17,-0.09,2.69,-1.13,1.12,-0.98,786.00,1627.00,225.00,345.00,448.00,979.00,786.00,1137.00,,,,,,,,,,,,0,0,0,,-2548,15864,-2928,-35,145,-26
7.933,7.87,2.62,2.44,-0.89,2.91,-1.60,1.74,-0.56,-0.17,-0.62,802.00,1635.00,241.00,349.00,442.00,1001.00,789.00,1185.00,,,,,,,,,,,,0,0,0,,-2484,15936,-2940,-145,154,-189
7.975,7.93,2.59,1.97,-0.17,0.27,0.31,2.01,-0.01,0.83,-0.29,778.00,1634.00,228.00,368.00,427.00,976.00,761.00,1129.00,,,,,,,,,,,,0,0,0,,-2636,15992,-3076,-174,109,-236
8.038,7.98,2.63,2.53,-0.36,1.39,0.43,3.26,-1.32,2.53,-2.06,778.00,1606.00,222.00,351.00,448.00,962.00,812.00,1107.00,,,,,,,,,,,,0,0,0,,-2588,15992,-2904,-36,83,-135
8.079,8.04,2.62,2.97,-0.77,4.08,-1.92,2.49,-0.64,0.59,-0.33,789.00,1596.00,240.00,336.00,438.00,974.00,766.00,1141.00,,,,,,,,,,,,0,0,0,,-2424,16136,-2908,-54,194,-164
8.161,8.09,2.56,2.43,-0.21,1.61,-0.22,1.52,0.90,3.35,-1.01,773.00,1606.00,229.00,354.00,410.00,971.00,756.00,1042.00,,,,,,,,,,,,0,0,0,,-2532,15856,-2956,-13,236,-167
8.203,8.15,2.59,2.32,0.22,1.38,1.19,3.10,-0.81,1.87,-1.11,757.00,1595.00,213.00,344.00,437.00,955.00,781.00,1108.00,,,,,,,,,,,,0,0,0,,-2584,15968,-3144,55,118,-102
8.264,8.20,2.61,3.28,-0.73,3.11,-0.48,2.95,-1.05,0.96,-0.38,783.00,1575.00,226.00,336.00,444.00,967.00,763.00,1126.00,,,,,,,,,,,,0,0,0,,-2556,15952,-3136,51,118,-170
8.326,8.26,2.58,2.68,-0.44,3.91,-1.55,2.05,-0.07,1.03,-0.36,779.00,1600.00,236.00,335.00,428.00,976.00,761.00,1122.00,,,,,,,,,,,,0,0,0,,-2640,16024,-3000,47,98,-171
8.388,8.31,2.58,1.99,0.33,0.12,1.88,2.46,-0.34,0.92,-0.49,757.00,1611.00,210.00,355.00,431.00,967.00,768.00,1131.00,,,,,,,,,,,,0,0,0,,-2592,15996,-3036,-10,62,-146
8.428,8.37,2.61,2.59,-0.31,2.80,-0.13,3.23,-1.31,1.84,-1.25,775.00,1600.00,223.00,337.00,448.00,963.00,787.00,1113.00,,,,,,,,,,,,0,0,0,,-2668,15948,-3068,0,194,-171
8.489,8.42,2.56,2.60,-0.69,4.00,-2.35,1.62,-0.31,0.10,-0.47,791.00,1616.00,246.00,341.00,437.00,999.00,779.00,1168.00,,,,,,,,,,,,0,0,0,,-2624,15880,-2972,-83,250,-198
8.53,8.48,2.54,1.76,0.06,0.49,0.40,2.20,-0.29,0.63,-0.32,771.00,1637.00,226.00,364.00,432.00,976.00,765.00,1139.00,,,,,,,,,,,,0,0,0,,-2580,15912,-3148,-38,254,-188
8.654,8.53,2.56,2.04,0.02,0.07,1.63,2.86,-1.23,1.80,-1.79,769.00,1621.00,213.00,358.00,449.00,975.00,811.00,1131.00,,,,,,,,,,,,0,0,0,,-2584,15924,-3084,7,236,-97
8.675,8.59,2.52,2.72,-0.94,4.08,-1.92,1.84,-0.64,-0.35,-0.15,800.00,1619.00,240.00,336.00,443.00,999.00,772.00,1179.00,,,,,,,,,,,,0,0,0,,-2712,16036,-2928,174,189,-73
8.716,8.64,2.46,1.83,-0.27,2.08,-1.01,1.21,0.30,0.66,-0.49,784.00,1647.00,237.00,355.00,426.00,999.00,772.00,1143.00,,,,,,,,,,,,0,0,0,,-2592,16132,-3128,481,433,-83
8.737,8.70,2.46,1.70,0.21,0.65,1.10,2.61,-0.94,1.33,-1.05,766.00,1635.00,217.00,355.00,444.00,977.00,786.00,1130.00,,,,,,,,,,,,0,0,0,,-2676,16112,-2980,734,506,-317
8.797,8.75,2.47,2.90,-0.51,3.32,-0.80,2.53,-0.79,0.86,-0.39,779.00,1589.00,229.00,336.00,441.00,976.00,765.00,1131.00,,,,,,,,,,,,0,0,0,,-2608,15828,-3260,648,428,-368
8.858,8.81,2.45,2.45,-0.24,3.50,-1.73,2.09,-0.21,0.86,-0.20,774.00,1606.00,240.00,342.00,431.00,978.00,757.00,1125.00,,,,,,,,,,,,0,0,0,,-2600,15856,-3272,504,301,-44
8.9,8.86,2.45,2.00,0.44,1.22,0.56,2.57,-0.46,1.08,-0.42,752.00,1605.00,221.00,352.00,433.00,966.00,763.00,1122.00,,,,,,,,,,,,0,0,0,,-2604,15912,-3292,90,230,-287
9.003,8.92,2.50,2.55,-0.15,2.89,-0.16,3.30,-1.33,1.78,-1.23,769.00,1596.00,223.00,336.00,448.00,961.00,787.00,1115.00,,,,,,,,,,,,0,0,0,,-2528,15896,-3352,-6,271,-178
9.023,8.97,2.48,3.17,-1.07,6.43,-5.16,2.14,-0.36,0.28,-0.30,799.00,1596.00,274.00,334.00,434.00,980.00,769.00,1154.00,,,,,,,,,,,,0,0,0,,-2496,15960,-3472,59,163,-232
9.086,9.03,2.46,2.18,-0.08,1.80,-0.29,2.18,-0.11,0.80,-0.18,771.00,1616.00,229.00,352.00,428.00,972.00,757.00,1127.00,,,,,,,,,,,,0,0,0,,-2668,15968,-3424,49,136,-218
9.128,9.08,2.50,2.45,-0.14,0.38,1.70,3.23,-1.31,1.95,-1.70,770.00,1602.00,211.00,353.00,448.00,963.00,805.00,1122.00,,,,,,,,,,,,0,0,0,,-2632,15976,-3552,37,240,-378
9.189,9.14,2.50,3.05,-0.98,4.77,-2.15,2.43,-0.67,0.22,-0.20,797.00,1600.00,240.00,329.00,439.00,977.00,766.00,1154.00,,,,,,,,,,,,0,0,0,,-2588,15768,-3544,109,103,-140
9.252,9.19,2.48,2.21,-0.23,3.46,-1.01,2.05,-0.11,0.73,-0.40,777.00,1621.00,231.00,336.00,429.00,977.00,767.00,1137.00,,,,,,,,,,,,0,0,0,,-2588,15888,-3576,193,148,-149
9.293,9.25,2.48,1.95,0.19,1.43,1.44,2.66,-0.74,1.00,-0.96,763.00,1619.00,210.00,341.00,439.00,970.00,787.00,1142.00,,,,,,,,,,,,0,0,0,,-2480,15812,-3876,-55,61,-184
9.375,9.30,2.49,2.41,-0.37,3.06,0.03,2.51,-0.99,0.51,-0.64,780.00,1614.00,220.00,332.00,446.00,982.00,780.00,1154.00,,,,,,,,,,,,0,0,0,,-2524,15740,-3448,-176,-48,-122
9.418,9.36,2.43,2.09,-0.38,3.62,-1.45,1.40,-0.02,0.04,-0.38,785.00,1635.00,236.00,338.00,432.00,1000.00,776.00,1168.00,,,,,,,,,,,,0,0,0,,-2604,15932,-3372,-243,-106,-242
9.458,9.41,2.41,1.38,0.34,0.89,0.43,1.92,-0.45,-0.39,-0.07,765.00,1650.00,224.00,358.00,438.00,991.00,769.00,1178.00,,,,,,,,,,,,0,0,0,,-2564,16128,-3616,-248,13,-117
9.521,9.47,2.43,1.97,-0.24,2.24,-0.19,2.97,-1.51,0.99,-1.24,781.00,1637.00,226.00,345.00,455.00,978.00,799.00,1151.00,,,,,,,,,,,,0,0,0,,-2684,16028,-3352,-314,35,-225
9.584,9.52,2.40,2.66,-0.78,3.79,-1.82,1.84,-0.21,-0.14,-0.25,794.00,1616.00,240.00,339.00,433.00,988.00,773.00,1172.00,,,,,,,,,,,,0,0,0,,-2644,15824,-3292,-251,87,-186
9.626,9.58,2.39,1.82,0.04,1.02,0.55,2.15,-0.10,0.46,0.06,771.00,1634.00,222.00,355.00,428.00,973.00,752.00,1135.00,,,,,,,,,,,,0,0,0,,-2628,16012,-3452,-174,99,-128
9.689,9.63,2.43,2.24,0.19,1.84,1.39,3.11,-1.06,1.72,-1.46,759.00,1601.00,209.00,336.00,443.00,961.00,798.00,1125.00,,,,,,,,,,,,0,0,0,,-2584,15988,-3180,-109,57,-28
9.751,9.69,2.42,2.86,-0.64,5.14,-1.89,2.28,-0.45,0.25,-0.02,785.00,1597.00,235.00,322.00,435.00,977.00,758.00,1147.00,,,,,,,,,,,,0,0,0,,-2644,15944,-3524,-48,64,-190
9.813,9.74,2.39,2.37,-0.24,3.46,-1.01,1.88,0.29,0.77,-0.36,775.00,1611.00,231.00,336.00,421.00,973.00,765.00,1134.00,,,,,,,,,,,,0,0,0,,-2696,15900,-3276,11,71,-164
9.855,9.80,2.43,1.69,0.67,1.84,1.39,3.18,-1.04,0.99,-0.75,747.00,1615.00,209.00,336.00,442.00,958.00,778.00,1136.00,,,,,,,,,,,,0,0,0,,-2868,15968,-3500,-25,-12,-123
9.937,9.85,2.44,2.78,-0.37,4.56,-0.81,2.55,-0.62,0.82,-0.50,775.00,1591.00,224.00,320.00,437.00,971.00,770.00,1136.00,,,,,,,,,,,,0,0,0,,-2764,15900,-3392,-12,36,-122
9.958,9.91,2.43,2.31,-0.22,3.94,-1.48,2.20,-0.29,0.32,-0.38,775.00,1614.00,235.00,334.00,432.00,976.00,772.00,1155.00,,,,,,,,,,,,0,0,0,,-2552,15848,-3288,-77,167,-64
10.0,9.96,2.41,1.84,0.18,1.38,0.77,2.01,-0.01,-0.15,-0.08,765.00,1627.00,218.00,348.00,427.00,976.00,766.00,1167.00,,,,,,,,,,,,0,0,0,,-2716,15920,-3464,-47,169,-94
10.124,10.02,2.44,2.25,-0.34,2.52,0.38,3.07,-1.54,1.38,-1.56,781.00,1623.00,218.00,336.00,455.00,975.00,807.00,1143.00,,,,,,,,,,,,0,0,0,,-2700,15780,-3540,-156,101,-158
10.145,10.07,2.39,2.40,-0.76,4.45,-2.35,1.41,-0.07,-0.80,-0.12,797.00,1632.00,244.00,335.00,433.00,1001.00,777.00,1199.00,,,,,,,,,,,,0,0,0,,-2632,15904,-3276,-168,-5,-157
10.208,10.13,2.33,1.29,0.13,0.67,0.34,1.20,0.34,0.14,-0.34,775.00,1665.00,226.00,362.00,425.00,998.00,773.00,1162.00,,,,,,,,,,,,0,0,0,,-2564,16044,-3448,-75,139,-125
10.229,10.18,2.35,1.76,0.02,2.33,0.44,2.78,-1.08,1.35,-1.63,773.00,1639.00,218.00,338.00,446.00,974.00,811.00,1147.00,,,,,,,,,,,,0,0,0,,-2672,15968,-3564,-106,45,-235
10.289,10.24,2.34,2.82,-0.65,4.47,-1.82,2.09,-0.13,-0.08,0.02,786.00,1600.00,237.00,330.00,429.00,976.00,761.00,1161.00,,,,,,,,,,,,0,0,0,,-2628,15840,-3312,-93,8,-162
10.33,10.29,2.32,2.12,0.01,3.47,-0.69,2.01,0.34,0.72,-0.15,768.00,1616.00,227.00,333.00,419.00,967.00,757.00,1130.00,,,,,,,,,,,,0,0,0,,-2612,15932,-3284,-122,99,-70
10.392,10.35,2.36,1.96,0.53,2.11,1.21,3.15,-0.61,1.08,-0.66,749.00,1604.00,210.00,334.00,432.00,948.00,773.00,1129.00,,,,,,,,,,,,0,0,0,,-2576,15864,-3296,-235,162,-51
10.476,10.40,2.38,2.78,-0.21,3.36,0.97,2.68,-0.54,0.84,-0.53,768.00,1584.00,208.00,320.00,434.00,964.00,771.00,1136.00,,,,,,,,,,,,0,0,0,,-2652,15992,-3248,22,177,-158
10.496,10.46,2.37,2.45,-0.22,3.98,-1.10,2.14,-0.01,0.23,-0.16,773.00,1605.00,230.00,330.00,426.00,971.00,764.00,1152.00,,,,,,,,,,,,0,0,0,,-2680,15732,-3472,-16,98,-169
10.559,10.51,2.37,1.97,0.23,2.53,0.04,2.38,-0.14,0.28,0.07,761.00,1616.00,222.00,339.00,427.00,965.00,754.00,1143.00,,,,,,,,,,,,0,0,0,,-2612,15920,-3240,-29,119,-211
10.62,10.57,2.41,2.18,0.04,2.55,0.46,3.14,-1.03,1.28,-1.15,766.00,1611.00,217.00,335.00,442.00,959.00,791.00,1135.00,,,,,,,,,,,,0,0,0,,-2700,15860,-3412,-22,122,-193
10.682,10.62,2.38,2.48,-0.51,4.51,-2.22,1.86,-0.18,-0.57,-0.06,785.00,1616.00,242.00,333.00,432.00,986.00,771.00,1186.00,,,,,,,,,,,,0,0,0,,-2724,15912,-3348,12,95,-156
10.723,10.68,2.37,1.58,0.08,1.61,0.10,2.10,0.04,0.10,0.11,773.00,1648.00,225.00,351.00,425.00,971.00,755.00,1150.00,,,,,,,,,,,,0,0,0,,-2568,15912,-3428,-63,115,-123
10.786,10.73,2.41,1.78,0.20,1.80,1.23,3.19,-1.21,1.12,-1.40,765.00,1630.00,211.00,338.00,446.00,962.00,804.00,1150.00,,,,,,,,,,,,0,0,0,,-2608,15948,-3436,-87,111,-188
10.849,10.79,2.40,2.36,-0.49,6.52,-3.93,2.19,-0.54,-0.52,0.12,786.00,1623.00,256.00,322.00,438.00,983.00,763.00,1178.00,,,,,,,,,,,,0,0,0,,-2688,15684,-3236,-119,182,-183
10.909,10.84,2.35,1.67,-0.05,2.84,-0.31,1.47,0.26,0.11,-0.16,777.00,1648.00,225.00,338.00,425.00,990.00,766.00,1158.00,,,,,,,,,,,,0,0,0,,-2592,16040,-3512,-66,199,-218
10.951,10.90,2.37,1.36,0.66,1.36,1.55,2.68,-0.54,0.79,-0.68,752.00,1637.00,209.00,341.00,434.00,964.00,778.00,1143.00,,,,,,,,,,,,0,0,0,,-2660,15824,-3332,-37,35,-195
11.032,10.95,2.40,2.61,-0.13,4.09,-0.23,3.00,-0.86,0.82,-0.50,767.00,1591.00,219.00,321.00,439.00,960.00,770.00,1136.00,,,,,,,,,,,,0,0,0,,-2616,15884,-3316,80,-55,-131
11.094,11.01,2.38,2.29,-0.16,3.77,-1.35,2.12,0.17,0.67,-0.38,773.00,1613.00,234.00,335.00,422.00,967.00,767.00,1139.00,,,,,,,,,,,,0,0,0,,-2648,15928,-3388,4,172,-111
11.115,11.06,2.38,1.99,0.20,2.34,-0.22,2.38,-0.09,0.44,0.07,762.00,1616.00,226.00,344.00,426.00,964.00,752.00,1136.00,,,,,,,,,,,,0,0,0,,-2628,15944,-3392,-114,211,-108
11.237,11.12,2.44,2.80,-0.16,2.72,0.66,3.60,-1.31,1.43,-1.20,766.00,1581.00,214.00,331.00,445.00,949.00,791.00,1130.00,,,,,,,,,,,,0,0,0,,-2660,15972,-3416,6,44,-131
11.257,11.17,2.43,2.72,-0.57,4.78,-1.13,2.26,-0.23,-0.38,0.07,784.00,1603.00,227.00,320.00,430.00,972.00,763.00,1173.00,,,,,,,,,,,,0,0,0,,-2680,15848,-3368,7,109,-77
11.278,11.23,2.42,1.59,0.31,2.05,-0.13,2.13,0.38,0.25,0.08,763.00,1637.00,226.00,347.00,417.00,961.00,754.00,1144.00,,,,,,,,,,,,0,0,0,,-2608,15932,-3432,-42,145,-137
11.36,11.28,2.45,1.82,0.43,1.57,1.57,3.06,-0.75,1.36,-1.29,755.00,1617.00,208.00,338.00,436.00,955.00,796.00,1136.00,,,,,,,,,,,,0,0,0,,-2600,15800,-3380,-75,119,-114
11.381,11.34,2.44,2.37,-0.33,4.73,-0.70,2.20,-0.29,-0.34,0.20,779.00,1615.00,222.00,317.00,432.00,976.00,757.00,1167.00,,,,,,,,,,,,0,0,0,,-2644,15864,-3452,4,193,-115
11.443,11.39,2.41,2.05,-0.27,3.25,-0.69,1.78,0.33,0.31,-0.13,781.00,1633.00,228.00,336.00,421.00,976.00,762.00,1148.00,,,,,,,,,,,,0,0,0,,-2648,15812,-3452,-74,200,-119
11.524,11.45,2.41,1.36,0.66,0.63,1.97,2.40,-0.36,0.51,-0.64,752.00,1637.00,207.00,347.00,432.00,970.00,780.00,1154.00,,,,,,,,,,,,0,0,0,,-2612,16092,-3440,-151,144,-127
11.567,11.50,2.41,2.25,-0.24,3.66,-0.17,2.57,-0.88,0.20,-0.55,777.00,1619.00,220.00,326.00,443.00,977.00,781.00,1166.00,,,,,,,,,,,,0,0,0,,-2596,15880,-3472,-112,138,-38
11.607,11.56,2.38,1.86,-0.32,3.67,-1.31,1.73,-0.14,-0.03,-0.29,786.00,1648.00,234.00,336.00,432.00,990.00,773.00,1168.00,,,,,,,,,,,,0,0,0,,-2556,15936,-3404,-56,91,-219
11.649,11.61,2.37,1.74,0.14,1.58,0.36,2.22,-0.21,0.01,0.13,768.00,1635.00,222.00,349.00,430.00,973.00,755.00,1153.00,,,,,,,,,,,,0,0,0,,-2648,15848,-3400,-84,31,-149
11.709,11.67,2.42,2.07,0.20,2.59,0.61,3.30,-1.33,1.73,-1.42,761.00,1611.00,215.00,333.00,448.00,961.00,796.00,1123.00,,,,,,,,,,,,0,0,0,,-2640,15892,-3260,-64,74,-96
11.77,11.72,2.40,2.64,-0.59,5.55,-2.26,2.13,-0.27,-0.24,-0.09,786.00,1609.00,238.00,320.00,432.00,978.00,768.00,1172.00,,,,,,,,,,,,0,0,0,,-2556,15908,-3340,-192,125,-189
11.833,11.78,2.40,1.84,0.13,1.28,0.38,2.30,0.06,0.46,0.06,767.00,1629.00,223.00,353.00,423.00,963.00,752.00,1135.00,,,,,,,,,,,,0,0,0,,-2652,15968,-3260,-118,178,-131
11.874,11.83,2.45,1.41,1.12,1.63,1.37,3.45,-1.01,1.64,-1.34,733.00,1614.00,210.00,339.00,439.00,947.00,794.00,1125.00,,,,,,,,,,,,0,0,0,,-2568,15932,-3292,-37,154,-125
11.937,11.89,2.46,2.55,-0.30,4.52,-1.44,2.57,-0.42,-0.22,0.29,775.00,1602.00,232.00,326.00,432.00,965.00,752.00,1159.00,,,,,,,,,,,,0,0,0,,-2512,15944,-3344,-39,166,-161
11.997,11.94,2.42,2.08,0.05,3.04,-0.38,1.65,0.59,0.61,-0.19,767.00,1617.00,225.00,336.00,416.00,974.00,760.00,1136.00,,,,,,,,,,,,0,0,0,,-2556,15852,-3388,-124,104,-195
12.06,12.00,2.43,1.49,0.69,1.76,1.50,2.77,-0.49,0.62,-0.43,749.00,1627.00,208.00,336.00,432.00,959.00,770.00,1143.00,,,,,,,,,,,,0,0,0,,-2604,15892,-3376,-23,72,-142
12.102,12.05,2.42,2.37,-0.19,2.82,1.42,2.23,-0.26,0.34,-0.31,773.00,1609.00,205.00,323.00,431.00,974.00,769.00,1152.00,,,,,,,,,,,,0,0,0,,-2572,15864,-3380,-47,124,-116
12.166,12.11,2.40,1.85,-0.06,3.74,-1.42,1.96,-0.55,-0.17,-0.17,775.00,1637.00,235.00,336.00,440.00,992.00,770.00,1171.00,,,,,,,,,,,,0,0,0,,-2544,15880,-3484,-114,169,-224
12.226,12.16,2.37,1.32,0.26,-2.20,5.30,1.83,-0.17,-0.20,-0.04,769.00,1657.00,182.00,355.00,432.00,987.00,765.00,1168.00,,,,,,,,,,,,0,0,0,,-2680,15776,-3304,-54,133,-155
12.309,12.22,2.39,1.54,0.09,1.84,0.95,2.66,-1.24,0.90,-1.46,773.00,1650.00,214.00,340.00,451.00,983.00,810.00,1162.00,,,,,,,,,,,,0,0,0,,-2576,16032,-3524,-66,190,-137
12.331,12.27,2.40,2.16,-0.68,4.29,-2.22,2.60,-1.87,-0.83,0.10,797.00,1644.00,243.00,336.00,467.00,1002.00,768.00,1193.00,,,,,,,,,,,,0,0,0,,-2552,15824,-3384,-63,198,-257
12.392,12.33,2.37,1.41,0.35,1.47,-0.01,1.90,0.37,0.55,0.03,764.00,1647.00,227.00,354.00,419.00,970.00,752.00,1132.00,,,,,,,,,,,,0,0,0,,-2596,15872,-3504,-52,68,-177
12.434,12.38,2.42,1.76,0.53,1.21,1.34,3.21,-1.06,1.26,-0.98,752.00,1617.00,212.00,345.00,442.00,957.00,784.00,1131.00,,,,,,,,,,,,0,0,0,,-2664,15900,-3360,-96,145,-126
12.494,12.44,2.41,2.39,-0.05,3.57,-0.72,2.33,-0.34,0.15,0.06,767.00,1602.00,227.00,332.00,432.00,972.00,756.00,1149.00,,,,,,,,,,,,0,0,0,,-2624,15968,-3228,-125,169,-110
12.556,12.49,2.38,2.10,0.02,3.23,-0.77,1.80,0.41,0.64,-0.18,768.00,1617.00,229.00,337.00,419.00,973.00,759.00,1134.00,,,,,,,,,,,,0,0,0,,-2708,15900,-3368,-82,125,-176
12.597,12.55,2.39,1.34,0.89,1.00,1.32,2.49,-0.31,0.68,-0.36,743.00,1628.00,213.00,348.00,430.00,965.00,766.00,1138.00,,,,,,,,,,,,0,0,0,,-2524,15928,-3432,-33,144,-88
12.68,12.60,2.40,2.37,-0.07,3.31,-0.22,2.74,-0.94,0.67,-0.47,768.00,1604.00,222.00,331.00,443.00,972.00,771.00,1142.00,,,,,,,,,,,,0,0,0,,-2620,15868,-3268,-71,162,-217
12.701,12.66,2.38,2.01,-0.16,3.75,-1.65,1.91,-0.28,0.01,-0.18,777.00,1631.00,238.00,338.00,434.00,987.00,768.00,1163.00,,,,,,,,,,,,0,0,0,,-2596,15792,-3568,-80,67,-178
12.762,12.71,2.34,1.40,0.26,0.82,0.54,1.61,0.38,-0.12,0.01,768.00,1652.00,223.00,358.00,421.00,981.00,762.00,1163.00,,,,,,,,,,,,0,0,0,,-2724,15992,-3336,-27,56,-96
12.824,12.77,2.36,1.30,0.27,2.00,0.39,2.79,-1.25,0.77,-1.23,769.00,1658.00,220.00,343.00,450.00,978.00,802.00,1161.00,,,,,,,,,,,,0,0,0,,-2604,15980,-3304,-66,191,-202
12.886,12.82,2.32,1.72,-0.49,4.48,-2.28,1.57,-0.38,-0.12,-1.26,795.00,1664.00,243.00,334.00,439.00,1003.00,816.00,1203.00,,,,,,,,,,,,0,0,0,,-2548,15836,-3440,-185,119,-148
12.947,12.88,2.28,0.96,0.29,0.20,0.41,1.53,-0.02,0.26,-0.26,773.00,1680.00,227.00,368.00,431.00,995.00,768.00,1154.00,,,,,,,,,,,,0,0,0,,-2564,15900,-3312,-86,170,-71
12.988,12.93,2.30,1.22,0.37,0.74,1.06,2.69,-1.13,0.53,-1.11,766.00,1659.00,217.00,354.00,448.00,979.00,800.00,1168.00,,,,,,,,,,,,0,0,0,,-2624,16048,-3556,-137,98,-280
13.051,12.99,2.30,2.17,-0.22,3.03,-0.70,2.23,-0.68,-0.10,-0.02,777.00,1623.00,229.00,339.00,441.00,985.00,763.00,1163.00,,,,,,,,,,,,0,0,0,,-2608,15900,-3468,-90,73,-120
13.114,13.04,2.28,1.78,0.15,2.46,-0.51,1.87,0.08,0.64,-0.18,767.00,1632.00,229.00,345.00,426.00,979.00,759.00,1134.00,,,,,,,,,,,,0,0,0,,-2576,15920,-3284,-22,98,-133
13.155,13.10,2.29,0.41,2.20,0.83,1.47,2.40,-0.36,0.24,0.35,704.00,1631.00,212.00,349.00,432.00,970.00,743.00,1136.00,,,,,,,,,,,,0,0,0,,-2580,15936,-3364,-96,173,-195
13.216,13.15,2.31,2.26,-0.06,3.73,-0.61,2.72,-1.05,0.54,-0.38,769.00,1610.00,225.00,329.00,446.00,976.00,769.00,1145.00,,,,,,,,,,,,0,0,0,,-2620,15972,-3420,-91,136,-120
13.279,13.21,2.27,2.13,-0.23,3.37,-1.53,1.51,-0.15,0.05,-0.34,778.00,1626.00,238.00,342.00,434.00,999.00,774.00,1166.00,,,,,,,,,,,,0,0,0,,-2656,15892,-3280,1,146,-131
13.3,13.26,2.25,1.41,0.37,0.80,0.46,2.01,-0.01,0.14,0.02,763.00,1646.00,224.00,359.00,427.00,976.00,758.00,1151.00,,,,,,,,,,,,0,0,0,,-2656,16000,-3568,-37,172,-176
13.403,13.32,2.28,1.74,0.19,1.50,0.47,2.79,-1.16,1.46,-1.44,766.00,1633.00,221.00,349.00,448.00,976.00,801.00,1136.00,,,,,,,,,,,,0,0,0,,-2600,16004,-3336,-71,91,-181
13.424,13.37,2.25,2.50,-0.75,4.55,-2.61,1.74,-0.56,-0.81,0.15,795.00,1625.00,247.00,336.00,442.00,1001.00,766.00,1191.00,,,,,,,,,,,,0,0,0,,-2624,15928,-3256,1,42,-173
13.484,13.43,2.22,1.37,0.10,0.75,-0.09,1.59,-0.00,0.46,-0.26,775.00,1661.00,231.00,365.00,430.00,992.00,765.00,1145.00,,,,,,,,,,,,0,0,0,,-2596,15884,-3344,-25,133,-173
13.526,13.48,2.23,1.48,0.23,0.91,1.35,2.37,-0.81,0.86,-0.99,768.00,1648.00,213.00,349.00,443.00,983.00,790.00,1149.00,,,,,,,,,,,,0,0,0,,-2724,15976,-3428,-177,194,-126
13.587,13.54,2.21,1.99,-0.28,6.95,-2.42,1.84,-0.55,-0.40,-0.02,782.00,1637.00,234.00,304.00,441.00,997.00,767.00,1177.00,,,,,,,,,,,,0,0,0,,-2624,15972,-3336,-127,120,-221
13.651,13.59,2.15,1.72,-0.49,1.57,-0.69,1.00,0.24,-0.07,-0.23,795.00,1664.00,235.00,359.00,429.00,1009.00,771.00,1168.00,,,,,,,,,,,,0,0,0,,-2632,16056,-3432,-45,173,-46
13.691,13.65,2.15,0.97,0.64,-0.31,1.67,2.23,-0.68,0.49,-0.60,758.00,1663.00,214.00,363.00,441.00,985.00,779.00,1154.00,,,,,,,,,,,,0,0,0,,-2580,15920,-3424,-68,79,-272
13.774,13.70,2.17,2.17,-0.17,1.94,-0.17,2.48,-0.93,0.62,-0.53,775.00,1621.00,227.00,349.00,445.00,982.00,774.00,1146.00,,,,,,,,,,,,0,0,0,,-2660,15808,-3424,-97,30,-145
13.794,13.76,2.14,2.11,-0.32,3.22,-1.63,1.56,-0.29,0.27,-0.53,782.00,1631.00,240.00,345.00,437.00,1001.00,779.00,1162.00,,,,,,,,,,,,0,0,0,,-2584,15960,-3276,-70,137,-183
13.876,13.81,2.12,1.48,0.23,0.26,0.23,1.75,-0.01,0.36,-0.06,768.00,1648.00,229.00,369.00,429.00,986.00,758.00,1143.00,,,,,,,,,,,,0,0,0,,-2568,15888,-3248,-138,162,-131
13.918,13.87,2.16,1.99,-0.08,1.24,0.64,2.97,-1.43,1.44,-1.41,774.00,1629.00,220.00,351.00,453.00,976.00,800.00,1136.00,,,,,,,,,,,,0,0,0,,-2604,16064,-3348,50,103,-180
13.98,13.92,2.12,2.66,-0.92,4.58,-2.77,1.34,-0.05,-0.63,0.06,800.00,1622.00,249.00,337.00,433.00,1003.00,767.00,1185.00,,,,,,,,,,,,0,0,0,,-2584,15852,-3456,-57,175,-142
14.021,13.98,2.10,1.46,0.19,0.77,-0.02,1.73,-0.14,0.63,-0.22,770.00,1651.00,230.00,364.00,432.00,990.00,761.00,1136.00,,,,,,,,,,,,0,0,0,,-2464,15916,-3428,-70,136,-181
14.167,14.03,2.11,1.64,0.20,0.82,0.95,2.24,-0.39,1.05,-0.93,767.00,1639.00,218.00,354.00,434.00,977.00,785.00,1139.00,,,,,,,,,,,,0,0,0,,-2700,15940,-3424,-49,80,-158
14.187,14.09,2.10,2.25,-0.34,3.60,-1.21,2.03,-0.62,-0.12,-0.09,781.00,1623.00,233.00,336.00,441.00,991.00,766.00,1166.00,,,,,,,,,,,,0,0,0,,-2720,15836,-3252,8,47,-158
14.207,14.14,2.05,1.67,-0.07,1.53,-0.83,1.06,0.52,0.25,-0.21,778.00,1649.00,237.00,361.00,422.00,999.00,766.00,1153.00,,,,,,,,,,,,0,0,0,,-2604,15936,-3416,-61,184,-168
14.248,14.20,2.04,1.03,0.62,0.09,0.78,1.88,-0.36,0.48,-0.72,758.00,1660.00,223.00,366.00,436.00,990.00,784.00,1158.00,,,,,,,,,,,,0,0,0,,-2676,15812,-3376,-106,166,-156
14.308,14.25,2.04,1.91,-0.30,2.34,-0.87,1.93,-0.91,0.29,-0.65,784.00,1643.00,234.00,350.00,449.00,1003.00,784.00,1165.00,,,,,,,,,,,,0,0,0,,-2528,15728,-3292,-84,218,-122
14.349,14.31,2.00,1.58,-0.35,2.58,-1.64,1.22,-0.39,-0.52,-0.48,791.00,1667.00,243.00,354.00,442.00,1017.00,788.00,1197.00,,,,,,,,,,,,0,0,0,,-2628,16008,-3432,-54,100,-205
14.412,14.36,1.98,1.28,-0.06,0.32,-0.27,1.57,-0.08,0.18,-0.14,783.00,1674.00,235.00,373.00,432.00,995.00,764.00,1154.00,,,,,,,,,,,,0,0,0,,-2676,15908,-3324,-127,73,-177
14.515,14.42,2.03,1.90,-0.03,0.98,0.40,3.04,-1.57,1.73,-1.65,773.00,1632.00,224.00,357.00,456.00,977.00,806.00,1130.00,,,,,,,,,,,,0,0,0,,-2496,15760,-3320,-80,99,-120
14.536,14.47,2.01,2.62,-0.81,3.63,-2.67,1.68,-0.54,-0.32,-0.04,796.00,1620.00,252.00,349.00,442.00,1003.00,767.00,1174.00,,,,,,,,,,,,0,0,0,,-2632,16108,-3216,-132,119,-183
14.578,14.53,1.99,1.46,0.16,-0.06,0.50,1.65,0.02,0.64,-0.27,771.00,1652.00,227.00,371.00,429.00,989.00,763.00,1137.00,,,,,,,,,,,,0,0,0,,-2596,15988,-3520,-109,136,-151
14.64,14.58,2.02,1.65,0.34,0.82,0.54,2.50,-0.82,1.21,-1.10,761.00,1632.00,223.00,358.00,442.00,978.00,790.00,1137.00,,,,,,,,,,,,0,0,0,,-2696,15912,-3180,20,153,-163
14.681,14.64,2.02,2.37,-0.31,3.16,-1.22,2.04,-0.70,0.02,0.06,778.00,1614.00,235.00,342.00,443.00,993.00,758.00,1155.00,,,,,,,,,,,,0,0,0,,-2572,16040,-3336,-55,198,-200
14.741,14.69,2.00,1.83,-0.08,2.28,-1.31,1.55,0.05,0.36,-0.27,776.00,1639.00,240.00,355.00,429.00,992.00,767.00,1150.00,,,,,,,,,,,,0,0,0,,-2652,15920,-3224,-63,50,-202
14.802,14.75,2.00,1.27,0.57,0.25,0.64,2.17,-0.32,0.57,-0.49,757.00,1647.00,224.00,365.00,433.00,978.00,773.00,1147.00,,,,,,,,,,,,0,0,0,,-2552,15908,-3348,-19,71,-135
14.884,14.80,2.02,2.07,-0.21,1.82,-0.21,2.22,-0.93,0.68,-0.79,778.00,1629.00,228.00,351.00,447.00,992.00,784.00,1151.00,,,,,,,,,,,,0,0,0,,-2592,15900,-3244,-99,141,-135
14.904,14.86,1.97,1.85,-0.28,2.99,-1.93,1.04,0.10,-0.35,-0.32,784.00,1646.00,245.00,351.00,432.00,1011.00,779.00,1184.00,,,,,,,,,,,,0,0,0,,-2708,15908,-3284,-118,160,-188
14.965,14.91,1.94,1.16,-0.02,0.08,-0.11,1.34,-0.05,-0.18,-0.09,783.00,1680.00,234.00,375.00,433.00,1003.00,767.00,1169.00,,,,,,,,,,,,0,0,0,,-2548,16048,-3252,-76,121,-208
15.029,14.97,1.96,1.20,-0.01,2.05,-0.13,2.34,-1.30,0.96,-1.46,782.00,1677.00,226.00,347.00,455.00,997.00,809.00,1159.00,,,,,,,,,,,,0,0,0,,-2560,15916,-3340,-82,213,-209
15.071,15.02,1.93,2.28,-0.95,3.16,-2.29,1.39,-0.48,-0.86,0.09,807.00,1648.00,249.00,352.00,443.00,1013.00,769.00,1195.00,,,,,,,,,,,,0,0,0,,-2588,16036,-3412,-90,173,-325
15.132,15.08,1.91,1.41,-0.01,0.57,-0.03,1.67,-0.11,0.71,-0.17,779.00,1663.00,231.00,367.00,432.00,992.00,758.00,1131.00,,,,,,,,,,,,0,0,0,,-2676,15788,-3060,-35,90,-208
15.194,15.13,1.96,1.92,0.18,0.95,0.66,2.90,-0.91,1.43,-1.04,764.00,1622.00,221.00,355.00,441.00,965.00,784.00,1125.00,,,,,,,,,,,,0,0,0,,-2580,16052,-3304,73,143,-198
15.254,15.19,1.98,2.62,-0.44,3.01,-0.77,2.32,-0.59,0.32,0.01,780.00,1604.00,230.00,340.00,438.00,979.00,756.00,1143.00,,,,,,,,,,,,0,0,0,,-2688,15928,-3188,-114,258,-82
15.296,15.24,1.97,2.17,-0.22,1.53,-0.83,1.69,-0.04,0.67,-0.28,777.00,1623.00,237.00,361.00,430.00,989.00,763.00,1136.00,,,,,,,,,,,,0,0,0,,-2540,15904,-3372,72,204,-244
15.358,15.30,2.00,1.52,0.48,0.24,1.49,2.59,-0.64,0.90,-0.46,757.00,1634.00,214.00,357.00,437.00,970.00,767.00,1131.00,,,,,,,,,,,,0,0,0,,-2600,15676,-3304,63,196,-167
15.4,15.35,2.03,2.47,-0.34,2.81,-0.71,2.72,-1.05,1.21,-0.94,778.00,1609.00,230.00,342.00,446.00,976.00,783.00,1132.00,,,,,,,,,,,,0,0,0,,-2612,15868,-3608,-7,247,-284
15.463,15.41,2.01,2.24,-0.47,3.61,-1.99,1.64,-0.19,0.13,-0.37,787.00,1630.00,243.00,343.00,434.00,995.00,774.00,1163.00,,,,,,,,,,,,0,0,0,,-2712,15912,-3460,-19,46,-245
15.504,15.46,2.01,1.53,0.10,0.15,0.19,1.85,-0.05,0.24,0.06,773.00,1651.00,230.00,371.00,429.00,983.00,755.00,1145.00,,,,,,,,,,,,0,0,0,,-2732,15740,-3388,15,93,-170
15.567,15.52,2.05,1.97,-0.24,1.49,0.06,2.80,-1.41,1.52,-1.53,781.00,1637.00,226.00,353.00,454.00,982.00,804.00,1136.00,,,,,,,,,,,,0,0,0,,-2772,15932,-3464,-82,135,-209
15.63,15.57,2.02,2.38,-0.85,3.62,-2.22,1.56,-0.33,-0.73,0.12,801.00,1637.00,246.00,345.00,438.00,1002.00,766.00,1188.00,,,,,,,,,,,,0,0,0,,-2764,15932,-3424,-58,82,-304
15.69,15.63,2.00,1.32,-0.00,0.66,-0.06,1.52,0.06,0.28,-0.12,780.00,1669.00,231.00,366.00,429.00,993.00,762.00,1149.00,,,,,,,,,,,,0,0,0,,-2652,16032,-3496,-33,119,-161
15.731,15.68,2.02,1.46,0.24,0.07,1.12,2.42,-0.62,1.17,-1.02,768.00,1649.00,219.00,363.00,438.00,976.00,787.00,1136.00,,,,,,,,,,,,0,0,0,,-2668,15968,-3444,-17,150,-172
15.794,15.74,2.06,2.45,-0.26,6.53,-1.80,2.79,-1.16,0.52,-0.06,775.00,1607.00,228.00,304.00,448.00,976.00,756.00,1136.00,,,,,,,,,,,,0,0,0,,-2760,15884,-3444,10,129,-268
15.835,15.79,2.04,2.13,-0.11,2.50,-1.00,1.76,0.25,0.73,-0.03,773.00,1621.00,235.00,349.00,423.00,979.00,752.00,1126.00,,,,,,,,,,,,0,0,0,,-2772,15900,-3576,-104,38,-112
15.896,15.85,2.07,1.64,0.52,0.59,1.29,2.63,-0.35,1.14,-0.44,754.00,1625.00,215.00,354.00,430.00,961.00,763.00,1120.00,,,,,,,,,,,,0,0,0,,-2852,16000,-3304,-213,72,-71
15.978,15.90,2.12,2.37,-0.14,2.87,-0.24,3.12,-1.11,1.28,-0.75,771.00,1607.00,224.00,337.00,444.00,962.00,774.00,1123.00,,,,,,,,,,,,0,0,0,,-2780,15912,-3252,-120,142,-134
15.998,15.96,2.11,2.50,-0.54,4.18,-1.95,1.90,-0.19,0.40,-0.43,786.00,1616.00,240.00,335.00,432.00,985.00,773.00,1153.00,,,,,,,,,,,,0,0,0,,-2800,15964,-3380,0,219,-158
16.061,16.01,2.12,1.78,0.01,1.27,-0.03,2.29,-0.24,0.76,0.08,773.00,1638.00,228.00,357.00,430.00,971.00,747.00,1121.00,,,,,,,,,,,,0,0,0,,-2644,15784,-3540,86,196,-151
16.123,16.07,2.18,2.21,-0.11,1.74,0.99,3.37,-1.40,1.30,-1.27,772.00,1616.00,214.00,341.00,449.00,960.00,796.00,1138.00,,,,,,,,,,,,0,0,0,,-2668,15884,-3496,-14,125,-129
16.165,16.12,2.17,2.82,-1.04,4.68,-2.35,1.96,-0.21,-0.22,-0.01,803.00,1617.00,243.00,332.00,432.00,983.00,764.00,1168.00,,,,,,,,,,,,0,0,0,,-2716,15820,-3504,-82,68,-125
16.227,16.18,2.16,1.63,0.01,1.20,0.08,1.98,-0.00,0.75,-0.04,775.00,1648.00,227.00,357.00,427.00,977.00,752.00,1125.00,,,,,,,,,,,,0,0,0,,-2620,15892,-3420,-64,172,-70
16.289,16.23,2.18,1.55,0.43,0.89,1.27,2.60,-0.43,1.40,-0.96,759.00,1635.00,214.00,350.00,432.00,964.00,781.00,1124.00,,,,,,,,,,,,0,0,0,,-2608,15792,-3264,-95,321,-114
16.351,16.29,2.19,2.31,-0.41,4.01,-1.03,2.32,-0.59,0.19,-0.02,783.00,1622.00,229.00,329.00,438.00,979.00,759.00,1150.00,,,,,,,,,,,,0,0,0,,-2624,15920,-3576,-94,238,-140
16.413,16.34,2.17,2.25,-0.29,0.49,-0.00,1.77,0.16,1.11,-0.41,779.00,1621.00,231.00,368.00,425.00,981.00,762.00,1120.00,,,,,,,,,,,,0,0,0,,-2668,15856,-3392,-108,157,-115
16.496,16.40,2.20,1.80,0.49,1.06,1.13,2.72,-0.25,1.24,-0.25,753.00,1616.00,215.00,349.00,427.00,955.00,754.00,1110.00,,,,,,,,,,,,0,0,0,,-2560,15800,-3376,-43,121,-47
16.515,16.45,2.38,2.59,-0.24,3.14,-0.08,5.92,-1.97,2.25,-1.01,772.00,1597.00,221.00,332.00,442.00,881.00,771.00,1088.00,,,,,,,,,,,,0,0,0,,-2780,15956,-3332,-148,185,-107
16.576,16.51,2.37,2.78,-0.59,5.44,-2.45,2.16,-0.24,0.49,-0.05,784.00,1600.00,241.00,323.00,431.00,976.00,756.00,1137.00,,,,,,,,,,,,0,0,0,,-2556,15912,-3488,-142,223,-110
16.617,16.56,2.39,1.81,0.24,-0.55,2.55,2.79,-0.32,0.97,0.11,763.00,1626.00,205.00,358.00,428.00,954.00,743.00,1111.00,,,,,,,,,,,,0,0,0,,-2580,15888,-3396,10,78,-70
16.657,16.62,2.47,2.41,-0.06,1.86,1.47,3.91,-1.54,2.42,-1.49,767.00,1601.00,208.00,335.00,448.00,943.00,789.00,1095.00,,,,,,,,,,,,0,0,0,,-2680,15888,-3412,5,175,-108
16.739,16.67,2.48,3.23,-0.97,5.10,-1.72,2.66,-0.36,0.39,0.11,794.00,1588.00,233.00,321.00,430.00,960.00,751.00,1137.00,,,,,,,,,,,,0,0,0,,-2584,15808,-3412,-97,192,-112
16.781,16.73,2.48,2.33,-0.27,2.99,-0.52,2.50,-0.00,1.31,-0.15,777.00,1615.00,227.00,338.00,423.00,957.00,749.00,1104.00,,,,,,,,,,,,0,0,0,,-2572,15952,-3508,-69,118,-112
16.822,16.78,2.52,1.78,0.52,1.84,1.39,3.30,-0.75,1.66,-0.81,752.00,1616.00,209.00,336.00,434.00,946.00,771.00,1108.00,,,,,,,,,,,,0,0,0,,-2564,15808,-3220,-42,122,-124
16.884,16.84,2.53,2.66,-0.43,4.75,-1.20,2.61,-0.47,1.01,-0.15,779.00,1601.00,228.00,321.00,433.00,965.00,753.00,1117.00,,,,,,,,,,,,0,0,0,,-2600,15932,-3436,-127,179,-57
16.945,16.89,2.50,2.13,-0.25,3.94,-1.48,1.92,0.19,0.75,-0.24,779.00,1627.00,235.00,334.00,423.00,974.00,760.00,1131.00,,,,,,,,,,,,0,0,0,,-2524,15924,-3368,-84,192,-59
17.005,16.95,2.52,1.71,0.25,2.72,-0.68,2.94,-0.54,1.08,-0.32,764.00,1632.00,230.00,343.00,432.00,954.00,759.00,1119.00,,,,,,,,,,,,0,0,0,,-2620,15932,-3436,-96,111,-204
17.11,17.00,2.57,2.43,-0.06,3.11,-0.15,3.52,-1.20,2.20,-0.97,767.00,1600.00,222.00,333.00,443.00,949.00,770.00,1089.00,,,,,,,,,,,,0,0,0,,-2512,15840,-3448,-105,58,-142
17.129,17.06,2.57,2.86,-0.50,5.24,-2.15,2.60,-0.34,0.88,-0.25,779.00,1591.00,238.00,323.00,430.00,962.00,759.00,1126.00,,,,,,,,,,,,0,0,0,,-2560,15932,-3476,-14,102,-139
17.15,17.11,2.58,2.70,-0.54,1.86,0.27,2.79,0.07,1.62,-0.11,783.00,1603.00,222.00,346.00,419.00,944.00,743.00,1089.00,,,,,,,,,,,,0,0,0,,-2732,15996,-3360,-186,145,-209
17.213,17.17,2.68,2.71,-0.11,2.35,1.30,4.54,-1.71,2.90,-1.51,765.00,1584.00,208.00,330.00,447.00,924.00,783.00,1075.00,,,,,,,,,,,,0,0,0,,-2472,15872,-3544,-95,160,-125
17.275,17.22,2.71,3.30,-0.83,6.62,-2.77,3.27,-0.82,0.84,0.03,787.00,1578.00,240.00,311.00,436.00,949.00,748.00,1119.00,,,,,,,,,,,,0,0,0,,-2584,15888,-3544,-55,104,-134
17.316,17.28,2.72,2.41,-0.06,3.91,-0.42,3.04,-0.01,1.63,0.01,767.00,1601.00,222.00,325.00,419.00,937.00,738.00,1085.00,,,,,,,,,,,,0,0,0,,-2624,15940,-3436,-88,103,-142
17.377,17.33,2.78,2.40,0.24,2.45,1.27,3.92,-0.83,2.18,-0.93,755.00,1589.00,208.00,329.00,431.00,925.00,769.00,1089.00,,,,,,,,,,,,0,0,0,,-2632,15892,-3372,-97,134,-219
17.461,17.39,2.82,3.03,-0.31,5.01,-0.87,3.43,-0.71,1.37,-0.25,769.00,1573.00,223.00,315.00,432.00,940.00,752.00,1104.00,,,,,,,,,,,,0,0,0,,-2596,15876,-3464,-39,65,-163
17.502,17.44,2.80,2.49,-0.23,4.65,-1.16,2.55,0.15,1.24,-0.06,773.00,1603.00,228.00,322.00,419.00,951.00,746.00,1104.00,,,,,,,,,,,,0,0,0,,-2632,15892,-3324,-42,107,-149
17.585,17.50,2.83,1.80,0.54,2.15,0.93,3.32,-0.67,1.45,-0.30,751.00,1614.00,213.00,336.00,432.00,943.00,753.00,1102.00,,,,,,,,,,,,0,0,0,,-2564,15872,-3324,-107,184,-272
17.605,17.55,2.87,2.55,-0.35,2.74,0.74,3.70,-1.26,1.81,-0.83,777.00,1604.00,213.00,330.00,443.00,944.00,770.00,1102.00,,,,,,,,,,,,0,0,0,,-2624,15780,-3348,-92,86,-149
17.667,17.61,2.84,2.56,-0.63,5.44,-2.22,2.16,-0.24,0.44,-0.30,789.00,1616.00,238.00,321.00,431.00,976.00,767.00,1147.00,,,,,,,,,,,,0,0,0,,-2640,16064,-3484,-65,99,-170
17.749,17.66,2.84,1.85,0.23,2.48,-0.11,2.83,0.01,1.59,-0.20,763.00,1624.00,224.00,341.00,420.00,944.00,747.00,1093.00,,,,,,,,,,,,0,0,0,,-2684,15880,-3512,-85,125,-217
17.769,17.72,2.90,2.52,0.10,3.49,0.66,4.10,-1.06,3.21,-1.66,759.00,1587.00,211.00,321.00,435.00,924.00,785.00,1066.00,,,,,,,,,,,,0,0,0,,-2608,15800,-3348,-42,64,-101
17.852,17.77,2.93,3.42,-0.80,6.37,-2.54,3.50,-0.73,1.46,-0.28,784.00,1569.00,238.00,312.00,432.00,938.00,752.00,1101.00,,,,,,,,,,,,0,0,0,,-2620,15936,-3356,-91,132,-166
17.872,17.83,2.94,2.58,0.08,3.98,-0.53,3.12,0.23,2.09,-0.14,759.00,1584.00,223.00,325.00,413.00,928.00,738.00,1070.00,,,,,,,,,,,,0,0,0,,-2644,15940,-3376,-116,285,-225
17.935,17.88,3.00,2.46,0.29,3.02,1.35,4.16,-0.74,2.46,-0.76,752.00,1583.00,205.00,321.00,427.00,914.00,758.00,1072.00,,,,,,,,,,,,0,0,0,,-2572,15820,-3356,-4,155,-171
17.997,17.94,3.04,3.28,-0.40,5.36,-0.32,3.81,-0.84,1.74,-0.08,769.00,1561.00,215.00,306.00,432.00,929.00,740.00,1083.00,,,,,,,,,,,,0,0,0,,-2560,16012,-3356,-17,150,-77
18.059,17.99,3.03,2.82,-0.24,4.91,-1.09,2.78,0.21,1.94,-0.36,769.00,1583.00,226.00,318.00,416.00,941.00,749.00,1083.00,,,,,,,,,,,,0,0,0,,-2552,15976,-3480,-19,124,-210
18.1,18.05,3.04,2.14,0.55,2.62,1.48,3.24,-0.04,1.74,-0.25,746.00,1592.00,205.00,325.00,418.00,930.00,747.00,1088.00,,,,,,,,,,,,0,0,0,,-2560,15928,-3476,-18,55,-122
18.182,18.10,3.09,2.80,-0.26,3.44,0.50,4.11,-1.23,2.29,-0.92,770.00,1585.00,213.00,323.00,439.00,928.00,767.00,1084.00,,,,,,,,,,,,0,0,0,,-2568,15996,-3336,-10,70,-108
18.203,18.16,3.08,2.88,-0.62,6.48,-2.57,2.90,-0.44,0.74,-0.09,784.00,1595.00,238.00,311.00,430.00,953.00,754.00,1127.00,,,,,,,,,,,,0,0,0,,-2568,15832,-3504,-104,199,-171
18.264,18.21,3.07,1.96,0.09,2.31,0.03,2.88,-0.09,1.57,-0.17,767.00,1623.00,223.00,342.00,422.00,945.00,746.00,1093.00,,,,,,,,,,,,0,0,0,,-2588,15944,-3456,-149,122,-171
18.324,18.27,3.12,2.22,-0.02,2.22,1.62,3.92,-1.58,2.66,-1.71,768.00,1611.00,205.00,329.00,449.00,944.00,795.00,1091.00,,,,,,,,,,,,0,0,0,,-2648,15972,-3384,-92,68,-151
18.407,18.32,3.08,2.93,-0.94,5.72,-2.16,2.46,-0.34,0.41,0.08,797.00,1606.00,236.00,317.00,431.00,967.00,752.00,1137.00,,,,,,,,,,,,0,0,0,,-2516,16076,-3476,-64,158,-154
18.428,18.38,3.01,2.08,0.00,3.34,-0.15,1.59,1.33,1.70,-0.26,769.00,1619.00,221.00,330.00,400.00,957.00,748.00,1090.00,,,,,,,,,,,,0,0,0,,-2664,15848,-3356,-36,84,-231
18.469,18.43,3.05,2.17,0.39,3.23,0.92,3.85,-0.85,2.54,-0.98,752.00,1597.00,209.00,322.00,432.00,928.00,766.00,1075.00,,,,,,,,,,,,0,0,0,,-2580,15824,-3408,-41,22,-174
18.551,18.49,3.08,3.13,-0.28,4.33,-0.23,3.67,-0.79,1.96,-0.20,766.00,1565.00,218.00,318.00,432.00,933.00,742.00,1077.00,,,,,,,,,,,,0,0,0,,-2632,15940,-3432,-126,136,-164
18.612,18.54,3.08,2.82,-0.34,4.53,-0.88,2.96,0.10,2.02,-0.15,773.00,1587.00,225.00,321.00,417.00,937.00,739.00,1073.00,,,,,,,,,,,,0,0,0,,-2596,15948,-3264,-185,187,-167
18.654,18.60,3.08,2.20,0.52,2.30,0.71,3.21,-0.02,1.87,-0.09,746.00,1589.00,215.00,336.00,418.00,931.00,739.00,1078.00,,,,,,,,,,,,0,0,0,,-2768,16012,-3516,-17,128,-202
18.715,18.65,3.15,2.78,-0.21,3.34,0.53,4.47,-1.48,2.63,-1.01,768.00,1584.00,213.00,324.00,442.00,921.00,766.00,1072.00,,,,,,,,,,,,0,0,0,,-2592,15988,-3408,-59,124,-165
18.776,18.71,3.13,3.05,-0.61,5.82,-2.43,2.74,-0.09,1.30,-0.27,781.00,1584.00,239.00,318.00,423.00,950.00,754.00,1108.00,,,,,,,,,,,,0,0,0,,-2632,16008,-3456,-57,137,-221
18.838,18.76,3.13,2.16,0.03,2.12,0.43,3.02,-0.18,1.87,-0.09,767.00,1613.00,219.00,341.00,423.00,942.00,739.00,1078.00,,,,,,,,,,,,0,0,0,,-2568,15816,-3528,-11,86,-181
18.943,18.82,3.17,2.49,-0.01,2.13,1.29,4.08,-1.39,2.68,-1.46,764.00,1594.00,209.00,333.00,443.00,933.00,784.00,1083.00,,,,,,,,,,,,0,0,0,,-2632,15844,-3160,18,60,-152
18.963,18.87,3.16,3.15,-0.92,6.03,-2.50,2.97,-0.42,0.83,0.08,793.00,1591.00,239.00,316.00,429.00,950.00,746.00,1118.00,,,,,,,,,,,,0,0,0,,-2552,15896,-3340,-96,176,-168
18.984,18.93,3.11,2.37,-0.33,3.74,-0.86,2.21,0.31,1.65,-0.12,779.00,1615.00,228.00,331.00,418.00,960.00,743.00,1088.00,,,,,,,,,,,,0,0,0,,-2640,16000,-3508,-160,191,-144
19.045,18.98,3.13,1.78,0.47,1.74,1.42,3.51,-0.95,1.95,-0.93,754.00,1618.00,209.00,337.00,437.00,943.00,772.00,1099.00,,,,,,,,,,,,0,0,0,,-2608,15932,-3592,-117,97,-121
19.086,19.04,3.13,2.62,-0.44,4.10,0.10,3.04,-0.91,1.29,-0.29,780.00,1604.00,215.00,318.00,440.00,960.00,755.00,1109.00,,,,,,,,,,,,0,0,0,,-2524,15948,-3340,-39,131,-191
19.167,19.09,3.08,2.11,-0.34,3.62,-0.90,2.12,-0.14,1.29,-0.37,783.00,1632.00,229.00,333.00,429.00,975.00,758.00,1111.00,,,,,,,,,,,,0,0,0,,-2544,15952,-3588,-36,152,-146
19.187,19.15,3.08,1.58,0.49,2.26,0.22,3.05,-0.58,1.76,-0.38,756.00,1630.00,221.00,341.00,432.00,951.00,752.00,1091.00,,,,,,,,,,,,0,0,0,,-2580,15896,-3432,-53,69,-213
19.309,19.20,3.11,2.40,-0.03,2.55,0.46,3.66,-1.16,2.82,-1.29,766.00,1600.00,217.00,335.00,441.00,943.00,775.00,1072.00,,,,,,,,,,,,0,0,0,,-2612,15676,-3204,-86,52,-149
19.33,19.26,3.08,2.88,-0.65,5.17,-2.29,2.64,-0.44,0.99,-0.02,785.00,1596.00,240.00,325.00,432.00,963.00,748.00,1114.00,,,,,,,,,,,,0,0,0,,-2620,15984,-3332,-148,195,-168
19.37,19.31,3.08,2.08,0.08,1.41,0.50,3.07,-0.41,1.79,-0.02,766.00,1616.00,221.00,350.00,428.00,946.00,737.00,1079.00,,,,,,,,,,,,0,0,0,,-2656,15972,-3384,-113,240,-78
19.431,19.37,3.13,2.32,0.09,2.09,1.13,4.01,-1.37,2.97,-1.58,762.00,1600.00,211.00,335.00,443.00,935.00,785.00,1074.00,,,,,,,,,,,,0,0,0,,-2564,15856,-3428,6,99,-191
19.472,19.42,3.12,3.01,-0.69,5.58,-2.42,2.92,-0.62,0.91,0.03,785.00,1590.00,240.00,321.00,434.00,957.00,747.00,1116.00,,,,,,,,,,,,0,0,0,,-2684,15832,-3360,-98,109,-86
19.514,19.48,3.10,2.26,-0.08,3.04,-0.05,2.67,-0.02,2.21,-0.46,770.00,1611.00,221.00,333.00,422.00,951.00,749.00,1074.00,,,,,,,,,,,,0,0,0,,-2560,15880,-3400,-82,87,-199
19.576,19.53,3.10,1.98,0.45,1.84,1.39,3.21,-0.50,2.14,-0.80,752.00,1606.00,209.00,336.00,429.00,943.00,764.00,1087.00,,,,,,,,,,,,0,0,0,,-2668,15912,-3368,-134,39,-176
19.679,19.59,3.11,2.74,-0.48,4.40,-0.92,3.31,-0.96,1.54,-0.33,780.00,1598.00,226.00,323.00,439.00,951.00,753.00,1099.00,,,,,,,,,,,,0,0,0,,-2588,16032,-3220,3,14,-113
19.7,19.64,3.08,2.42,-0.46,3.39,-0.90,2.49,-0.26,1.37,-0.25,784.00,1618.00,230.00,336.00,429.00,964.00,752.00,1104.00,,,,,,,,,,,,0,0,0,,-2608,15940,-3300,-101,261,-196
19.742,19.70,3.05,1.52,0.29,1.48,0.39,2.54,-0.41,1.37,-0.25,765.00,1643.00,222.00,350.00,432.00,966.00,752.00,1104.00,,,,,,,,,,,,0,0,0,,-2556,15928,-3516,-59,281,-273
19.803,19.75,3.09,2.09,-0.28,1.85,0.61,3.79,-2.07,2.05,-1.25,781.00,1631.00,218.00,343.00,462.00,961.00,784.00,1104.00,,,,,,,,,,,,0,0,0,,-2704,15876,-3452,-106,147,-113
19.864,19.81,3.04,2.58,-1.26,4.08,-1.92,2.11,-0.73,0.31,-0.21,816.00,1642.00,240.00,336.00,443.00,991.00,765.00,1150.00,,,,,,,,,,,,0,0,0,,-2596,15820,-3308,-72,205,-36
19.925,19.86,2.99,1.38,-0.12,0.42,0.10,2.00,-0.22,1.33,-0.62,784.00,1670.00,230.00,368.00,432.00,982.00,768.00,1117.00,,,,,,,,,,,,0,0,0,,-2588,15944,-3388,61,186,-271
19.966,19.92,3.01,1.84,0.04,0.10,2.97,3.37,-1.44,2.56,-1.49,771.00,1633.00,198.00,345.00,450.00,961.00,787.00,1089.00,,,,,,,,,,,,0,0,0,,-2544,15948,-3524,-8,115,-228
20.028,19.97,2.98,2.84,-0.84,4.67,-2.12,2.52,-0.57,1.12,-0.12,794.00,1607.00,240.00,330.00,436.00,971.00,750.00,1111.00,,,,,,,,,,,,0,0,0,,-2620,15852,-3296,134,168,-220
20.089,20.03,2.96,2.06,-0.04,2.51,-0.36,2.51,-0.14,1.97,-0.37,771.00,1622.00,227.00,343.00,426.00,960.00,749.00,1082.00,,,,,,,,,,,,0,0,0,,-2660,15988,-3508,-17,222,-267
20.152,20.08,2.97,1.72,0.49,0.98,1.24,3.22,-0.64,2.26,-0.91,754.00,1621.00,214.00,349.00,432.00,946.00,767.00,1085.00,,,,,,,,,,,,0,0,0,,-2668,16008,-3616,-49,202,-277
20.192,20.14,2.99,2.72,-0.52,3.38,-0.65,3.29,-1.29,1.64,-0.34,782.00,1601.00,227.00,334.00,447.00,960.00,752.00,1095.00,,,,,,,,,,,,0,0,0,,-2672,16064,-3332,30,130,-146
20.253,20.19,2.95,2.25,-0.34,3.75,-1.65,2.22,-0.21,1.62,-0.31,781.00,1623.00,238.00,338.00,430.00,973.00,751.00,1095.00,,,,,,,,,,,,0,0,0,,-2604,15784,-3436,-10,149,-208
20.315,20.25,2.93,1.61,0.36,0.74,0.64,2.54,-0.41,1.33,-0.26,761.00,1634.00,222.00,358.00,432.00,966.00,753.00,1106.00,,,,,,,,,,,,0,0,0,,-2636,15792,-3480,38,184,-239
20.399,20.30,2.96,2.07,-0.30,1.54,0.62,3.51,-1.57,2.48,-1.27,782.00,1633.00,219.00,347.00,452.00,959.00,779.00,1086.00,,,,,,,,,,,,0,0,0,,-2640,15788,-3512,6,47,-160
20.42,20.36,2.92,3.29,-2.14,3.50,-2.25,2.24,-0.77,0.58,-0.37,845.00,1635.00,247.00,347.00,443.00,987.00,768.00,1143.00,,,,,,,,,,,,0,0,0,,-2672,15888,-3364,-1,11,-175
20.482,20.41,2.88,1.28,0.04,-1.87,0.55,2.02,-0.10,1.19,-0.19,779.00,1670.00,234.00,398.00,429.00,978.00,752.00,1110.00,,,,,,,,,,,,0,0,0,,-2712,15968,-3504,-14,151,-283
20.543,20.47,2.90,1.59,-0.02,0.54,0.63,3.32,-1.83,2.33,-1.76,777.00,1652.00,223.00,361.00,460.00,973.00,802.00,1107.00,,,,,,,,,,,,0,0,0,,-2760,15920,-3600,-149,28,-232
20.584,20.52,2.86,2.14,-0.75,3.61,-1.99,2.07,-0.63,0.17,0.03,800.00,1648.00,243.00,343.00,441.00,990.00,757.00,1149.00,,,,,,,,,,,,0,0,0,,-2696,15708,-3304,-195,142,-79
20.645,20.58,2.81,1.42,-0.15,1.06,-0.75,1.86,-0.18,1.60,-1.03,785.00,1669.00,238.00,367.00,432.00,986.00,781.00,1117.00,,,,,,,,,,,,0,0,0,,-2644,15948,-3492,-168,118,-166
20.707,20.63,2.81,1.40,0.33,0.07,1.12,2.91,-1.00,2.00,-0.97,765.00,1649.00,219.00,363.00,443.00,967.00,773.00,1098.00,,,,,,,,,,,,0,0,0,,-2788,15948,-3440,-191,85,-156
20.769,20.69,2.81,2.21,-0.13,3.17,-0.91,2.82,-1.17,1.37,-0.25,773.00,1617.00,231.00,339.00,448.00,975.00,752.00,1104.00,,,,,,,,,,,,0,0,0,,-2712,15848,-3436,-138,44,-91
20.789,20.74,2.77,2.01,-0.33,2.10,-1.25,1.94,-0.33,1.44,-0.34,784.00,1638.00,240.00,357.00,435.00,987.00,755.00,1104.00,,,,,,,,,,,,0,0,0,,-2700,15848,-3392,-221,146,-254
20.851,20.80,2.76,1.42,0.32,0.11,0.44,2.48,-0.51,1.11,-0.23,765.00,1648.00,227.00,369.00,435.00,971.00,755.00,1115.00,,,,,,,,,,,,0,0,0,,-2728,15956,-3464,-204,88,-123
20.892,20.85,2.77,1.97,-0.29,1.80,-0.61,3.07,-1.50,2.38,-1.43,783.00,1639.00,233.00,355.00,454.00,974.00,787.00,1095.00,,,,,,,,,,,,0,0,0,,-2732,15880,-3216,-108,123,-137
20.954,20.91,2.74,2.30,-0.85,2.97,-2.23,2.07,-0.67,0.76,-0.41,802.00,1642.00,249.00,354.00,442.00,991.00,767.00,1136.00,,,,,,,,,,,,0,0,0,,-2820,15884,-3532,-131,207,-107
21.015,20.96,2.70,1.54,-0.17,-0.15,0.13,2.07,-0.29,1.38,-0.23,784.00,1662.00,232.00,376.00,433.00,981.00,751.00,1103.00,,,,,,,,,,,,0,0,0,,-2612,15920,-3332,-113,225,-128
21.075,21.02,2.72,1.67,-0.10,0.36,0.69,3.07,-1.46,2.42,-1.77,779.00,1650.00,223.00,363.00,453.00,973.00,801.00,1103.00,,,,,,,,,,,,0,0,0,,-2780,15912,-3408,-57,168,-95
21.137,21.07,2.69,2.14,-0.75,3.12,-2.13,2.11,-0.73,0.60,-0.21,800.00,1648.00,247.00,351.00,443.00,991.00,761.00,1137.00,,,,,,,,,,,,0,0,0,,-2644,15844,-3412,-68,195,-89
21.2,21.13,2.64,1.29,-0.16,1.02,-0.89,1.63,-0.10,1.31,-0.40,787.00,1678.00,240.00,369.00,432.00,993.00,759.00,1111.00,,,,,,,,,,,,0,0,0,,-2680,15944,-3332,-207,198,-71
21.22,21.18,2.63,1.09,0.29,0.34,0.20,2.44,-0.84,1.15,-0.83,771.00,1671.00,229.00,368.00,443.00,981.00,779.00,1131.00,,,,,,,,,,,,0,0,0,,-2656,15976,-3364,-173,118,-96
21.283,21.24,2.60,1.98,-0.67,1.55,-1.07,2.17,-1.12,0.52,-0.35,799.00,1655.00,240.00,363.00,452.00,999.00,768.00,1145.00,,,,,,,,,,,,0,0,0,,-2512,15776,-3260,-67,147,-20
21.345,21.29,2.53,1.55,-0.66,1.64,-1.70,1.03,-0.03,0.36,-0.35,805.00,1683.00,248.00,368.00,435.00,1015.00,770.00,1152.00,,,,,,,,,,,,0,0,0,,-2424,15828,-3364,-130,191,-192
21.386,21.35,2.49,1.16,-0.02,-0.37,-0.42,1.76,-0.40,1.14,-0.77,783.00,1680.00,240.00,385.00,438.00,996.00,777.00,1130.00,,,,,,,,,,,,0,0,0,,-2532,15980,-3348,-120,96,-285
21.489,21.40,2.52,1.75,-0.24,0.76,-0.41,3.18,-1.82,5.32,-2.65,784.00,1651.00,235.00,368.00,461.00,978.00,797.00,1007.00,,,,,,,,,,,,0,0,0,,-2620,15824,-3224,32,106,-79
21.509,21.46,2.48,2.24,-0.89,2.84,-2.77,1.71,-0.55,0.43,-0.15,805.00,1648.00,257.00,361.00,442.00,1002.00,761.00,1143.00,,,,,,,,,,,,0,0,0,,-2560,15944,-3380,-195,170,-162
21.571,21.51,2.45,1.32,-0.02,-0.20,-0.48,1.92,-0.07,1.48,-0.21,781.00,1670.00,240.00,383.00,429.00,981.00,749.00,1098.00,,,,,,,,,,,,0,0,0,,-2616,15960,-3316,-125,224,-159
21.613,21.57,2.48,1.61,-0.05,0.20,0.41,2.93,-1.33,2.29,-1.61,778.00,1652.00,227.00,368.00,451.00,975.00,796.00,1104.00,,,,,,,,,,,,0,0,0,,-2640,15912,-3280,-52,112,-114
21.674,21.62,2.48,2.22,-0.75,2.19,-1.28,2.48,-0.98,0.70,-0.12,799.00,1643.00,240.00,356.00,446.00,983.00,756.00,1130.00,,,,,,,,,,,,0,0,0,,-2552,15968,-3332,-20,173,-134
21.715,21.68,2.42,1.58,-0.23,1.11,-0.92,1.38,0.20,1.31,-0.23,786.00,1662.00,240.00,368.00,427.00,995.00,752.00,1106.00,,,,,,,,,,,,0,0,0,,-2560,16060,-3424,-69,174,-209
21.777,21.73,2.44,1.12,0.47,-0.70,1.05,2.68,-1.00,1.68,-0.91,763.00,1661.00,223.00,375.00,445.00,976.00,775.00,1110.00,,,,,,,,,,,,0,0,0,,-2644,15896,-3356,20,58,-151
21.902,21.79,2.43,1.83,-0.29,1.06,-0.75,2.26,-0.98,0.84,-0.34,785.00,1648.00,238.00,367.00,448.00,992.00,763.00,1130.00,,,,,,,,,,,,0,0,0,,-2648,15880,-3316,-84,133,-126
21.923,21.84,2.38,1.51,-0.37,1.90,-2.09,1.59,-0.59,0.64,-0.46,793.00,1673.00,252.00,368.00,444.00,1008.00,771.00,1143.00,,,,,,,,,,,,0,0,0,,-2500,16036,-3364,-160,192,-143
21.964,21.90,2.35,1.00,-0.08,-0.66,-0.09,1.73,-0.81,0.50,-0.22,788.00,1694.00,237.00,386.00,448.00,1008.00,763.00,1142.00,,,,,,,,,,,,0,0,0,,-2624,15824,-3528,-204,116,-166
22.006,21.95,2.36,1.11,-0.05,0.57,-0.43,2.50,-1.83,1.78,-1.76,785.00,1685.00,236.00,371.00,467.00,1005.00,810.00,1131.00,,,,,,,,,,,,0,0,0,,-2680,15816,-3124,-33,103,-100
22.069,22.01,2.29,1.64,-0.94,1.97,-2.40,0.90,-0.57,-0.31,-0.31,816.00,1690.00,256.00,370.00,449.00,1035.00,778.00,1182.00,,,,,,,,,,,,0,0,0,,-2632,16072,-3352,-54,104,-200
22.131,22.06,2.25,0.92,-0.01,-0.81,-0.35,1.56,-0.33,1.14,-0.42,786.00,1696.00,241.00,391.00,438.00,1002.00,762.00,1119.00,,,,,,,,,,,,0,0,0,,-2572,15900,-3328,-125,80,-153
22.173,22.12,2.27,1.60,-0.17,-0.26,0.90,2.71,-1.42,2.25,-1.55,783.00,1658.00,223.00,370.00,455.00,986.00,794.00,1104.00,,,,,,,,,,,,0,0,0,,-2716,15896,-3116,-72,114,-155
22.253,22.17,2.27,1.91,-0.34,1.06,-1.06,2.23,-1.06,0.80,-0.10,786.00,1645.00,242.00,370.00,450.00,995.00,754.00,1125.00,,,,,,,,,,,,0,0,0,,-2568,16012,-3288,-132,165,-135
22.274,22.23,2.24,2.46,-0.55,0.36,-0.82,1.74,-0.18,1.57,-0.44,787.00,1619.00,242.00,378.00,433.00,991.00,757.00,1101.00,,,,,,,,,,,,0,0,0,,-2520,16036,-3312,-141,204,-162
22.335,22.28,2.25,1.10,0.43,-1.02,0.82,2.37,-0.81,1.74,-0.93,765.00,1664.00,227.00,382.00,443.00,983.00,775.00,1108.00,,,,,,,,,,,,0,0,0,,-2672,15880,-3256,87,128,-168
22.376,22.34,2.25,1.91,-0.34,1.37,-0.70,2.29,-1.04,1.32,-0.64,786.00,1645.00,236.00,362.00,449.00,992.00,769.00,1118.00,,,,,,,,,,,,0,0,0,,-2560,15904,-3336,-61,167,-122
22.439,22.39,2.22,1.74,-0.50,1.77,-1.89,1.65,-0.61,0.76,-0.41,795.00,1663.00,250.00,368.00,444.00,1006.00,767.00,1136.00,,,,,,,,,,,,0,0,0,,-2584,15932,-3300,-30,144,-226
22.5,22.45,2.19,1.24,-0.07,-0.46,-0.39,1.57,-0.46,0.71,-0.17,784.00,1677.00,240.00,386.00,441.00,1005.00,758.00,1131.00,,,,,,,,,,,,0,0,0,,-2744,15892,-3444,32,34,-154
22.542,22.50,2.21,1.44,-0.14,0.59,-0.36,2.59,-1.74,1.96,-1.66,784.00,1667.00,235.00,370.00,464.00,999.00,803.00,1120.00,,,,,,,,,,,,0,0,0,,-2592,15876,-3172,23,104,-124
22.604,22.56,2.16,1.83,-0.96,2.15,-2.46,1.21,-0.59,-0.19,-0.11,814.00,1678.00,256.00,368.00,447.00,1023.00,768.00,1170.00,,,,,,,,,,,,0,0,0,,-2696,15944,-3284,-157,219,-162
22.666,22.61,2.11,0.69,-0.03,-1.42,0.16,1.15,-0.28,0.75,-0.43,790.00,1712.00,237.00,395.00,440.00,1017.00,768.00,1137.00,,,,,,,,,,,,0,0,0,,-2628,15964,-3424,-52,112,-124
22.707,22.67,2.11,0.97,0.05,-0.65,0.38,2.13,-1.39,1.51,-1.55,783.00,1690.00,231.00,381.00,459.00,1008.00,805.00,1137.00,,,,,,,,,,,,0,0,0,,-2576,15812,-3324,-75,149,-42
22.77,22.72,2.08,1.45,-0.51,2.06,-2.43,1.43,-0.91,0.06,-0.22,800.00,1683.00,256.00,369.00,453.00,1023.00,769.00,1162.00,,,,,,,,,,,,0,0,0,,-2556,16044,-3380,-45,160,-277
22.832,22.78,2.03,1.23,-0.23,0.31,-1.33,1.11,-0.22,1.14,-0.51,791.00,1685.00,249.00,384.00,439.00,1017.00,766.00,1122.00,,,,,,,,,,,,0,0,0,,-2508,15916,-3288,-108,22,-157
22.873,22.83,2.04,1.02,0.43,-1.55,1.42,2.25,-0.94,1.49,-0.73,766.00,1669.00,222.00,384.00,447.00,991.00,770.00,1113.00,,,,,,,,,,,,0,0,0,,-2612,15896,-3300,9,40,-134
22.956,22.89,2.05,1.83,-0.29,0.97,-0.72,2.21,-1.21,1.54,-0.86,785.00,1648.00,238.00,368.00,454.00,1000.00,775.00,1115.00,,,,,,,,,,,,0,0,0,,-2668,16064,-3328,-118,173,-163
22.997,22.94,2.05,1.50,-0.32,1.63,-2.00,2.14,-1.63,0.83,-0.74,791.00,1671.00,252.00,371.00,465.00,1014.00,780.00,1143.00,,,,,,,,,,,,0,0,0,,-2640,15952,-3348,-62,203,-143
23.058,23.00,2.02,1.11,-0.00,-0.37,-0.42,1.45,-0.21,0.64,-0.08,783.00,1683.00,240.00,385.00,436.00,1003.00,755.00,1131.00,,,,,,,,,,,,0,0,0,,-2600,15960,-3288,26,147,-104
23.1,23.05,2.05,1.54,-0.22,0.66,-0.77,2.48,-1.51,2.10,-1.66,786.00,1664.00,240.00,373.00,459.00,997.00,801.00,1114.00,,,,,,,,,,,,0,0,0,,-2680,15968,-3380,-15,180,-141
23.162,23.11,2.01,1.99,-1.01,2.39,-2.62,1.34,-0.63,0.05,-0.24,814.00,1670.00,257.00,366.00,447.00,1019.00,770.00,1163.00,,,,,,,,,,,,0,0,0,,-2632,15892,-3536,-16,107,-229
23.224,23.16,1.97,0.84,-0.03,-0.80,-0.28,1.23,-0.18,0.73,-0.20,788.00,1702.00,240.00,390.00,437.00,1011.00,759.00,1131.00,,,,,,,,,,,,0,0,0,,-2752,15940,-3300,-31,52,-125
23.286,23.22,1.98,1.14,0.01,-0.10,0.35,2.11,-1.14,1.23,-1.21,782.00,1680.00,229.00,373.00,453.00,1002.00,794.00,1139.00,,,,,,,,,,,,0,0,0,,-2588,15928,-3452,-31,131,-144
23.347,23.27,1.96,1.65,-0.49,1.46,-1.04,1.56,-0.95,-0.26,0.25,796.00,1669.00,240.00,364.00,453.00,1019.00,754.00,1162.00,,,,,,,,,,,,0,0,0,,-2628,15880,-3404,-111,164,-194
23.368,23.33,1.91,1.16,-0.35,0.87,-1.07,1.07,-0.38,0.34,-0.31,797.00,1695.00,243.00,373.00,443.00,1023.00,769.00,1152.00,,,,,,,,,,,,0,0,0,,-2664,15904,-3416,-93,174,-85
23.429,23.38,1.89,1.08,0.10,-1.53,1.00,1.51,-0.73,0.65,-0.80,779.00,1680.00,227.00,388.00,448.00,1015.00,785.00,1153.00,,,,,,,,,,,,0,0,0,,-2596,15768,-3388,-37,147,-129
23.489,23.44,1.89,1.10,-0.33,1.02,-0.89,1.90,-1.31,0.79,-0.94,797.00,1698.00,240.00,369.00,459.00,1015.00,789.00,1151.00,,,,,,,,,,,,0,0,0,,-2592,15996,-3516,-59,78,-185
23.55,23.49,1.87,1.32,-0.54,1.89,-2.37,1.36,-0.80,0.52,-0.61,803.00,1693.00,256.00,371.00,451.00,1023.00,779.00,1153.00,,,,,,,,,,,,0,0,0,,-2536,15904,-3348,-92,59,-114
23.591,23.55,1.85,1.02,-0.14,-0.54,-0.36,1.46,-0.55,0.90,-0.19,790.00,1695.00,240.00,387.00,444.00,1012.00,756.00,1123.00,,,,,,,,,,,,0,0,0,,-2536,15824,-3284,-47,96,-127
23.651,23.60,1.88,1.38,-0.12,0.44,-0.54,2.50,-1.71,2.11,-1.78,784.00,1670.00,238.00,374.00,464.00,1002.00,806.00,1117.00,,,,,,,,,,,,0,0,0,,-2676,16056,-3440,-143,183,-145
23.712,23.66,1.80,2.13,-1.11,2.37,-2.17,0.27,0.40,-0.22,0.07,816.00,1665.00,251.00,362.00,431.00,1034.00,761.00,1166.00,,,,,,,,,,,,0,0,0,,-2496,15840,-3372,-59,215,-155
23.754,23.71,1.77,0.86,-0.08,-0.24,-0.62,1.26,-0.19,0.77,-0.19,790.00,1703.00,242.00,385.00,437.00,1010.00,758.00,1129.00,,,,,,,,,,,,0,0,0,,-2460,15892,-3408,-36,119,-99
23.814,23.77,1.78,0.57,0.90,-0.69,0.63,2.04,-1.12,1.33,-1.12,753.00,1678.00,228.00,379.00,453.00,1004.00,789.00,1132.00,,,,,,,,,,,,0,0,0,,-2476,15960,-3364,-77,164,-111
23.876,23.82,1.78,1.70,-0.51,2.30,-1.55,1.61,-0.89,0.28,-0.22,796.00,1666.00,243.00,357.00,451.00,1015.00,766.00,1152.00,,,,,,,,,,,,0,0,0,,-2572,15924,-3400,-83,119,-222
23.938,23.88,1.74,1.54,-0.91,1.04,-1.43,1.03,-0.32,0.37,-0.13,816.00,1695.00,247.00,374.00,442.00,1023.00,761.00,1145.00,,,,,,,,,,,,0,0,0,,-2608,15940,-3428,11,11,-120
23.98,23.93,1.73,0.63,0.37,-0.60,0.20,1.48,-0.76,0.72,-0.59,774.00,1698.00,233.00,382.00,449.00,1017.00,775.00,1143.00,,,,,,,,,,,,0,0,0,,-2640,15892,-3204,50,134,-166
24.062,23.99,1.72,1.27,-0.29,0.50,-0.33,1.71,-1.33,0.63,-0.77,793.00,1685.00,235.00,371.00,461.00,1023.00,784.00,1153.00,,,,,,,,,,,,0,0,0,,-2588,15928,-3360,-28,243,-161
24.082,24.04,1.65,1.21,-0.73,1.51,-1.51,0.29,-0.77,-0.70,-0.28,813.00,1709.00,246.00,368.00,459.00,1066.00,782.00,1199.00,,,,,,,,,,,,0,0,0,,-2684,16040,-3448,-82,118,-110
24.185,24.10,1.59,0.37,-0.01,-0.61,-0.26,0.41,-0.77,-0.51,0.04,794.00,1733.00,239.00,387.00,458.00,1061.00,766.00,1180.00,,,,,,,,,,,,0,0,0,,-2580,15880,-3216,-70,184,-62
24.205,24.15,1.58,0.64,-0.10,-0.27,0.41,1.33,-1.98,1.01,-1.73,794.00,1719.00,229.00,375.00,481.00,1057.00,820.00,1165.00,,,,,,,,,,,,0,0,0,,-2644,15988,-3580,-67,138,-237
24.266,24.21,1.52,1.58,-0.92,2.20,-1.82,0.36,-1.07,-0.68,-0.02,816.00,1693.00,247.00,361.00,466.00,1072.00,771.00,1190.00,,,,,,,,,,,,0,0,0,,-2516,15908,-3488,-92,39,-140
24.307,24.26,1.45,0.69,0.05,0.10,-0.03,0.13,-0.39,0.58,-0.44,787.00,1709.00,233.00,374.00,451.00,1062.00,771.00,1145.00,,,,,,,,,,,,0,0,0,,-2652,15976,-3360,-22,110,-119
24.389,24.32,1.43,0.83,0.14,-0.41,1.62,1.09,-1.24,1.13,-1.05,781.00,1695.00,215.00,365.00,464.00,1046.00,789.00,1139.00,,,,,,,,,,,,0,0,0,,-2632,15880,-3280,-105,191,-233
24.472,24.37,1.40,1.37,-0.32,3.18,-0.59,0.81,-1.50,-0.20,-0.04,793.00,1680.00,227.00,336.00,473.00,1065.00,765.00,1168.00,,,,,,,,,,,,0,0,0,,-2668,15944,-3388,-78,238,-135
24.492,24.43,1.33,0.77,-0.07,2.01,-0.60,0.03,-0.76,0.07,-0.27,791.00,1709.00,232.00,352.00,461.00,1077.00,771.00,1163.00,,,,,,,,,,,,0,0,0,,-2548,15904,-3272,-19,141,-120
24.533,24.48,1.28,0.34,0.50,-0.98,2.16,0.31,-0.94,0.20,-0.63,773.00,1712.00,211.00,368.00,463.00,1070.00,784.00,1168.00,,,,,,,,,,,,0,0,0,,-2672,15984,-3480,-120,188,-209
24.574,24.54,1.28,0.10,-0.04,-0.37,0.85,1.20,-1.90,0.71,-1.38,799.00,1753.00,224.00,372.00,480.00,1060.00,809.00,1168.00,,,,,,,,,,,,0,0,0,,-2644,15820,-3488,-101,107,-249
24.636,24.59,1.22,1.33,-0.75,2.02,-1.76,0.22,-0.86,-0.52,-0.94,812.00,1702.00,247.00,363.00,462.00,1072.00,808.00,1212.00,,,,,,,,,,,,0,0,0,,-2660,15888,-3588,-62,66,-123
24.697,24.65,1.20,0.53,-0.13,-0.71,-0.31,0.72,-0.59,-0.10,-0.52,797.00,1728.00,240.00,389.00,451.00,1043.00,784.00,1179.00,,,,,,,,,,,,0,0,0,,-2624,15856,-3360,-106,157,-145
24.758,24.70,1.21,0.81,-0.16,-0.33,0.59,1.44,-1.35,1.11,-1.96,794.00,1710.00,227.00,374.00,464.00,1035.00,829.00,1168.00,,,,,,,,,,,,0,0,0,,-2576,15960,-3452,-206,168,-143
24.841,24.76,1.19,1.22,-0.80,2.02,-2.27,0.84,-1.15,-0.81,-0.35,816.00,1712.00,254.00,368.00,464.00,1054.00,787.00,1207.00,,,,,,,,,,,,0,0,0,,-2524,15812,-3260,-215,112,-119
24.861,24.81,1.16,0.57,-0.24,1.95,-3.85,0.61,-0.43,-0.02,-0.62,801.00,1730.00,277.00,385.00,448.00,1043.00,787.00,1178.00,,,,,,,,,,,,0,0,0,,-2612,15796,-3140,-156,123,-83
24.925,24.87,1.17,0.32,0.22,-0.34,0.52,1.32,-1.08,0.30,-1.05,785.00,1726.00,228.00,375.00,458.00,1032.00,801.00,1177.00,,,,,,,,,,,,0,0,0,,-2584,15948,-3432,-199,37,-203
24.965,24.92,1.20,1.39,-0.38,1.31,-0.91,1.82,-1.48,0.17,-0.62,795.00,1681.00,239.00,365.00,464.00,1023.00,784.00,1169.00,,,,,,,,,,,,0,0,0,,-2640,15916,-3296,-143,48,-122
25.026,24.98,1.19,1.06,-0.24,1.64,-1.70,0.88,-0.10,0.36,-0.44,794.00,1697.00,248.00,368.00,438.00,1023.00,774.00,1155.00,,,,,,,,,,,,0,0,0,,-2584,15984,-3236,-55,104,-116
25.088,25.03,1.20,0.16,0.68,-0.45,0.88,1.47,-0.68,0.48,-0.55,768.00,1716.00,224.00,373.00,447.00,1015.00,777.00,1153.00,,,,,,,,,,,,0,0,0,,-2676,16040,-3328,-191,176,-184
25.17,25.09,1.26,1.69,-0.22,0.38,0.35,2.40,-1.68,1.22,-1.39,784.00,1654.00,227.00,366.00,464.00,1005.00,802.00,1145.00,,,,,,,,,,,,0,0,0,,-2484,15976,-3256,-49,214,-163
25.192,25.14,1.26,1.59,-0.72,2.77,-2.45,1.25,-0.64,-0.23,-0.43,807.00,1683.00,253.00,359.00,448.00,1023.00,782.00,1182.00,,,,,,,,,,,,0,0,0,,-2540,15752,-3252,21,153,-87
25.253,25.20,1.26,0.55,0.19,-0.12,-0.51,1.24,-0.27,0.55,-0.46,783.00,1712.00,240.00,382.00,439.00,1013.00,772.00,1147.00,,,,,,,,,,,,0,0,0,,-2432,15968,-3336,-103,162,-143
25.294,25.25,1.33,1.18,-0.05,0.11,0.86,2.65,-1.64,1.58,-1.78,784.00,1680.00,222.00,365.00,461.00,994.00,814.00,1141.00,,,,,,,,,,,,0,0,0,,-2488,16008,-3276,-36,75,-218
25.356,25.31,1.34,1.63,-0.71,3.43,-2.16,1.51,-0.82,-0.06,-0.30,806.00,1680.00,246.00,347.00,450.00,1017.00,774.00,1170.00,,,,,,,,,,,,0,0,0,,-2524,15968,-3232,83,10,-153
25.438,25.36,1.32,1.01,-0.06,1.31,-0.91,1.06,0.01,0.42,-0.37,787.00,1692.00,239.00,365.00,434.00,1013.00,770.00,1150.00,,,,,,,,,,,,0,0,0,,-2672,15840,-3348,-42,162,-181
25.479,25.42,1.37,0.60,0.50,-1.00,1.48,2.27,-1.23,0.80,-0.99,769.00,1694.00,219.00,375.00,454.00,998.00,791.00,1152.00,,,,,,,,,,,,0,0,0,,-2628,15852,-3284,-150,167,-161
25.542,25.47,1.40,1.39,-0.35,2.05,-0.13,1.88,-1.06,0.10,-0.47,794.00,1680.00,226.00,347.00,453.00,1009.00,779.00,1168.00,,,,,,,,,,,,0,0,0,,-2528,15892,-3312,-115,124,-160
25.562,25.53,1.37,0.94,-0.20,1.44,-1.11,0.92,-0.16,-0.05,-0.54,794.00,1703.00,241.00,365.00,439.00,1023.00,784.00,1177.00,,,,,,,,,,,,0,0,0,,-2580,15800,-3252,-52,143,-206
25.626,25.58,1.37,0.49,0.23,-0.88,0.61,1.28,-0.36,-0.23,-0.43,782.00,1714.00,229.00,382.00,441.00,1014.00,782.00,1182.00,,,,,,,,,,,,0,0,0,,-2536,16028,-3292,-49,131,-210
25.686,25.64,1.42,1.21,-0.22,0.34,0.20,2.33,-1.62,0.94,-1.13,791.00,1686.00,229.00,368.00,463.00,1006.00,795.00,1150.00,,,,,,,,,,,,0,0,0,,-2588,15836,-3276,-42,48,-156
25.749,25.69,1.43,1.85,-0.74,3.17,-2.51,1.73,-0.81,-0.11,-0.26,804.00,1667.00,252.00,354.00,448.00,1008.00,773.00,1171.00,,,,,,,,,,,,0,0,0,,-2608,15844,-3276,-10,34,-167
25.81,25.75,1.44,0.87,0.20,0.36,-0.12,1.54,-0.11,0.57,-0.10,778.00,1690.00,233.00,371.00,433.00,997.00,757.00,1135.00,,,,,,,,,,,,0,0,0,,-2656,16008,-3304,-85,241,-147
25.851,25.80,1.51,1.13,0.33,0.61,1.37,2.80,-1.37,1.85,-1.55,769.00,1667.00,214.00,353.00,453.00,981.00,800.00,1122.00,,,,,,,,,,,,0,0,0,,-2600,15904,-3340,-128,254,-182
25.913,25.86,1.54,1.94,-0.54,3.16,-1.22,2.29,-0.95,0.22,-0.11,794.00,1652.00,235.00,342.00,447.00,990.00,762.00,1151.00,,,,,,,,,,,,0,0,0,,-2568,15836,-3256,21,107,-174
25.954,25.91,1.55,1.32,0.02,1.92,-0.88,1.74,-0.18,0.84,-0.34,779.00,1668.00,236.00,356.00,433.00,991.00,763.00,1130.00,,,,,,,,,,,,0,0,0,,-2512,15956,-3240,-12,155,-126
26.015,25.97,1.60,0.80,0.63,-0.58,1.76,2.46,-0.72,1.08,-0.68,761.00,1675.00,214.00,366.00,440.00,977.00,774.00,1130.00,,,,,,,,,,,,0,0,0,,-2524,16000,-3424,-74,92,-228
26.076,26.02,1.65,1.75,-0.24,3.10,-0.80,2.66,-1.24,1.01,-0.78,784.00,1651.00,230.00,339.00,451.00,983.00,779.00,1136.00,,,,,,,,,,,,0,0,0,,-2564,15960,-3380,13,-14,-155
26.137,26.08,1.66,1.34,-0.17,2.92,-1.83,1.74,-0.56,0.38,-0.38,787.00,1675.00,244.00,351.00,442.00,1001.00,771.00,1152.00,,,,,,,,,,,,0,0,0,,-2644,15824,-3216,10,121,-154
26.179,26.13,1.66,0.93,0.08,0.33,0.13,1.79,-0.41,0.35,-0.29,782.00,1691.00,230.00,369.00,438.00,995.00,768.00,1151.00,,,,,,,,,,,,0,0,0,,-2572,15904,-3360,-134,173,-160
26.282,26.19,1.72,1.71,-0.13,1.18,0.41,2.72,-1.59,1.64,-1.71,780.00,1649.00,223.00,354.00,459.00,990.00,810.00,1136.00,,,,,,,,,,,,0,0,0,,-2660,15804,-3232,-176,107,-129
26.302,26.24,1.71,1.44,-0.58,3.43,-2.16,1.60,-0.72,-0.33,-0.28,803.00,1687.00,246.00,347.00,447.00,1011.00,777.00,1182.00,,,,,,,,,,,,0,0,0,,-2588,15820,-3156,-86,180,-165
26.343,26.30,1.69,0.53,0.19,-0.36,0.04,1.31,-0.08,0.21,-0.03,783.00,1713.00,234.00,380.00,434.00,1005.00,759.00,1149.00,,,,,,,,,,,,0,0,0,,-2484,16012,-3456,-15,125,-235
26.405,26.35,1.74,0.90,0.33,0.37,1.19,2.66,-1.20,1.41,-1.24,772.00,1682.00,217.00,358.00,450.00,982.00,793.00,1132.00,,,,,,,,,,,,0,0,0,,-2492,15948,-3296,-25,40,-160
26.465,26.41,1.77,1.79,-0.26,2.84,-0.64,2.35,-0.89,0.47,-0.21,784.00,1649.00,229.00,341.00,445.00,986.00,763.00,1143.00,,,,,,,,,,,,0,0,0,,-2584,15772,-3368,-13,25,-171
26.506,26.46,1.76,1.45,-0.02,2.17,-0.73,1.54,0.19,1.11,-0.23,779.00,1661.00,233.00,351.00,426.00,989.00,755.00,1115.00,,,,,,,,,,,,0,0,0,,-2740,15976,-3308,-186,148,-165
26.568,26.52,1.80,1.00,0.78,0.22,1.41,2.60,-0.85,1.29,-0.63,752.00,1655.00,215.00,358.00,442.00,975.00,769.00,1119.00,,,,,,,,,,,,0,0,0,,-2568,15892,-3456,-61,221,-172
26.648,26.57,1.86,1.87,-0.16,2.67,0.16,3.03,-1.32,1.22,-0.66,779.00,1640.00,220.00,336.00,450.00,971.00,771.00,1123.00,,,,,,,,,,,,0,0,0,,-2556,15820,-3264,-16,93,-135
26.668,26.63,1.86,1.62,-0.20,3.50,-1.73,1.89,-0.40,0.82,-0.50,784.00,1658.00,240.00,342.00,437.00,991.00,770.00,1136.00,,,,,,,,,,,,0,0,0,,-2612,15896,-3300,-29,150,-131
26.729,26.68,1.88,0.89,0.38,0.33,0.54,2.13,-0.27,0.49,0.05,770.00,1680.00,225.00,365.00,432.00,978.00,752.00,1134.00,,,,,,,,,,,,0,0,0,,-2556,15928,-3552,-55,126,-202
26.79,26.74,1.92,1.35,0.18,1.28,0.38,2.82,-1.13,2.05,-1.55,772.00,1659.00,223.00,353.00,447.00,974.00,797.00,1113.00,,,,,,,,,,,,0,0,0,,-2600,15864,-3432,-30,1,-134
26.831,26.79,1.91,1.78,-0.46,3.73,-1.96,1.70,-0.42,-0.21,-0.08,793.00,1659.00,242.00,341.00,439.00,999.00,767.00,1170.00,,,,,,,,,,,,0,0,0,,-2572,15836,-3324,-41,93,-145
26.894,26.85,1.90,0.65,0.37,0.49,-0.00,1.59,-0.00,0.69,-0.14,774.00,1697.00,231.00,368.00,430.00,992.00,757.00,1131.00,,,,,,,,,,,,0,0,0,,-2636,15884,-3372,-151,171,-172
26.996,26.90,1.93,0.87,0.41,0.45,1.08,2.61,-0.89,0.95,-0.66,769.00,1680.00,218.00,358.00,443.00,976.00,775.00,1135.00,,,,,,,,,,,,0,0,0,,-2736,15932,-3272,-152,101,-93
27.016,26.96,1.94,1.44,-0.14,2.75,-0.28,2.08,-0.80,2.19,-0.91,784.00,1667.00,225.00,339.00,445.00,994.00,768.00,1088.00,,,,,,,,,,,,0,0,0,,-2580,15832,-3216,-87,158,-26
27.057,27.01,1.90,0.89,0.05,0.91,0.50,1.18,0.01,0.63,-0.32,784.00,1695.00,223.00,357.00,433.00,1008.00,765.00,1139.00,,,,,,,,,,,,0,0,0,,-2536,16024,-3200,-151,124,-248
27.118,27.07,1.93,0.78,0.61,-0.38,1.27,2.39,-0.57,1.07,-0.54,762.00,1677.00,219.00,368.00,437.00,976.00,768.00,1126.00,,,,,,,,,,,,0,0,0,,-2536,15900,-3472,-202,19,-115
27.18,27.12,1.98,1.68,0.04,1.72,0.15,2.93,-1.37,1.78,-0.99,773.00,1643.00,224.00,349.00,452.00,976.00,777.00,1108.00,,,,,,,,,,,,0,0,0,,-2640,15908,-3124,-66,12,-142
27.221,27.18,1.97,1.54,-0.15,2.89,-1.37,1.91,-0.37,1.94,-2.22,783.00,1661.00,238.00,347.00,436.00,989.00,828.00,1138.00,,,,,,,,,,,,0,0,0,,-2688,16056,-3160,-105,190,-236
27.282,27.23,1.97,0.85,0.42,0.20,0.41,1.96,-0.17,0.65,0.22,769.00,1681.00,227.00,368.00,431.00,982.00,743.00,1122.00,,,,,,,,,,,,0,0,0,,-2584,15920,-3408,-22,174,-148
27.406,27.29,2.04,1.29,0.15,1.41,0.50,3.30,-1.42,2.22,-1.63,774.00,1664.00,221.00,350.00,450.00,963.00,798.00,1108.00,,,,,,,,,,,,0,0,0,,-2664,15964,-3300,75,111,-84
27.427,27.34,2.04,2.02,-0.57,3.99,-1.89,2.01,-0.69,0.13,-0.00,794.00,1648.00,240.00,337.00,443.00,994.00,759.00,1152.00,,,,,,,,,,,,0,0,0,,-2556,15952,-3168,35,226,-151
27.468,27.40,2.04,2.30,-1.64,0.29,0.38,2.02,-0.10,1.36,-0.27,837.00,1677.00,227.00,367.00,429.00,978.00,753.00,1105.00,,,,,,,,,,,,0,0,0,,-2620,15884,-3496,22,138,-223
27.532,27.45,2.09,1.06,0.49,0.81,1.38,3.19,-1.26,1.43,-0.97,763.00,1664.00,213.00,350.00,447.00,963.00,781.00,1123.00,,,,,,,,,,,,0,0,0,,-2560,15884,-3416,53,12,-110
27.572,27.51,2.10,1.81,-0.26,2.72,-0.35,2.23,-0.68,0.51,-0.10,784.00,1648.00,226.00,340.00,441.00,985.00,758.00,1138.00,,,,,,,,,,,,0,0,0,,-2624,15928,-3284,-35,117,-175
27.635,27.56,2.08,1.18,-0.05,1.34,-0.13,1.65,0.02,0.71,-0.34,784.00,1680.00,229.00,357.00,429.00,989.00,765.00,1136.00,,,,,,,,,,,,0,0,0,,-2604,15952,-3428,-99,161,-158
27.676,27.62,2.07,0.61,0.67,-0.17,1.37,1.86,-0.18,0.87,-0.61,762.00,1686.00,217.00,364.00,432.00,986.00,774.00,1137.00,,,,,,,,,,,,0,0,0,,-2628,15980,-3368,-78,152,-88
27.738,27.67,2.08,1.20,-0.08,1.64,-0.15,2.27,-1.11,1.13,-1.05,785.00,1680.00,228.00,353.00,451.00,995.00,789.00,1139.00,,,,,,,,,,,,0,0,0,,-2632,15820,-3364,-75,207,-66
27.779,27.73,2.05,1.56,-0.92,3.61,-2.95,1.54,-0.74,-0.03,-0.50,816.00,1694.00,256.00,352.00,448.00,1014.00,782.00,1175.00,,,,,,,,,,,,0,0,0,,-2608,15988,-3468,-47,119,-268
27.82,27.78,2.04,0.76,0.33,-0.38,0.37,1.92,-0.41,0.75,-0.04,774.00,1691.00,230.00,377.00,437.00,990.00,752.00,1125.00,,,,,,,,,,,,0,0,0,,-2628,15788,-3452,-159,40,-146
27.884,27.84,2.09,1.35,0.18,0.61,0.94,3.04,-1.53,2.72,-1.87,772.00,1659.00,219.00,357.00,455.00,976.00,801.00,1093.00,,,,,,,,,,,,0,0,0,,-2608,15864,-3152,-115,101,-122
27.944,27.89,2.10,1.94,-0.49,3.44,-1.63,2.17,-0.75,0.23,0.01,792.00,1650.00,239.00,342.00,443.00,989.00,757.00,1147.00,,,,,,,,,,,,0,0,0,,-2692,16012,-3200,-175,171,-204
27.986,27.95,2.09,1.21,0.25,1.01,0.14,1.93,-0.20,0.99,-0.12,771.00,1665.00,227.00,359.00,432.00,984.00,752.00,1117.00,,,,,,,,,,,,0,0,0,,-2552,15928,-3396,-136,183,-106
28.046,28.00,2.13,0.91,0.69,-0.31,2.20,2.84,-0.93,1.65,-0.90,757.00,1665.00,208.00,358.00,442.00,968.00,775.00,1111.00,,,,,,,,,,,,0,0,0,,-2656,15864,-3288,-26,144,-93
28.109,28.06,2.14,1.67,0.00,2.98,-0.84,2.36,-0.64,1.09,-0.40,775.00,1646.00,231.00,341.00,439.00,979.00,762.00,1121.00,,,,,,,,,,,,0,0,0,,-2564,15920,-3332,-12,151,-178
28.171,28.11,2.11,1.22,0.01,-1.80,0.45,1.63,-0.06,1.00,-0.46,781.00,1675.00,235.00,398.00,431.00,992.00,766.00,1127.00,,,,,,,,,,,,0,0,0,,-2640,15968,-3288,-18,91,-234
28.232,28.17,2.12,0.73,0.72,-0.31,1.16,2.30,-0.75,0.81,-0.43,758.00,1675.00,220.00,368.00,442.00,984.00,767.00,1134.00,,,,,,,,,,,,0,0,0,,-2556,15868,-3268,-101,34,-126
28.294,28.22,2.15,1.07,0.22,0.36,1.11,2.64,-1.44,1.69,-1.36,774.00,1675.00,218.00,359.00,456.00,989.00,794.00,1123.00,,,,,,,,,,,,0,0,0,,-2596,15940,-3300,-87,114,-150
28.355,28.28,2.11,1.51,-0.53,2.33,-1.48,1.36,-0.47,-0.22,-0.22,800.00,1680.00,242.00,356.00,443.00,1014.00,773.00,1175.00,,,,,,,,,,,,0,0,0,,-2632,16036,-3296,-216,96,-133
28.376,28.33,2.07,0.58,0.20,-0.59,0.68,1.36,-0.22,0.55,-0.26,782.00,1709.00,227.00,377.00,437.00,1007.00,764.00,1141.00,,,,,,,,,,,,0,0,0,,-2540,16028,-3260,-213,133,-131
28.477,28.39,2.09,0.74,0.31,-0.66,1.79,2.52,-1.60,1.64,-1.78,775.00,1693.00,214.00,367.00,461.00,998.00,813.00,1138.00,,,,,,,,,,,,0,0,0,,-2592,15988,-3296,-386,150,-28
28.497,28.44,2.08,1.45,-0.51,2.75,-1.47,1.76,-0.82,-0.18,0.03,800.00,1683.00,240.00,350.00,448.00,1007.00,762.00,1165.00,,,,,,,,,,,,0,0,0,,-2568,15916,-3292,-528,-2,-197
28.539,28.50,2.04,1.18,-0.03,0.79,0.05,1.35,-0.09,1.27,-0.51,783.00,1679.00,229.00,363.00,434.00,1004.00,764.00,1116.00,,,,,,,,,,,,0,0,0,,-2672,15696,-3252,-919,-58,-40
28.6,28.55,2.06,0.65,0.87,-0.66,1.79,2.33,-0.63,1.84,-1.18,753.00,1674.00,214.00,367.00,439.00,980.00,784.00,1111.00,,,,,,,,,,,,0,0,0,,-2716,15988,-2852,-899,117,54
28.662,28.61,2.08,1.73,-0.14,1.78,-0.36,2.46,-1.18,1.12,-0.48,780.00,1648.00,230.00,353.00,451.00,989.00,765.00,1122.00,,,,,,,,,,,,0,0,0,,-2704,15800,-2868,-1281,263,88
28.703,28.66,2.04,1.22,0.06,1.55,-1.07,1.45,-0.17,-0.22,-0.10,779.00,1673.00,240.00,363.00,435.00,1002.00,768.00,1171.00,,,,,,,,,,,,0,0,0,,-2452,15728,-3064,-2421,204,338
28.765,28.72,2.03,0.85,0.42,-0.01,0.73,1.83,-0.46,0.17,-0.06,769.00,1681.00,224.00,368.00,439.00,995.00,761.00,1152.00,,,,,,,,,,,,0,0,0,,-2420,15624,-2472,-4243,85,448
28.847,28.77,2.08,1.40,-0.12,1.08,0.04,3.05,-1.82,2.12,-1.53,784.00,1669.00,228.00,359.00,462.00,983.00,795.00,1109.00,,,,,,,,,,,,0,0,0,,-2292,16320,-1836,-5124,597,-157
28.868,28.83,2.06,1.61,-0.54,3.17,-2.51,1.50,-0.35,0.26,-0.19,799.00,1674.00,252.00,354.00,439.00,1005.00,765.00,1152.00,,,,,,,,,,,,0,0,0,,-2260,16456,-1292,-4304,496,-447
28.929,28.88,2.05,0.73,0.20,-0.27,0.41,1.86,-0.18,1.12,-0.12,780.00,1699.00,229.00,375.00,432.00,986.00,750.00,1111.00,,,,,,,,,,,,0,0,0,,-2416,16356,-788,-2219,79,-334
28.99,28.94,2.10,0.89,0.38,-0.32,1.59,3.13,-1.32,1.98,-1.39,770.00,1680.00,215.00,364.00,449.00,967.00,791.00,1111.00,,,,,,,,,,,,0,0,0,,-2432,16644,-480,-408,-398,254
29.054,28.99,2.12,2.26,-0.55,2.98,-0.84,2.47,-0.81,0.44,0.07,790.00,1632.00,231.00,341.00,442.00,979.00,752.00,1136.00,,,,,,,,,,,,0,0,0,,-2356,16332,-408,200,-711,60
29.098,29.05,2.08,1.01,0.03,1.10,0.11,1.29,0.40,1.12,-0.31,783.00,1688.00,227.00,358.00,423.00,993.00,758.00,1117.00,,,,,,,,,,,,0,0,0,,-2412,16264,-212,322,-468,-145
29.159,29.10,2.10,0.55,0.66,-0.98,2.16,2.49,-0.69,1.14,-0.61,763.00,1690.00,211.00,368.00,439.00,975.00,770.00,1125.00,,,,,,,,,,,,0,0,0,,-2388,16292,-144,357,92,-41
29.221,29.16,2.10,1.38,-0.12,1.30,0.46,2.21,-0.76,1.23,-0.54,784.00,1670.00,222.00,352.00,443.00,988.00,766.00,1119.00,,,,,,,,,,,,0,0,0,,-2452,16252,-484,241,459,-349
29.283,29.21,2.09,1.22,-0.04,1.28,-0.35,1.77,-0.15,1.06,-0.29,783.00,1677.00,232.00,360.00,432.00,989.00,758.00,1119.00,,,,,,,,,,,,0,0,0,,-2420,15884,-1128,156,737,-275
29.323,29.27,2.09,1.03,0.31,2.01,-2.05,2.20,-0.29,1.06,0.00,771.00,1674.00,251.00,366.00,432.00,976.00,746.00,1110.00,,,,,,,,,,,,0,0,0,,-2284,15972,-740,-318,847,325
29.405,29.32,2.14,1.31,0.12,0.52,0.97,2.96,-1.22,2.48,-1.44,775.00,1664.00,219.00,358.00,448.00,971.00,786.00,1091.00,,,,,,,,,,,,0,0,0,,-2140,16468,-736,-358,775,-127
29.426,29.38,2.12,1.82,-0.57,3.41,-1.69,1.77,-0.15,0.44,0.07,797.00,1661.00,240.00,343.00,432.00,989.00,752.00,1136.00,,,,,,,,,,,,0,0,0,,-2192,16452,-948,498,100,-138
29.488,29.43,2.10,0.82,0.38,-0.12,0.68,1.78,0.37,1.34,-0.16,771.00,1685.00,225.00,370.00,420.00,975.00,749.00,1103.00,,,,,,,,,,,,0,0,0,,-2164,16136,-648,1290,-28,194
29.633,29.49,2.14,1.62,-0.34,0.01,1.83,2.88,-1.11,2.20,-1.30,790.00,1664.00,211.00,357.00,446.00,971.00,784.00,1099.00,,,,,,,,,,,,0,0,0,,-2040,15916,-1128,1320,228,98
29.653,29.54,2.14,1.71,-0.23,2.58,-0.47,2.22,-0.51,0.93,-0.10,784.00,1653.00,228.00,343.00,437.00,981.00,752.00,1119.00,,,,,,,,,,,,0,0,0,,-2040,16164,-1788,516,239,-176
29.674,29.60,2.12,1.10,0.05,0.60,0.44,1.65,0.02,1.37,-0.25,781.00,1681.00,225.00,362.00,429.00,989.00,752.00,1104.00,,,,,,,,,,,,0,0,0,,-2264,16316,-1980,-401,-433,-538
29.695,29.65,2.12,0.57,0.66,-1.05,2.36,2.25,-0.57,1.30,-0.54,763.00,1689.00,209.00,367.00,438.00,981.00,765.00,1116.00,,,,,,,,,,,,0,0,0,,-2528,15872,-1272,-467,-600,-262
29.756,29.71,2.13,1.40,-0.12,1.48,0.39,2.30,-1.08,1.15,-0.56,784.00,1669.00,222.00,350.00,450.00,993.00,768.00,1123.00,,,,,,,,,,,,0,0,0,,-2592,15968,-896,-332,42,-304
29.819,29.76,2.09,1.11,-0.19,1.60,-0.93,1.25,-0.10,1.51,-1.85,791.00,1691.00,238.00,361.00,435.00,1008.00,818.00,1146.00,,,,,,,,,,,,0,0,0,,-2540,15972,-1168,-371,533,-399
29.879,29.82,2.08,0.50,0.25,-1.61,1.60,1.83,-0.46,0.81,-0.06,781.00,1712.00,220.00,383.00,439.00,995.00,752.00,1123.00,,,,,,,,,,,,0,0,0,,-2552,16052,-1004,-354,328,-138
29.961,29.87,2.11,0.92,0.47,-1.15,3.02,2.74,-1.39,2.15,-1.40,766.00,1674.00,202.00,362.00,454.00,984.00,789.00,1104.00,,,,,,,,,,,,0,0,0,,-2496,16268,-860,-180,700,-144
29.981,29.93,2.09,1.74,-0.50,2.51,-1.54,1.69,-0.33,0.77,-0.46,795.00,1663.00,242.00,354.00,437.00,997.00,769.00,1137.00,,,,,,,,,,,,0,0,0,,-2452,16144,-1124,-257,899,-439
30.044,29.98,2.07,0.79,0.25,-0.29,0.74,1.65,0.02,1.39,-0.28,777.00,1693.00,225.00,372.00,429.00,989.00,753.00,1104.00,,,,,,,,,,,,1,1,0,,-2376,16076,-1200,-339,621,2
30.086,30.04,2.08,1.03,0.31,0.67,0.75,2.35,-0.51,1.72,-0.99,771.00,1674.00,221.00,358.00,436.00,976.00,778.00,1111.00,,,,,,,,,,,,1,1,0,,-2280,16332,-1016,-20,321,292
30.148,30.09,2.07,0.90,0.79,1.72,0.15,1.79,-0.41,0.83,-0.19,753.00,1661.00,224.00,349.00,438.00,995.00,757.00,1126.00,,,,,,,,,,,,1,1,0,,-2096,16000,-1256,252,366,312
30.189,30.15,2.03,1.14,0.01,0.47,0.32,1.41,0.19,1.11,-0.23,782.00,1680.00,227.00,365.00,427.00,994.00,755.00,1115.00,,,,,,,,,,,,1,1,0,,-1960,16160,-1656,240,-98,274
30.251,30.20,2.03,0.77,0.52,-0.63,1.44,1.90,-0.23,1.27,-0.60,766.00,1682.00,218.00,370.00,433.00,986.00,768.00,1119.00,,,,,,,,,,,,1,1,0,,-2168,16436,-1344,-113,-728,21
30.313,30.26,2.04,1.24,0.00,0.80,0.46,2.19,-0.96,1.34,-0.77,781.00,1674.00,224.00,359.00,448.00,994.00,774.00,1121.00,,,,,,,,,,,,1,1,0,,-2248,16268,-440,-580,-488,-230
30.376,30.31,2.00,1.09,-0.14,1.64,-1.10,1.42,-0.49,0.42,-0.53,789.00,1690.00,240.00,362.00,443.00,1012.00,777.00,1155.00,,,,,,,,,,,,1,1,0,,-2388,16284,-516,-220,306,-309
30.437,30.37,1.97,0.51,0.18,-0.56,0.83,1.39,-0.23,0.54,-0.11,784.00,1715.00,225.00,375.00,437.00,1006.00,758.00,1137.00,,,,,,,,,,,,1,1,0,,-2196,16324,-880,313,488,-101
30.458,30.42,1.98,0.87,0.05,-0.54,1.41,2.13,-1.39,1.82,-1.68,784.00,1696.00,218.00,369.00,459.00,1008.00,806.00,1127.00,,,,,,,,,,,,1,1,0,,-2084,16524,-1468,479,427,-176
30.52,30.48,1.95,1.40,-0.70,2.10,-1.25,1.26,-0.44,0.08,-0.25,809.00,1695.00,240.00,357.00,443.00,1017.00,770.00,1162.00,,,,,,,,,,,,1,1,0,,-2172,15888,-1416,109,145,-243
30.58,30.53,1.90,0.77,0.13,0.08,0.29,1.09,0.21,1.29,-0.29,782.00,1699.00,229.00,371.00,429.00,1006.00,755.00,1109.00,,,,,,,,,,,,1,1,0,,-2088,15816,-1196,-486,144,-203
30.642,30.59,1.92,0.82,0.57,-2.10,3.80,2.33,-0.63,2.69,-1.27,763.00,1676.00,197.00,368.00,439.00,980.00,776.00,1077.00,,,,,,,,,,,,1,1,0,,-2216,16312,-1428,-950,-117,-250
30.704,30.64,1.95,1.53,-0.10,1.38,0.02,2.35,-1.02,1.16,-0.28,781.00,1659.00,227.00,355.00,448.00,989.00,756.00,1114.00,,,,,,,,,,,,1,1,0,,-2348,16216,-936,-1090,-486,-338
30.745,30.70,1.91,1.16,0.00,0.57,-0.03,1.17,0.10,1.42,-0.39,782.00,1679.00,231.00,367.00,431.00,1006.00,757.00,1106.00,,,,,,,,,,,,1,1,0,,-2484,16312,-636,-723,6,-284
30.807,30.75,1.91,0.68,0.67,-1.27,2.08,2.07,-0.63,1.05,-0.22,761.00,1681.00,213.00,373.00,441.00,990.00,755.00,1117.00,,,,,,,,,,,,1,1,0,,-2300,16076,-704,-701,214,-224
30.869,30.81,1.93,0.93,0.39,0.31,0.46,2.32,-1.01,1.74,-0.86,769.00,1677.00,226.00,366.00,448.00,990.00,772.00,1106.00,,,,,,,,,,,,1,1,0,,-2152,16024,-944,-453,-67,14
30.951,30.86,1.91,1.42,-0.25,1.64,-1.10,1.47,-0.34,0.71,-0.37,789.00,1673.00,240.00,362.00,439.00,1006.00,766.00,1137.00,,,,,,,,,,,,1,1,0,,-2216,16168,-424,-445,-181,85
30.972,30.92,1.90,0.51,0.39,-1.23,0.65,1.60,-0.09,1.17,-0.08,775.00,1705.00,230.00,387.00,432.00,994.00,748.00,1108.00,,,,,,,,,,,,1,1,0,,-2188,15984,-388,-626,61,-82
31.054,30.97,1.98,1.03,0.38,-1.01,0.90,3.48,-0.93,2.60,-1.48,768.00,1671.00,226.00,381.00,437.00,944.00,786.00,1087.00,,,,,,,,,,,,1,1,0,,-2288,16324,-184,-555,165,-111
31.074,31.03,2.05,2.14,-0.82,-0.85,-1.88,3.50,0.28,1.58,0.51,803.00,1651.00,262.00,408.00,409.00,913.00,719.00,1073.00,,,,,,,,,,,,1,1,0,,-2192,16096,-344,-448,30,34
31.136,31.08,2.14,1.71,-0.23,-5.02,-1.24,3.88,0.80,3.61,0.59,784.00,1653.00,273.00,473.00,395.00,887.00,690.00,988.00,,,,,,,,,,,,1,1,0,,-2128,16644,-292,-163,252,-143
31.198,31.14,2.23,1.65,0.32,-3.96,0.40,3.92,0.32,3.76,-0.04,762.00,1633.00,245.00,434.00,405.00,897.00,712.00,999.00,,,,,,,,,,,,1,1,0,,-1904,15996,-388,-36,210,-23
31.26,31.19,2.27,2.45,-0.05,-0.39,-0.49,3.10,-0.38,2.74,0.62,766.00,1598.00,241.00,386.00,427.00,944.00,700.00,1022.00,,,,,,,,,,,,1,1,0,,-2076,16204,-276,-12,310,-84
31.302,31.25,2.26,2.02,0.17,-0.48,-0.46,2.05,-0.07,2.59,0.43,763.00,1616.00,241.00,387.00,428.00,976.00,709.00,1033.00,,,,,,,,,,,,1,1,0,,-1920,16332,-260,-137,251,-157
31.364,31.30,2.27,1.28,1.01,-1.79,0.52,2.34,-0.47,2.48,0.60,739.00,1627.00,234.00,397.00,435.00,975.00,704.00,1033.00,,,,,,,,,,,,1,1,0,,-2104,16012,-432,-79,160,2
31.426,31.36,2.28,1.83,0.38,-1.08,0.52,2.56,-1.17,3.71,-0.71,757.00,1619.00,231.00,386.00,450.00,985.00,739.00,1019.00,,,,,,,,,,,,1,1,0,,-2052,16276,-332,22,101,-134
31.467,31.41,2.23,2.13,-0.32,0.76,-1.99,1.28,-0.07,1.67,0.40,782.00,1630.00,256.00,384.00,434.00,1006.00,722.00,1072.00,,,,,,,,,,,,1,1,0,,-1968,16156,-368,50,194,-175
31.508,31.47,2.22,1.42,0.32,-1.94,0.18,2.06,-0.20,2.33,0.57,765.00,1648.00,239.00,403.00,431.00,979.00,707.00,1040.00,,,,,,,,,,,,1,1,0,,-2052,16216,-476,-36,164,-134
31.57,31.52,2.25,1.27,0.86,-1.46,0.41,2.75,-1.11,3.42,-0.94,745.00,1634.00,234.00,393.00,447.00,976.00,752.00,1037.00,,,,,,,,,,,,1,1,0,,-2148,16276,-428,-50,24,-126
31.631,31.58,2.24,2.29,-0.45,0.78,-1.93,2.11,-0.73,1.47,0.70,785.00,1625.00,255.00,383.00,443.00,991.00,713.00,1072.00,,,,,,,,,,,,1,1,0,,-2248,16288,-244,93,82,-137
31.693,31.63,2.21,1.48,0.23,-1.06,-0.27,1.69,-0.04,2.68,0.11,768.00,1648.00,241.00,394.00,430.00,989.00,720.00,1038.00,,,,,,,,,,,,1,1,0,,-2060,16068,-432,134,203,-124
31.796,31.69,2.21,1.06,0.74,-2.32,1.59,2.10,-0.26,2.80,-0.38,753.00,1653.00,223.00,394.00,432.00,979.00,738.00,1047.00,,,,,,,,,,,,1,1,0,,-2004,16036,-508,33,257,-137
31.816,31.74,2.20,1.88,-0.03,-0.15,-0.65,1.97,-0.64,2.12,0.30,773.00,1633.00,242.00,384.00,442.00,994.00,720.00,1056.00,,,,,,,,,,,,1,1,0,,-1936,16240,-800,8,153,-214
31.837,31.80,2.16,1.62,0.09,-0.79,-0.66,1.42,0.14,2.61,0.11,772.00,1645.00,245.00,394.00,428.00,995.00,721.00,1041.00,,,,,,,,,,,,1,1,0,,-2068,16236,-604,-28,67,-185
31.9,31.85,2.16,1.50,0.64,-1.05,-0.19,2.20,-0.29,2.28,0.64,751.00,1629.00,240.00,393.00,432.00,976.00,705.00,1040.00,,,,,,,,,,,,1,1,0,,-2016,16136,-436,36,91,-164
31.961,31.91,2.21,1.86,0.47,-0.47,-0.08,3.23,-1.43,4.14,-0.98,753.00,1613.00,236.00,383.00,451.00,966.00,744.00,1009.00,,,,,,,,,,,,1,1,0,,-2076,16164,-436,-122,113,-199
32.043,31.96,2.21,2.41,-0.15,0.61,-1.58,2.10,-0.26,1.73,0.67,771.00,1605.00,251.00,382.00,432.00,979.00,711.00,1062.00,,,,,,,,,,,,1,1,0,,-2052,16236,-568,-155,141,-92
32.064,32.02,2.18,1.48,0.62,-1.86,0.62,1.63,0.55,2.98,0.51,752.00,1631.00,233.00,397.00,417.00,976.00,701.00,1015.00,,,,,,,,,,,,1,1,0,,-2148,16220,-544,-27,84,-134
32.168,32.07,2.22,1.78,0.59,-0.60,0.60,2.96,-0.80,4.33,-1.22,749.00,1613.00,228.00,378.00,438.00,960.00,751.00,1008.00,,,,,,,,,,,,1,1,0,,-2076,16120,-536,-117,148,-124
32.189,32.13,2.23,2.32,-0.03,-1.52,-0.34,2.46,-0.25,2.33,0.59,767.00,1605.00,244.00,402.00,429.00,965.00,706.00,1039.00,,,,,,,,,,,,1,1,0,,-2088,16216,-576,-202,39,-134
32.251,32.18,2.21,1.91,0.33,-0.49,-0.15,1.92,0.23,3.12,0.30,758.00,1616.00,237.00,384.00,422.00,973.00,707.00,1015.00,,,,,,,,,,,,1,1,0,,-2096,16212,-508,-268,24,-57
32.292,32.24,2.23,1.50,0.91,-1.30,1.33,2.62,-0.22,3.16,-0.05,740.00,1617.00,222.00,381.00,427.00,958.00,720.00,1023.00,,,,,,,,,,,,1,1,0,,-2036,16236,-432,-122,129,-185
32.334,32.29,2.25,2.16,0.12,-0.49,-0.15,2.58,-0.50,2.78,0.08,763.00,1609.00,237.00,384.00,434.00,967.00,720.00,1035.00,,,,,,,,,,,,1,1,0,,-2132,16152,-620,-309,41,-59
32.394,32.35,2.23,1.94,0.05,0.30,-0.72,1.84,0.04,2.12,0.30,769.00,1626.00,241.00,378.00,427.00,981.00,720.00,1056.00,,,,,,,,,,,,1,1,0,,-2036,16156,-312,-62,-3,46
32.518,32.40,2.23,1.49,0.45,-1.21,-0.14,2.25,-0.18,1.94,0.75,759.00,1638.00,240.00,395.00,429.00,971.00,705.00,1051.00,,,,,,,,,,,,1,1,0,,-1968,16312,0,100,116,93
32.538,32.46,2.28,2.00,0.10,-0.59,0.68,3.28,-1.04,4.12,-1.17,766.00,1620.00,227.00,377.00,441.00,954.00,752.00,1015.00,,,,,,,,,,,,1,1,0,,-1884,16132,-632,87,267,-269
32.559,32.51,2.28,2.55,-0.25,1.77,-1.89,2.23,-0.26,1.86,0.65,773.00,1600.00,250.00,368.00,431.00,974.00,710.00,1057.00,,,,,,,,,,,,1,1,0,,-1968,16180,-604,123,45,-164
32.621,32.57,2.30,1.76,0.55,-0.94,0.32,2.54,0.24,3.15,0.64,751.00,1616.00,233.00,386.00,417.00,949.00,694.00,1005.00,,,,,,,,,,,,1,1,0,,-2064,16188,-528,-32,65,-114
32.662,32.62,2.44,2.22,0.49,-0.76,1.23,5.23,-3.53,4.18,-0.75,747.00,1589.00,221.00,374.00,487.00,944.00,734.00,1001.00,,,,,,,,,,,,1,1,0,,-2056,16180,-496,-152,213,-206
32.724,32.68,2.47,2.56,0.26,2.26,-1.08,2.94,-0.46,2.79,0.65,752.00,1578.00,237.00,353.00,430.00,952.00,698.00,1019.00,,,,,,,,,,,,1,1,0,,-2068,16276,-640,-63,220,-85
32.785,32.73,2.45,2.31,0.34,0.79,0.05,2.09,0.49,3.62,0.16,752.00,1590.00,229.00,363.00,415.00,960.00,706.00,999.00,,,,,,,,,,,,1,1,0,,-1948,16148,-568,-29,142,-106
32.827,32.79,2.48,1.77,0.97,-0.41,1.62,3.14,-0.44,3.59,-0.17,734.00,1597.00,215.00,365.00,428.00,944.00,719.00,1009.00,,,,,,,,,,,,1,1,0,,-1956,16300,-956,-116,111,-163
32.889,32.84,2.52,2.62,0.24,2.22,-0.90,3.29,-0.66,3.16,-0.05,752.00,1575.00,235.00,352.00,432.00,944.00,720.00,1023.00,,,,,,,,,,,,1,1,0,,-2412,16192,-968,1784,350,-148
32.95,32.90,2.51,2.51,-0.36,2.12,-1.18,2.36,0.09,2.53,-0.52,778.00,1607.00,239.00,356.00,422.00,960.00,747.00,1062.00,,,,,,,,,,,,1,1,0,,-2040,16668,-616,1062,88,-235
33.011,32.95,2.53,1.72,0.54,-0.27,0.41,2.74,-0.47,2.09,0.49,752.00,1619.00,229.00,375.00,432.00,960.00,713.00,1052.00,,,,,,,,,,,,1,1,0,,-1820,15640,-884,-1,-217,-185
33.054,33.01,2.57,1.91,0.40,0.58,0.78,3.33,-1.34,3.80,-1.43,755.00,1613.00,221.00,359.00,448.00,960.00,767.00,1035.00,,,,,,,,,,,,1,1,0,,-1932,16212,-1220,-1433,-746,-173
33.116,33.06,2.53,2.37,-0.45,1.64,-1.10,1.83,-0.17,1.23,0.48,784.00,1620.00,240.00,362.00,432.00,987.00,725.00,1089.00,,,,,,,,,,,,1,1,0,,-2072,15640,-792,-2319,-452,-263
33.178,33.12,2.51,1.31,0.43,-0.12,0.68,2.15,-0.15,2.39,0.26,762.00,1650.00,225.00,370.00,429.00,974.00,718.00,1046.00,,,,,,,,,,,,1,1,0,,-2312,16024,-72,-2136,-556,405
33.26,33.17,2.53,1.62,0.47,-0.31,1.67,2.84,-0.51,2.89,-0.76,756.00,1628.00,214.00,363.00,432.00,957.00,752.00,1054.00,,,,,,,,,,,,1,1,0,,-1872,16392,364,-1636,-524,1137
33.28,33.23,2.56,2.29,0.37,2.32,-0.30,3.19,-0.67,2.23,0.21,751.00,1590.00,227.00,345.00,433.00,948.00,722.00,1054.00,,,,,,,,,,,,1,1,0,,-1676,16768,556,-390,212,163
33.342,33.28,2.55,2.44,0.27,1.69,-0.33,2.27,0.97,3.62,-0.26,753.00,1585.00,230.00,354.00,403.00,941.00,722.00,1010.00,,,,,,,,,,,,1,1,0,,-1604,16280,252,288,118,-3
33.384,33.34,2.58,2.15,0.79,0.13,1.96,3.17,0.03,3.60,-0.22,736.00,1581.00,209.00,354.00,417.00,931.00,721.00,1010.00,,,,,,,,,,,,1,1,0,,-1604,16392,52,412,35,-322
33.446,33.39,2.64,3.27,0.24,6.42,-4.81,3.90,-0.56,4.09,-0.39,743.00,1535.00,269.00,331.00,425.00,919.00,721.00,995.00,,,,,,,,,,,,1,1,0,,-1720,15972,144,-647,-410,-16
33.486,33.45,2.65,3.38,0.08,3.38,-0.65,2.88,0.27,3.18,-0.08,748.00,1535.00,227.00,334.00,414.00,936.00,721.00,1023.00,,,,,,,,,,,,1,1,0,,-1772,16472,408,-962,-181,-381
33.548,33.50,2.69,2.25,0.81,0.64,1.53,3.36,0.28,2.69,1.08,734.00,1574.00,212.00,351.00,410.00,918.00,683.00,1011.00,,,,,,,,,,,,1,1,0,,-1932,16768,1184,1433,772,-955
33.63,33.56,2.78,2.69,0.63,2.68,0.93,4.51,-0.77,5.17,-1.53,735.00,1554.00,211.00,329.00,425.00,902.00,752.00,983.00,,,,,,,,,,,,1,1,0,,-1776,16260,148,2034,643,-682
33.651,33.61,2.80,3.70,-0.40,4.63,-0.91,3.07,0.02,2.24,0.44,763.00,1535.00,225.00,320.00,418.00,935.00,713.00,1047.00,,,,,,,,,,,,1,1,0,,-1812,16064,-280,1626,623,-682
33.712,33.67,2.81,2.38,0.59,2.15,0.93,2.99,0.18,3.85,0.08,741.00,1575.00,213.00,336.00,415.00,934.00,706.00,992.00,,,,,,,,,,,,1,1,0,,-1820,16084,-804,366,98,-684
33.773,33.72,2.84,2.40,0.73,2.12,1.65,3.56,-0.62,4.36,-0.48,735.00,1568.00,205.00,330.00,429.00,933.00,721.00,987.00,,,,,,,,,,,,1,1,0,,-2144,16052,-484,134,-327,-596
33.814,33.78,2.86,2.83,0.17,4.12,-0.16,3.19,-0.67,2.98,0.40,752.00,1565.00,218.00,320.00,433.00,948.00,705.00,1018.00,,,,,,,,,,,,1,1,0,,-2244,15908,-252,-541,49,-422
33.875,33.83,2.84,2.63,-0.04,3.24,-0.11,2.51,0.21,3.39,0.16,763.00,1586.00,221.00,331.00,418.00,951.00,709.00,1008.00,,,,,,,,,,,,1,1,0,,-2256,16232,-392,-586,113,-254
33.937,33.89,2.86,1.85,0.99,1.38,1.63,3.21,-0.02,3.18,0.26,732.00,1591.00,208.00,340.00,418.00,931.00,708.00,1014.00,,,,,,,,,,,,1,1,0,,-2268,16240,148,91,-164,86
33.998,33.94,2.89,2.64,0.23,2.82,0.28,3.46,-0.72,3.87,-0.36,752.00,1574.00,218.00,333.00,432.00,939.00,723.00,1003.00,,,,,,,,,,,,1,1,0,,-2072,16352,-312,267,310,-114
34.039,34.00,2.88,2.90,-0.17,4.35,-1.31,2.69,-0.29,2.77,0.16,765.00,1575.00,231.00,327.00,428.00,957.00,717.00,1033.00,,,,,,,,,,,,1,1,0,,-2000,16328,-424,125,379,-542
34.101,34.05,2.91,2.23,0.81,1.78,1.14,3.42,-0.14,3.87,0.39,734.00,1575.00,212.00,339.00,419.00,926.00,694.00,983.00,,,,,,,,,,,,1,1,0,,-2244,15652,-716,-36,251,-300
34.163,34.11,2.99,3.05,0.56,2.89,1.67,4.60,-1.19,5.38,-1.15,733.00,1535.00,202.00,320.00,434.00,909.00,734.00,965.00,,,,,,,,,,,,1,1,0,,-2240,16532,-156,309,147,-27
34.225,34.16,3.01,3.85,-0.25,5.99,-1.37,3.28,-0.05,2.91,0.88,755.00,1520.00,225.00,307.00,418.00,929.00,688.00,1008.00,,,,,,,,,,,,1,1,0,,-2196,16096,-356,485,321,-182
34.266,34.22,3.02,3.25,0.27,3.82,0.29,3.34,0.42,4.38,0.33,742.00,1535.00,214.00,320.00,407.00,915.00,690.00,965.00,,,,,,,,,,,,1,1,0,,-2300,16300,-368,633,361,67
34.389,34.27,3.10,3.06,0.74,1.05,4.72,4.51,-0.77,4.77,-0.18,726.00,1527.00,177.00,317.00,425.00,902.00,704.00,963.00,,,,,,,,,,,,1,1,0,,-2096,15928,-808,762,484,135
34.409,34.33,3.16,3.78,0.07,5.58,0.22,4.37,-0.81,4.09,0.45,743.00,1511.00,208.00,299.00,427.00,908.00,689.00,973.00,,,,,,,,,,,,1,1,0,,-1828,15608,-960,42,235,178
34.43,34.38,3.17,3.22,0.30,4.77,-0.29,3.26,0.23,3.82,0.54,741.00,1535.00,217.00,313.00,412.00,923.00,689.00,981.00,,,,,,,,,,,,1,1,0,,-2204,16504,-1252,-58,-396,-348
34.492,34.44,3.19,2.25,1.16,2.95,1.92,3.63,-0.12,3.97,0.36,720.00,1559.00,199.00,317.00,417.00,918.00,694.00,980.00,,,,,,,,,,,,1,1,0,,-2352,16088,-20,-717,-239,-180
34.534,34.49,3.25,2.85,0.33,5.09,0.21,4.28,-1.21,4.48,-0.47,745.00,1557.00,210.00,305.00,437.00,921.00,719.00,982.00,,,,,,,,,,,,1,1,0,,-2136,16356,-232,33,347,-153
34.595,34.55,3.22,3.06,-0.08,5.53,-1.05,2.74,-0.09,1.76,1.59,759.00,1561.00,223.00,310.00,423.00,950.00,676.00,1035.00,,,,,,,,,,,,1,1,0,,-1972,16408,-632,162,421,-80
34.657,34.60,3.22,2.24,0.59,1.76,1.50,3.19,-0.24,3.45,0.56,743.00,1584.00,208.00,336.00,423.00,937.00,693.00,995.00,,,,,,,,,,,,1,1,0,,-2028,16212,-928,228,21,-17
34.74,34.66,3.24,2.53,0.39,3.98,1.48,3.67,-0.66,4.40,-0.85,747.00,1574.00,200.00,308.00,429.00,930.00,735.00,995.00,,,,,,,,,,,,1,1,0,,-2124,16160,-876,190,-23,-66
34.761,34.71,3.24,3.07,-0.28,5.76,-0.54,3.15,-0.66,2.12,0.98,767.00,1569.00,216.00,303.00,433.00,949.00,694.00,1037.00,,,,,,,,,,,,1,1,0,,-2056,16288,-732,-47,227,-206
34.844,34.77,3.24,2.60,0.37,4.72,0.51,3.22,-0.16,3.90,0.46,747.00,1571.00,208.00,307.00,421.00,934.00,691.00,980.00,,,,,,,,,,,,1,1,0,,-2104,16124,-756,-175,216,-268
34.865,34.82,3.29,2.49,0.98,3.84,1.81,4.38,-0.98,4.45,-0.20,724.00,1552.00,197.00,307.00,431.00,912.00,709.00,976.00,,,,,,,,,,,,1,1,0,,-2168,16200,-508,-46,125,-150
34.926,34.88,3.33,3.61,0.17,6.92,0.04,3.94,-0.58,4.01,0.45,741.00,1517.00,205.00,285.00,425.00,918.00,690.00,976.00,,,,,,,,,,,,1,1,0,,-2072,16076,-652,113,215,-163
34.989,34.93,3.33,3.25,0.27,5.74,-0.01,3.41,0.04,4.02,0.48,742.00,1535.00,210.00,299.00,415.00,922.00,689.00,975.00,,,,,,,,,,,,1,1,0,,-2012,16156,-960,46,108,19
35.031,34.99,3.36,2.80,0.93,2.89,2.60,3.85,-0.28,3.78,0.64,722.00,1535.00,192.00,312.00,419.00,914.00,686.00,980.00,,,,,,,,,,,,1,1,0,,-2036,16260,-908,426,162,-90
35.093,35.04,3.41,3.20,0.44,5.75,0.98,4.42,-1.04,5.31,-0.77,736.00,1531.00,199.00,291.00,432.00,912.00,720.00,958.00,,,,,,,,,,,,1,1,0,,-1996,16100,-936,-39,169,-50
35.154,35.10,3.42,3.53,-0.07,6.74,-0.35,3.61,-0.29,3.11,0.73,752.00,1532.00,210.00,290.00,421.00,923.00,691.00,1004.00,,,,,,,,,,,,1,1,0,,-2020,16176,-936,4,66,-106
35.218,35.15,3.44,2.50,0.70,4.59,0.82,3.92,-0.22,2.19,1.39,735.00,1563.00,205.00,306.00,417.00,910.00,678.00,1023.00,,,,,,,,,,,,1,1,0,,-2004,16216,-836,-232,-23,-143
35.258,35.21,3.50,2.98,0.66,4.39,2.10,4.53,-1.08,5.00,-0.67,730.00,1535.00,192.00,298.00,432.00,909.00,720.00,967.00,,,,,,,,,,,,1,1,0,,-2076,16080,-736,-117,121,-91
35.319,35.26,3.56,3.55,-0.08,7.26,-0.08,4.72,-1.52,3.17,0.71,752.00,1531.00,205.00,282.00,441.00,913.00,691.00,1002.00,,,,,,,,,,,,1,1,0,,-2012,16192,-816,20,253,-23
35.381,35.32,3.54,2.82,0.44,4.88,0.63,3.22,0.29,4.01,0.45,741.00,1554.00,206.00,304.00,411.00,923.00,690.00,976.00,,,,,,,,,,,,1,1,0,,-1980,16224,-768,-230,178,8
35.463,35.37,3.58,2.31,1.12,3.40,2.82,4.27,-0.82,3.97,0.10,721.00,1557.00,188.00,304.00,428.00,912.00,704.00,987.00,,,,,,,,,,,,1,1,0,,-1808,16240,-856,117,161,-169
35.484,35.43,3.59,3.44,-0.02,6.30,0.43,3.82,-0.88,3.52,0.38,751.00,1535.00,203.00,289.00,433.00,930.00,699.00,997.00,,,,,,,,,,,,1,1,0,,-2036,16376,-780,-30,-12,-101
35.526,35.48,3.56,2.77,0.16,6.19,-0.42,2.94,-0.07,3.23,0.48,753.00,1569.00,213.00,297.00,421.00,942.00,699.00,1006.00,,,,,,,,,,,,1,1,0,,-1904,16308,-916,-218,165,-195
35.588,35.54,3.55,2.40,0.61,3.43,1.58,3.43,-0.19,3.52,0.54,740.00,1573.00,201.00,314.00,420.00,927.00,693.00,993.00,,,,,,,,,,,,1,1,0,,-1936,16168,-832,-101,94,-305
35.669,35.59,3.61,3.31,0.38,4.43,1.42,4.64,-1.20,5.21,-0.74,737.00,1527.00,199.00,303.00,434.00,908.00,720.00,961.00,,,,,,,,,,,,1,1,0,,-1988,16120,-824,-14,1,-292
35.689,35.65,3.61,3.81,-0.19,7.50,-0.95,3.61,-0.38,3.13,0.78,753.00,1520.00,214.00,286.00,423.00,925.00,689.00,1002.00,,,,,,,,,,,,1,1,0,,-1972,16288,-792,190,194,-253
35.751,35.70,3.61,3.05,0.56,4.59,0.82,3.66,0.36,5.08,-0.44,733.00,1535.00,205.00,306.00,406.00,905.00,710.00,958.00,,,,,,,,,,,,1,1,0,,-2048,16276,-884,-10,203,-91
35.832,35.76,3.67,3.19,0.72,5.17,1.83,4.77,-0.99,5.30,-0.79,725.00,1520.00,192.00,291.00,428.00,898.00,721.00,959.00,,,,,,,,,,,,1,1,0,,-1948,16168,-1004,98,116,-158
35.853,35.81,3.69,3.44,0.38,7.72,0.31,4.14,-0.43,3.70,0.80,735.00,1519.00,199.00,274.00,420.00,907.00,681.00,979.00,,,,,,,,,,,,1,1,0,,-1980,16208,-836,135,218,-173
35.914,35.87,3.68,3.35,0.46,5.67,1.10,3.53,0.27,4.75,0.02,733.00,1521.00,198.00,291.00,409.00,912.00,697.00,959.00,,,,,,,,,,,,1,1,0,,-1904,16084,-948,-46,86,-181
35.976,35.92,3.71,2.93,0.93,3.29,3.35,4.27,-0.11,4.31,0.25,720.00,1527.00,183.00,301.00,412.00,895.00,694.00,970.00,,,,,,,,,,,,1,1,0,,-2000,16276,-1024,-38,139,-244
36.017,35.98,3.74,3.72,0.19,8.16,-0.74,4.27,-0.77,4.22,0.14,739.00,1510.00,209.00,277.00,427.00,911.00,699.00,976.00,,,,,,,,,,,,1,1,0,,-2004,16160,-908,-115,34,-256
36.079,36.03,3.80,3.40,0.05,7.04,-0.27,5.04,-2.65,3.48,0.26,749.00,1535.00,208.00,286.00,466.00,929.00,704.00,1002.00,,,,,,,,,,,,1,1,0,,-2008,16208,-1112,57,26,-97
36.202,36.09,3.79,2.69,0.56,4.27,1.29,3.55,-0.01,3.22,0.74,738.00,1557.00,201.00,306.00,415.00,918.00,689.00,999.00,,,,,,,,,,,,1,1,0,,-2064,16284,-792,79,175,-200
36.222,36.14,3.81,3.18,0.37,5.45,1.17,4.24,-1.02,4.93,-1.03,739.00,1535.00,198.00,293.00,433.00,918.00,735.00,979.00,,,,,,,,,,,,1,1,0,,-2044,16096,-1232,-428,28,-93
36.243,36.20,3.78,3.38,-0.36,7.27,-1.13,3.14,-0.44,2.09,0.60,766.00,1553.00,217.00,290.00,428.00,944.00,709.00,1049.00,,,,,,,,,,,,1,1,0,,-1732,15684,-704,-1182,-429,387
36.325,36.25,3.74,2.11,0.65,4.06,1.00,3.04,0.34,3.60,0.04,742.00,1589.00,205.00,311.00,411.00,928.00,711.00,1003.00,,,,,,,,,,,,1,1,0,,-2084,16548,-392,-855,-333,-40
36.366,36.31,3.79,3.02,0.75,5.26,2.10,4.59,-0.93,4.60,-0.91,726.00,1529.00,189.00,288.00,428.00,903.00,735.00,989.00,,,,,,,,,,,,1,1,0,,-2012,16800,-536,104,466,-510
36.427,36.36,3.80,3.74,0.28,7.76,0.39,4.08,-0.54,3.43,0.70,735.00,1505.00,198.00,273.00,423.00,912.00,688.00,992.00,,,,,,,,,,,,1,1,0,,-1924,16128,-792,-173,153,-76
36.488,36.42,3.76,3.33,0.42,2.00,8.09,3.07,0.38,4.49,-0.03,735.00,1524.00,145.00,279.00,410.00,926.00,702.00,970.00,,,,,,,,,,,,1,1,0,,-1864,15728,-724,-885,110,-169
36.571,36.47,3.79,2.69,1.09,4.86,2.43,4.19,-0.70,4.20,0.18,717.00,1535.00,187.00,290.00,426.00,912.00,698.00,976.00,,,,,,,,,,,,1,1,0,,-1960,16748,-12,156,226,-183
36.592,36.53,3.82,3.52,0.28,7.38,1.09,4.38,-1.03,4.64,-0.29,738.00,1518.00,192.00,272.00,432.00,913.00,710.00,971.00,,,,,,,,,,,,1,1,0,,-1932,16876,-684,1130,545,-240
36.633,36.58,3.79,3.31,0.23,7.61,0.08,3.26,-0.26,3.55,0.26,743.00,1533.00,202.00,277.00,423.00,935.00,703.00,999.00,,,,,,,,,,,,1,1,0,,-2032,16328,-1064,1265,618,-596
36.695,36.64,3.78,2.52,0.69,4.23,1.96,3.55,-0.40,3.63,0.63,735.00,1562.00,194.00,301.00,424.00,928.00,688.00,986.00,,,,,,,,,,,,1,1,0,,-1936,15720,-1200,-25,-12,-342
36.737,36.69,3.81,3.33,0.14,6.07,1.15,4.47,-1.69,5.20,-1.19,746.00,1535.00,196.00,286.00,447.00,926.00,738.00,973.00,,,,,,,,,,,,1,1,0,,-2024,15972,-1132,-398,-169,-270
36.797,36.75,3.79,3.70,-0.40,7.97,-0.58,3.40,-0.78,2.68,0.66,763.00,1535.00,208.00,278.00,434.00,943.00,699.00,1023.00,,,,,,,,,,,,1,1,1,,-2064,16356,-688,225,-2,-143
36.86,36.80,3.75,2.60,0.27,5.27,0.68,3.08,-0.11,3.67,0.46,751.00,1575.00,204.00,299.00,421.00,938.00,694.00,989.00,,,,,,,,,,,,1,1,1,,-2048,16008,-960,207,27,42
36.963,36.86,3.76,2.46,0.66,5.54,2.20,3.96,-0.88,4.12,-0.40,737.00,1567.00,187.00,284.00,432.00,925.00,721.00,994.00,,,,,,,,,,,,1,1,1,,-2028,16428,-872,-15,92,-212
36.984,36.91,3.75,3.46,-0.05,8.48,-0.67,3.39,-0.69,2.93,0.84,752.00,1535.00,207.00,273.00,432.00,941.00,689.00,1008.00,,,,,,,,,,,,1,1,1,,-1908,15972,-868,-240,90,-191
37.025,36.97,3.69,2.30,0.49,6.68,0.39,2.62,0.49,3.53,0.30,746.00,1584.00,202.00,285.00,411.00,940.00,702.00,999.00,,,,,,,,,,,,1,1,1,,-2108,16296,-780,-52,328,-211
37.085,37.02,3.71,2.22,1.05,5.31,2.68,4.07,-0.40,4.15,0.16,725.00,1566.00,183.00,283.00,420.00,909.00,699.00,978.00,,,,,,,,,,,,1,1,1,,-1996,16456,-1040,256,294,-197
37.147,37.08,3.76,3.44,0.11,5.73,1.26,4.73,-0.84,4.88,-0.45,746.00,1530.00,196.00,289.00,425.00,896.00,713.00,966.00,,,,,,,,,,,,1,1,1,,-2028,16028,-1032,412,16,-144
37.209,37.13,3.76,3.59,-0.04,7.81,0.19,3.69,0.04,3.63,0.37,750.00,1527.00,200.00,274.00,413.00,912.00,698.00,993.00,,,,,,,,,,,,1,1,1,,-2108,16080,-1216,-110,-114,-185
37.313,37.19,3.77,3.11,0.47,4.48,1.97,4.08,0.04,4.23,0.70,736.00,1535.00,193.00,298.00,410.00,898.00,678.00,961.00,,,,,,,,,,,,1,1,1,,-2116,16072,-1212,-788,-109,-101
37.334,37.24,3.85,3.35,0.46,6.13,2.81,5.25,-0.93,5.65,-0.89,733.00,1521.00,179.00,273.00,423.00,880.00,720.00,948.00,,,,,,,,,,,,1,1,1,,-2072,16384,-828,215,224,-180
37.376,37.30,3.86,3.87,-0.19,9.64,-0.70,4.10,-0.28,3.31,0.77,752.00,1516.00,203.00,261.00,417.00,905.00,687.00,995.00,,,,,,,,,,,,1,1,1,,-2088,16560,-832,725,320,-203
37.396,37.35,3.86,3.16,0.53,6.96,1.72,3.93,0.55,4.31,0.62,733.00,1530.00,187.00,272.00,400.00,891.00,680.00,960.00,,,,,,,,,,,,1,1,1,,-2116,16044,-1312,548,374,-113
37.457,37.41,3.91,2.97,0.89,5.38,3.37,4.86,-0.36,4.89,-0.19,721.00,1526.00,176.00,277.00,413.00,880.00,703.00,959.00,,,,,,,,,,,,1,1,1,,-2000,15904,-1432,-102,242,-142
37.54,37.46,3.94,3.09,1.14,8.31,1.27,4.45,-0.17,3.83,0.75,710.00,1509.00,187.00,261.00,412.00,890.00,681.00,975.00,,,,,,,,,,,,1,1,1,,-1988,16192,-1248,-310,50,-120
37.58,37.52,3.92,3.44,0.11,7.39,0.80,3.57,0.62,3.99,0.49,746.00,1530.00,195.00,274.00,401.00,902.00,689.00,976.00,,,,,,,,,,,,1,1,1,,-2072,16368,-1180,191,42,-73
37.641,37.57,3.94,2.76,0.99,5.42,2.64,4.22,0.04,3.60,0.56,720.00,1535.00,183.00,282.00,409.00,893.00,691.00,989.00,,,,,,,,,,,,1,1,1,,-1956,16064,-980,-126,33,-176
37.681,37.63,3.98,3.27,0.24,6.79,1.29,4.81,-0.96,4.48,-0.21,743.00,1535.00,192.00,277.00,427.00,896.00,709.00,975.00,,,,,,,,,,,,1,1,1,,-2072,16224,-1056,-93,5,-252
37.742,37.68,3.99,3.74,-0.14,8.45,-0.21,4.13,-0.15,3.61,0.51,752.00,1522.00,202.00,270.00,414.00,901.00,693.00,990.00,,,,,,,,,,,,1,1,1,,-2072,16276,-936,36,133,-96
37.783,37.74,4.01,3.35,0.41,6.64,1.25,4.38,0.35,4.44,0.82,735.00,1523.00,193.00,279.00,401.00,880.00,671.00,950.00,,,,,,,,,,,,1,1,1,,-2020,15944,-1268,121,196,-215
37.844,37.79,4.08,3.60,0.63,6.46,3.01,5.54,-0.67,6.08,-0.80,723.00,1499.00,176.00,268.00,415.00,864.00,711.00,930.00,,,,,,,,,,,,1,1,1,,-2176,16100,-1260,-14,169,-168
37.907,37.85,4.14,4.59,-0.43,10.33,-0.56,5.22,-0.16,4.09,0.83,752.00,1483.00,199.00,253.00,406.00,863.00,675.00,963.00,,,,,,,,,,,,1,1,1,,-1992,16228,-1260,-123,212,43
37.948,37.90,4.17,3.56,0.70,8.43,1.22,4.67,0.91,5.38,0.67,721.00,1499.00,187.00,260.00,387.00,857.00,665.00,919.00,,,,,,,,,,,,1,1,1,,-2076,16252,-1248,-45,113,-263
38.052,37.96,4.24,3.35,1.05,7.20,2.76,5.63,0.02,5.51,0.16,710.00,1497.00,176.00,262.00,399.00,845.00,682.00,927.00,,,,,,,,,,,,1,1,1,,-2232,16072,-868,-298,-28,-94
38.073,38.01,4.31,4.06,0.45,9.02,1.53,5.63,-0.12,5.16,0.55,724.00,1479.00,182.00,252.00,402.00,848.00,672.00,930.00,,,,,,,,,,,,1,1,1,,-2108,16196,-952,-188,233,-58
38.114,38.07,4.31,3.76,0.38,9.28,0.26,4.40,1.05,4.80,0.56,731.00,1500.00,194.00,258.00,386.00,863.00,676.00,943.00,,,,,,,,,,,,1,1,1,,-1964,16368,-1224,331,419,-310
38.176,38.12,4.36,3.07,1.04,6.16,2.90,5.25,0.10,4.46,0.87,714.00,1514.00,178.00,272.00,400.00,856.00,669.00,948.00,,,,,,,,,,,,1,1,1,,-2036,15956,-1424,124,61,-126
38.238,38.18,4.42,3.39,0.55,7.74,1.96,5.50,-0.57,5.64,-0.47,729.00,1515.00,182.00,262.00,413.00,863.00,704.00,938.00,,,,,,,,,,,,1,1,1,,-2008,15972,-1152,-94,-55,-151
38.28,38.23,4.40,3.85,-0.10,8.78,0.43,4.06,0.23,4.40,-0.31,749.00,1514.00,194.00,262.00,406.00,894.00,714.00,981.00,,,,,,,,,,,,1,1,1,,-2088,16400,-1080,-274,49,-101
38.342,38.29,4.39,3.00,0.63,6.12,2.00,4.23,0.49,4.29,0.84,731.00,1535.00,187.00,279.00,399.00,882.00,672.00,955.00,,,,,,,,,,,,1,1,1,,-2172,16384,-1128,79,209,-72
38.404,38.34,4.44,3.24,0.58,6.06,3.04,5.35,-0.79,5.79,-0.93,730.00,1523.00,177.00,272.00,419.00,873.00,720.00,944.00,,,,,,,,,,,,1,1,1,,-2060,16308,-1160,44,250,-192
38.465,38.40,4.46,4.18,-0.14,9.45,0.30,4.90,-0.41,4.23,0.87,746.00,1496.00,193.00,256.00,414.00,880.00,672.00,957.00,,,,,,,,,,,,1,1,1,,-2028,15932,-1688,-305,219,-284
38.527,38.45,4.45,3.58,0.61,7.37,1.39,4.17,0.79,5.08,0.47,724.00,1501.00,189.00,270.00,393.00,877.00,676.00,935.00,,,,,,,,,,,,1,1,1,,-2024,15808,-1544,-962,-202,32
38.59,38.51,4.49,3.59,0.97,6.98,3.80,5.38,-0.31,5.36,-0.21,710.00,1486.00,167.00,257.00,408.00,861.00,698.00,942.00,,,,,,,,,,,,1,1,1,,-2228,16692,-584,-1582,-464,120
38.61,38.56,4.53,4.22,0.40,10.25,1.52,5.31,-0.64,5.43,0.08,724.00,1472.00,178.00,240.00,416.00,871.00,686.00,932.00,,,,,,,,,,,,1,1,1,,-2108,16448,-624,-939,159,-142
38.671,38.62,4.52,4.04,0.18,10.46,0.44,4.20,0.36,5.10,0.09,735.00,1491.00,188.00,245.00,402.00,886.00,690.00,944.00,,,,,,,,,,,,1,1,1,,-1920,15972,-1088,-744,482,-267
38.711,38.67,4.52,3.49,0.75,8.36,2.06,4.54,0.07,4.79,0.54,720.00,1501.00,179.00,255.00,406.00,881.00,677.00,944.00,,,,,,,,,,,,1,1,1,,-2124,16408,-632,565,-22,76
38.815,38.73,4.57,3.89,0.48,8.27,2.93,5.47,-1.14,6.53,-1.18,725.00,1488.00,171.00,250.00,426.00,877.00,720.00,923.00,,,,,,,,,,,,1,1,1,,-2312,16672,-84,1113,390,-228
38.835,38.78,4.53,4.31,-0.26,11.58,-0.13,3.91,0.42,4.30,0.41,749.00,1493.00,190.00,238.00,403.00,895.00,688.00,966.00,,,,,,,,,,,,1,1,1,,-2052,15804,-1092,815,843,-292
38.876,38.84,4.49,2.93,0.83,7.58,2.63,3.72,0.52,5.38,0.40,724.00,1531.00,176.00,259.00,402.00,899.00,675.00,926.00,,,,,,,,,,,,1,1,1,,-1788,16088,-1708,-393,340,-434
38.938,38.89,4.53,3.22,0.66,9.24,2.71,5.14,-1.02,6.18,-0.83,727.00,1521.00,170.00,242.00,426.00,886.00,711.00,927.00,,,,,,,,,,,,1,1,1,,-2120,15980,-1084,-279,-228,-228
38.999,38.95,4.51,3.55,0.25,10.21,1.75,4.20,-0.27,4.47,0.90,739.00,1518.00,176.00,239.00,416.00,901.00,668.00,947.00,,,,,,,,,,,,1,1,1,,-2124,16352,-464,-95,-159,114
39.041,39.00,4.47,3.22,0.30,12.12,-3.35,3.75,0.56,5.63,0.42,741.00,1535.00,224.00,254.00,401.00,897.00,671.00,916.00,,,,,,,,,,,,1,1,2,,-2208,16236,-836,-305,414,-262
39.143,39.06,4.49,3.03,1.00,7.49,4.08,4.80,0.02,5.99,0.14,716.00,1518.00,163.00,250.00,405.00,873.00,677.00,910.00,,,,,,,,,,,,1,1,2,,-1924,16088,-1124,-284,106,-89
39.164,39.11,4.53,4.04,0.30,11.61,1.28,5.42,-0.46,6.24,0.36,730.00,1486.00,176.00,229.00,411.00,863.00,666.00,896.00,,,,,,,,,,,,1,1,2,,-1964,16316,-900,-63,-204,-22
39.205,39.17,4.55,4.09,0.21,11.31,1.06,4.87,0.23,5.83,0.30,733.00,1487.00,179.00,233.00,400.00,866.00,673.00,912.00,,,,,,,,,,,,1,1,2,,-2024,16368,-748,87,138,-93
39.265,39.22,4.58,3.62,0.65,9.26,2.06,5.05,0.17,5.36,1.07,722.00,1497.00,176.00,246.00,400.00,861.00,651.00,910.00,,,,,,,,,,,,1,1,2,,-1972,16168,-892,25,361,-108
39.328,39.28,4.67,4.00,0.60,9.36,3.00,6.46,-1.12,7.57,-0.99,719.00,1477.00,167.00,239.00,418.00,843.00,699.00,881.00,,,,,,,,,,,,1,1,2,,-1816,16320,-920,69,211,-9
39.391,39.33,4.71,4.57,-0.20,12.48,-0.33,5.51,0.06,4.92,0.91,743.00,1475.00,189.00,231.00,399.00,848.00,662.00,930.00,,,,,,,,,,,,1,1,2,,-1924,16252,-860,43,138,-342
39.43,39.39,4.74,3.64,0.69,12.15,1.62,5.18,0.64,6.01,0.77,720.00,1494.00,171.00,222.00,389.00,846.00,654.00,894.00,,,,,,,,,,,,1,1,2,,-1852,16152,-1064,91,-143,-152
39.535,39.44,4.79,3.77,0.73,10.06,3.56,5.86,-0.10,6.58,-0.20,717.00,1485.00,160.00,229.00,400.00,840.00,682.00,897.00,,,,,,,,,,,,1,1,2,,-2128,16288,-840,379,-130,-69
39.556,39.50,4.83,4.22,0.37,6.73,3.02,5.56,-0.09,5.41,0.91,725.00,1473.00,175.00,265.00,402.00,850.00,656.00,912.00,,,,,,,,,,,,1,1,2,,-2036,16096,-1040,-73,281,-171
39.596,39.55,4.82,3.76,0.35,11.28,1.60,4.53,0.86,6.05,0.42,732.00,1501.00,174.00,230.00,389.00,863.00,666.00,901.00,,,,,,,,,,,,1,1,2,,-1872,16360,-1020,-60,275,40
39.659,39.61,4.84,3.91,-0.13,5.19,4.74,5.40,-0.09,5.72,0.17,749.00,1511.00,164.00,269.00,403.00,855.00,679.00,919.00,,,,,,,,,,,,1,1,2,,-1852,16256,-996,88,135,-170
39.72,39.66,4.86,3.89,0.31,10.62,1.93,5.20,-0.56,6.08,-0.11,732.00,1495.00,173.00,234.00,415.00,873.00,685.00,913.00,,,,,,,,,,,,1,1,2,,-1872,16512,-1200,434,182,-281
39.761,39.72,4.84,4.00,0.09,11.75,1.23,4.50,0.17,5.41,0.06,739.00,1497.00,176.00,228.00,404.00,880.00,687.00,933.00,,,,,,,,,,,,1,1,2,,-1956,16112,-1260,182,197,-180
39.885,39.77,4.85,2.76,1.81,8.18,3.51,4.94,0.16,5.91,0.47,689.00,1502.00,166.00,247.00,401.00,865.00,666.00,905.00,,,,,,,,,,,,1,1,2,,-1864,16076,-1272,341,249,-317
39.906,39.83,4.93,3.95,0.62,10.22,3.16,6.38,-1.31,7.79,-1.27,719.00,1479.00,163.00,230.00,423.00,850.00,707.00,880.00,,,,,,,,,,,,1,1,2,,-1964,16312,-1240,-88,45,-228
39.926,39.88,4.93,4.75,-0.31,14.15,-0.30,4.92,-0.01,4.84,0.83,745.00,1469.00,183.00,216.00,405.00,870.00,666.00,935.00,,,,,,,,,,,,1,1,2,,-2016,16248,-1032,-127,-129,-142
39.988,39.94,4.93,3.82,0.58,9.65,2.25,5.01,0.28,6.56,0.08,722.00,1488.00,173.00,241.00,398.00,860.00,672.00,891.00,,,,,,,,,,,,1,1,2,,-1992,16180,-1156,-24,50,-82
40.049,39.99,4.99,4.06,0.55,9.59,3.60,6.06,-0.35,7.02,-0.51,720.00,1475.00,161.00,233.00,404.00,839.00,688.00,889.00,,,,,,,,,,,,1,1,2,,-1912,16400,-1152,114,208,-139
40.109,40.05,5.02,4.65,0.23,13.64,0.80,5.64,-0.16,5.51,0.77,725.00,1454.00,174.00,214.00,403.00,849.00,660.00,912.00,,,,,,,,,,,,1,1,2,,-2004,16184,-1444,-286,116,-295
40.171,40.10,5.00,4.04,0.53,11.88,0.87,4.70,1.04,6.04,0.39,721.00,1477.00,179.00,229.00,384.00,853.00,667.00,902.00,,,,,,,,,,,,1,1,2,,-2072,16304,-1120,-109,-187,-140
40.255,40.16,5.03,3.48,1.22,9.38,3.44,5.54,0.24,6.19,0.18,702.00,1483.00,163.00,236.00,395.00,843.00,673.00,902.00,,,,,,,,,,,,1,1,2,,-2116,16296,-956,-143,-75,-90
