Time_Host,Time_Arduino,easingdata,CH1_Oxy,CH1_Deoxy,CH2_Oxy,CH2_Deoxy,CH3_Oxy,CH3_Deoxy,CH4_Oxy,CH4_Deoxy,CH1_PD730,CH1_PD850,CH2_PD730,CH2_PD850,CH3_PD730,CH3_PD850,CH4_PD730,CH4_PD850,Answers,airplane_playstate,trail_times,frameRate,Airplane X,Airplane Y,Correct,Wrong,Slow,AnswerRate,CorrectRate,VFTstates,VFTchoose,VFTCount,Culfstates,ax,ay,az,gx,gy,gz
1.223,0.04,0.00,0.00,0.00,0.00,0.00,0.00,0.00,0.00,0.00,1619.00,2416.00,222.00,147.00,1331.00,2976.00,809.00,1553.00,,,,,,,,,,,,0,0,0,,-896,15568,3852,-119,42,-191
1.243,0.10,0.00,0.00,0.00,0.00,0.00,0.00,0.00,0.00,0.00,1499.00,2672.00,139.00,371.00,1204.00,2896.00,710.00,1488.00,,,,,,,,,,,,0,0,0,,-980,15584,3912,-205,183,-124
1.264,0.16,0.00,0.00,0.00,0.00,0.00,0.00,0.00,0.00,0.00,1385.00,2523.00,21.00,253.00,1428.00,2783.00,922.00,1396.00,,,,,,,,,,,,0,0,0,,-840,15648,3720,-59,158,-225
1.284,0.21,0.00,0.00,0.00,0.00,0.00,0.00,0.00,0.00,0.00,1633.00,2458.00,209.00,194.00,1343.00,2967.00,833.00,1577.00,,,,,,,,,,,,0,0,0,,-988,15604,3824,-56,100,-184
1.304,0.27,0.00,0.00,0.00,0.00,0.00,0.00,0.00,0.00,0.00,1519.00,2601.00,151.00,293.00,1266.00,2928.00,752.00,1505.00,,,,,,,,,,,,0,0,0,,-1028,15540,3756,-66,110,-150
1.325,0.32,0.00,0.00,0.00,0.00,0.00,0.00,0.00,0.00,0.00,1440.00,2544.00,79.00,272.00,1354.00,2879.00,848.00,1472.00,,,,,,,,,,,,0,0,0,,-980,15596,3720,-192,177,-173
1.346,1.06,0.00,0.00,0.00,0.00,0.00,0.00,0.00,0.00,0.00,1622.00,2448.00,223.00,159.00,1332.00,3006.00,799.00,1575.00,,,,,,,,,,,,0,0,0,,-996,15684,3796,-142,96,-120
1.366,1.12,0.00,0.00,0.00,0.00,0.00,0.00,0.00,0.00,0.00,1520.00,2678.00,137.00,350.00,1212.00,2929.00,714.00,1481.00,,,,,,,,,,,,0,0,0,,-972,15608,3864,-149,105,-144
1.408,1.17,0.00,0.00,0.00,0.00,0.00,0.00,0.00,0.00,0.00,1395.00,2555.00,21.00,263.00,1435.00,2818.00,915.00,1396.00,,,,,,,,,,,,0,0,0,,-944,15652,3852,-183,126,-170
1.469,1.23,0.00,0.00,0.00,0.00,0.00,0.00,0.00,0.00,0.00,1665.00,2450.00,240.00,173.00,1344.00,3012.00,814.00,1605.00,,,,,,,,,,,,0,0,0,,-988,15540,3740,-158,155,-134
1.531,1.28,-0.06,-1.25,-0.00,-6.01,-0.13,-1.10,1.11,-1.46,1.83,1565.00,2663.00,162.00,315.00,1273.00,2960.00,755.00,1518.00,,,,,,,,,,,,0,0,0,,-976,15592,4036,-134,51,-175
1.593,1.34,-0.02,-1.15,1.34,-14.94,18.11,0.69,-0.71,1.67,-1.13,1453.00,2559.00,71.00,275.00,1360.00,2896.00,837.00,1452.00,,,,,,,,,,,,0,0,0,,-896,15652,3948,-53,-42,-194
1.654,1.39,0.01,0.32,-0.56,1.78,-1.33,0.62,-0.56,0.08,-0.13,1568.00,2541.00,150.00,239.00,1350.00,2891.00,816.00,1505.00,,,,,,,,,,,,0,0,0,,-924,15636,3940,-90,47,-190
1.717,1.45,0.00,-0.04,-0.05,6.08,-7.04,-0.22,0.23,-0.75,0.66,1535.00,2542.00,189.00,235.00,1314.00,2927.00,794.00,1523.00,,,,,,,,,,,,0,0,0,,-888,15556,3820,-97,98,-277
1.737,1.50,-0.02,-1.15,0.58,-9.07,4.27,-0.49,1.17,-0.43,1.43,1514.00,2612.00,135.00,316.00,1255.00,2885.00,757.00,1473.00,,,,,,,,,,,,0,0,0,,-772,15580,3640,-251,316,-329
1.799,1.56,0.10,-0.87,1.14,-11.54,16.20,2.34,-1.78,3.34,-2.64,1461.00,2544.00,74.00,253.00,1398.00,2791.00,881.00,1415.00,,,,,,,,,,,,0,0,0,,-920,15780,3760,-410,-199,-203
1.899,1.61,0.04,1.91,-1.73,23.90,-16.34,-0.95,0.47,-2.05,1.26,1622.00,2461.00,226.00,149.00,1314.00,2993.00,787.00,1578.00,,,,,,,,,,,,0,0,0,,-1104,15608,4240,71,-302,-163
1.92,1.67,-0.03,-1.92,0.86,-11.31,4.09,-1.47,2.24,-1.66,3.29,1512.00,2672.00,142.00,347.00,1205.00,2913.00,700.00,1471.00,,,,,,,,,,,,0,0,0,,-964,15516,3964,-161,60,-246
1.962,1.72,0.11,-1.59,2.28,inf,inf,2.72,-2.24,4.58,-3.70,1392.00,2539.00,0.00,259.00,1423.00,2783.00,912.00,1386.00,,,,,,,,,,,,0,0,0,,-844,15752,3836,-59,-95,-272
2.046,1.78,0.07,2.54,-2.21,22.96,-15.94,-0.65,0.08,-1.63,0.47,1646.00,2432.00,225.00,153.00,1335.00,2989.00,815.00,1585.00,,,,,,,,,,,,0,0,0,,-1132,15492,3820,96,-44,-136
2.068,1.83,0.02,-1.20,0.34,-5.99,0.92,-0.96,1.24,-1.57,2.31,1535.00,2634.00,153.00,306.00,1261.00,2934.00,737.00,1505.00,,,,,,,,,,,,0,0,0,,-1000,15524,3816,-47,115,-110
2.13,1.89,0.07,-1.23,1.46,-13.73,17.70,0.98,-0.77,2.04,-1.08,1445.00,2558.00,71.00,265.00,1357.00,2867.00,829.00,1429.00,,,,,,,,,,,,0,0,0,,-864,15632,3660,-131,117,-196
2.213,1.94,0.08,0.29,-0.44,0.66,0.32,0.46,-0.54,0.41,-0.22,1558.00,2535.00,140.00,239.00,1353.00,2909.00,815.00,1489.00,,,,,,,,,,,,0,0,0,,-1052,15712,3692,-117,103,-161
2.273,2.00,0.05,0.03,-0.35,5.69,-4.85,-0.58,0.15,-1.02,0.96,1558.00,2555.00,169.00,225.00,1328.00,2975.00,785.00,1527.00,,,,,,,,,,,,0,0,0,,-1040,15660,3868,-141,174,-154
2.293,2.05,0.01,-1.65,0.78,-9.21,3.78,-0.74,0.73,-0.76,1.66,1511.00,2649.00,139.00,322.00,1291.00,2948.00,752.00,1483.00,,,,,,,,,,,,0,0,0,,-1012,15632,3712,-92,105,-212
2.354,2.11,0.09,-1.38,1.34,-15.18,20.99,1.56,-1.76,2.40,-2.15,1459.00,2582.00,61.00,257.00,1417.00,2878.00,873.00,1450.00,,,,,,,,,,,,0,0,0,,-980,15664,3864,-173,138,-156
2.416,2.16,0.03,1.70,-1.80,20.78,-17.95,-1.03,0.23,-2.28,1.43,1635.00,2487.00,261.00,176.00,1333.00,3022.00,783.00,1585.00,,,,,,,,,,,,0,0,0,,-1016,15664,4152,-207,132,-76
2.478,2.22,-0.04,-2.09,0.93,-12.68,4.94,-1.36,2.12,-2.03,3.44,1511.00,2685.00,139.00,358.00,1211.00,2911.00,699.00,1487.00,,,,,,,,,,,,0,0,0,,-952,15564,3868,-65,203,-168
2.541,2.27,0.10,-1.77,2.47,-38.50,53.55,2.64,-2.22,4.67,-3.83,1382.00,2544.00,16.00,270.00,1424.00,2791.00,917.00,1386.00,,,,,,,,,,,,0,0,0,,-928,15584,3876,-125,189,-53
2.561,2.33,0.06,2.41,-2.19,21.84,-15.73,-0.66,0.05,-1.67,0.58,1648.00,2443.00,227.00,159.00,1337.00,2992.00,811.00,1583.00,,,,,,,,,,,,0,0,0,,-916,15532,3944,-110,195,-108
2.644,2.38,0.01,-1.28,0.37,-4.94,-0.37,-0.92,1.25,-1.55,2.43,1535.00,2640.00,161.00,304.00,1259.00,2928.00,732.00,1499.00,,,,,,,,,,,,0,0,0,,-896,15596,3876,-124,168,-125
2.706,2.44,0.06,-1.40,1.70,-14.81,18.33,0.94,-0.68,1.96,-1.12,1431.00,2559.00,70.00,272.00,1351.00,2864.00,832.00,1435.00,,,,,,,,,,,,0,0,0,,-968,15596,3960,-98,140,-59
2.727,2.49,0.08,-0.07,-0.04,0.28,1.68,0.60,-0.59,0.22,0.12,1535.00,2544.00,131.00,234.00,1353.00,2896.00,803.00,1487.00,,,,,,,,,,,,0,0,0,,-904,15788,3820,-58,157,-173
2.789,2.55,0.05,0.09,-0.08,6.24,-4.48,-0.64,0.31,-1.15,0.98,1534.00,2531.00,164.00,218.00,1318.00,2969.00,786.00,1534.00,,,,,,,,,,,,0,0,0,,-936,15604,3884,-131,124,-187
2.85,2.60,-0.00,-1.64,0.90,-10.85,5.85,-0.99,1.17,-0.65,1.53,1501.00,2640.00,128.00,325.00,1266.00,2942.00,756.00,1482.00,,,,,,,,,,,,0,0,0,,-844,15608,3872,-105,82,-171
2.912,2.66,0.08,-0.96,1.18,-15.16,20.10,1.75,-1.73,2.96,-2.47,1460.00,2550.00,64.00,263.00,1409.00,2853.00,879.00,1430.00,,,,,,,,,,,,0,0,0,,-960,15640,3900,-125,98,-169
3.016,2.71,-0.01,1.67,-1.66,18.95,-14.18,-1.79,0.99,-2.14,1.01,1623.00,2480.00,220.00,171.00,1297.00,3051.00,799.00,1594.00,,,,,,,,,,,,0,0,0,,-848,15652,3856,-94,133,-210
3.058,2.77,-0.12,-2.36,0.94,-12.67,4.42,-2.13,2.30,-2.52,3.77,1518.00,2714.00,143.00,363.00,1216.00,2986.00,693.00,1503.00,,,,,,,,,,,,0,0,0,,-1084,15596,3904,-135,106,-148
3.079,2.82,-0.01,-2.40,2.64,-38.74,53.63,2.06,-2.32,3.74,-3.53,1385.00,2596.00,16.00,272.00,1447.00,2864.00,918.00,1427.00,,,,,,,,,,,,0,0,0,,-948,15776,3932,-80,107,-127
3.12,2.88,-0.07,1.79,-2.00,18.63,-14.57,-1.29,0.02,-2.29,0.78,1650.00,2491.00,226.00,175.00,1355.00,3071.00,811.00,1613.00,,,,,,,,,,,,0,0,0,,-896,15624,3932,-22,190,-206
3.182,2.93,-0.13,-1.42,0.09,-6.83,0.73,-1.21,1.23,-1.70,2.13,1562.00,2674.00,157.00,318.00,1267.00,2963.00,746.00,1520.00,,,,,,,,,,,,0,0,0,,-960,15532,3844,-184,95,-159
3.244,2.99,-0.08,-1.60,1.65,-14.91,19.45,0.85,-0.58,1.78,-0.99,1440.00,2583.00,66.00,265.00,1346.00,2867.00,829.00,1440.00,,,,,,,,,,,,0,0,0,,-952,15760,3864,-78,112,-182
3.326,3.04,-0.05,-0.31,0.33,-0.20,1.28,0.58,-0.34,0.55,-0.40,1511.00,2543.00,135.00,241.00,1335.00,2879.00,821.00,1488.00,,,,,,,,,,,,0,0,0,,-1012,15524,3912,-41,154,-129
3.367,3.10,-0.06,-0.17,0.13,5.99,-3.94,-0.42,0.26,-1.34,1.23,1524.00,2543.00,160.00,217.00,1316.00,2947.00,778.00,1535.00,,,,,,,,,,,,0,0,0,,-1068,15552,3712,-158,157,-201
3.388,3.15,-0.09,-1.76,1.08,-11.72,6.00,-0.65,1.09,-0.81,1.39,1490.00,2640.00,129.00,335.00,1264.00,2909.00,764.00,1497.00,,,,,,,,,,,,0,0,0,,-896,15752,3832,-72,108,-84
3.45,3.21,0.01,-1.18,1.60,-15.85,21.83,1.96,-1.78,2.66,-2.26,1433.00,2544.00,59.00,258.00,1408.00,2834.00,874.00,1439.00,,,,,,,,,,,,0,0,0,,-948,15580,3992,-122,121,-139
3.509,3.26,-0.04,1.92,-1.66,20.67,-14.92,-1.00,0.25,-2.47,1.35,1616.00,2456.00,222.00,163.00,1331.00,3017.00,789.00,1600.00,,,,,,,,,,,,0,0,0,,-964,15704,3844,-112,132,-75
3.571,3.32,-0.12,-2.40,1.34,-14.00,6.06,-1.66,2.26,-2.13,3.21,1486.00,2688.00,134.00,366.00,1208.00,2934.00,709.00,1502.00,,,,,,,,,,,,0,0,0,,-972,15704,3796,-105,141,-199
3.612,3.37,-0.00,-2.06,2.80,-40.54,56.70,2.27,-2.17,4.14,-3.61,1365.00,2551.00,14.00,269.00,1430.00,2829.00,915.00,1407.00,,,,,,,,,,,,0,0,0,,-968,15576,3944,-102,101,-187
3.672,3.43,-0.05,2.18,-2.00,20.42,-15.00,-0.88,-0.09,-2.18,0.79,1638.00,2453.00,224.00,165.00,1353.00,3030.00,809.00,1606.00,,,,,,,,,,,,0,0,0,,-1060,15744,3960,-92,138,-151
3.736,3.48,-0.11,-1.35,0.39,-6.75,2.30,-1.31,1.31,-1.80,2.29,1535.00,2646.00,144.00,304.00,1264.00,2969.00,741.00,1520.00,,,,,,,,,,,,0,0,0,,-844,15608,4096,-113,170,-128
3.796,3.54,-0.08,-1.41,1.72,-17.52,20.33,0.42,-0.61,1.25,-0.92,1430.00,2559.00,66.00,287.00,1359.00,2919.00,834.00,1468.00,,,,,,,,,,,,0,0,0,,-912,15636,3992,-108,154,-120
3.859,3.59,-0.07,-0.26,0.02,-3.68,4.18,0.15,-0.52,0.17,-0.36,1535.00,2559.00,123.00,256.00,1359.00,2943.00,825.00,1509.00,,,,,,,,,,,,0,0,0,,-1036,15596,3924,-77,150,-138
3.88,3.65,-0.12,-0.26,0.02,5.30,-3.93,-0.96,0.10,-1.26,0.39,1535.00,2559.00,162.00,223.00,1341.00,3024.00,813.00,1565.00,,,,,,,,,,,,0,0,0,,-872,15608,3876,-71,145,-165
3.983,3.70,-0.17,-2.18,1.01,-12.49,6.26,-1.14,0.92,-1.35,1.74,1507.00,2689.00,129.00,343.00,1287.00,2980.00,757.00,1515.00,,,,,,,,,,,,0,0,0,,-892,15756,3760,-139,101,-257
4.002,3.76,-0.07,-1.46,1.48,-16.90,21.27,1.84,-1.72,2.76,-2.40,1450.00,2581.00,62.00,273.00,1406.00,2842.00,879.00,1439.00,,,,,,,,,,,,0,0,0,,-1004,15532,3944,-153,130,-138
4.064,3.81,-0.11,1.84,-1.63,21.06,-14.80,-0.95,0.28,-2.34,1.19,1616.00,2462.00,219.00,160.00,1328.00,3009.00,794.00,1599.00,,,,,,,,,,,,0,0,0,,-948,15628,3940,-29,190,-143
4.125,3.87,-0.18,-2.33,1.21,-14.27,6.57,-1.49,2.33,-2.09,3.33,1495.00,2691.00,131.00,365.00,1200.00,2909.00,704.00,1495.00,,,,,,,,,,,,0,0,0,,-996,15584,3732,-105,177,-135
4.167,3.92,-0.04,-1.78,2.51,-36.89,53.01,2.57,-2.21,4.08,-3.38,1379.00,2542.00,16.00,257.00,1425.00,2798.00,905.00,1402.00,,,,,,,,,,,,0,0,0,,-976,15552,3736,-100,152,-106
4.229,3.98,-0.07,2.08,-1.77,16.94,-12.29,-0.62,-0.04,-1.88,0.69,1621.00,2448.00,206.00,176.00,1343.00,2995.00,809.00,1591.00,,,,,,,,,,,,0,0,0,,-948,15568,3892,-132,77,-196
4.291,4.03,-0.12,-1.11,0.42,-4.90,0.44,-0.96,1.33,-1.81,2.39,1526.00,2619.00,154.00,297.00,1255.00,2927.00,737.00,1516.00,,,,,,,,,,,,0,0,0,,-972,15584,4056,-156,155,-105
4.353,4.09,-0.08,-1.31,1.76,-15.64,19.69,0.59,-0.34,1.42,-0.87,1424.00,2546.00,66.00,271.00,1335.00,2878.00,829.00,1456.00,,,,,,,,,,,,0,0,0,,-940,15648,3920,-62,100,-152
4.395,4.14,-0.07,-0.10,0.15,-2.65,4.13,0.06,0.03,0.20,-0.12,1520.00,2534.00,121.00,246.00,1321.00,2910.00,814.00,1498.00,,,,,,,,,,,,0,0,0,,-1020,15592,3952,-88,93,-168
4.476,4.20,-0.10,0.04,0.03,5.24,-3.33,-0.66,0.38,-1.19,1.02,1526.00,2528.00,157.00,220.00,1314.00,2967.00,785.00,1535.00,,,,,,,,,,,,0,0,0,,-1056,15508,3828,-55,118,-154
4.497,4.25,-0.15,-1.84,0.96,-12.49,6.69,-1.10,1.33,-1.33,1.86,1502.00,2657.00,126.00,339.00,1258.00,2943.00,752.00,1509.00,,,,,,,,,,,,0,0,0,,-1060,15532,4124,-124,110,-135
4.558,4.31,-0.06,-1.13,1.30,-15.18,20.99,1.66,-1.76,2.59,-2.37,1455.00,2559.00,61.00,257.00,1414.00,2866.00,880.00,1447.00,,,,,,,,,,,,0,0,0,,-860,15680,3988,-83,179,-195
4.601,4.36,-0.13,1.74,-1.68,18.87,-14.48,-1.42,0.35,-2.73,1.46,1623.00,2475.00,224.00,173.00,1334.00,3059.00,788.00,1612.00,,,,,,,,,,,,0,0,0,,-984,15520,3888,-163,98,-149
4.662,4.42,-0.23,-2.27,0.70,-15.18,7.31,-2.11,2.34,-2.66,3.49,1535.00,2721.00,128.00,371.00,1213.00,2981.00,705.00,1522.00,,,,,,,,,,,,0,0,0,,-908,15732,4064,-79,106,-117
4.725,4.47,-0.12,-2.36,2.55,-35.00,48.25,1.98,-2.17,3.70,-3.40,1391.00,2599.00,20.00,271.00,1437.00,2861.00,912.00,1424.00,,,,,,,,,,,,0,0,0,,-964,15608,3840,-87,157,-211
4.787,4.53,-0.15,1.67,-1.94,18.12,-14.23,-0.81,0.01,-1.90,0.65,1648.00,2499.00,224.00,177.00,1344.00,3014.00,811.00,1594.00,,,,,,,,,,,,0,0,0,,-988,15448,4044,-124,39,-176
4.851,4.58,-0.20,-1.37,0.40,-5.91,-0.28,-1.05,1.34,-1.81,2.39,1535.00,2647.00,163.00,315.00,1256.00,2936.00,737.00,1516.00,,,,,,,,,,,,0,0,0,,-932,15556,3972,-86,137,-116
4.87,4.64,-0.16,-1.34,1.62,-15.40,19.33,0.68,-0.27,1.31,-0.70,1436.00,2559.00,67.00,271.00,1328.00,2863.00,823.00,1456.00,,,,,,,,,,,,0,0,0,,-920,15580,3812,-14,166,-120
4.932,4.69,-0.12,-0.28,0.08,-3.04,3.66,0.54,-0.22,0.42,-0.19,1531.00,2557.00,125.00,253.00,1328.00,2875.00,814.00,1488.00,,,,,,,,,,,,0,0,0,,-1004,15504,3924,-155,122,-163
4.993,4.75,-0.13,0.11,-0.04,6.86,-5.56,-0.39,0.24,-1.36,1.26,1530.00,2526.00,172.00,219.00,1317.00,2946.00,777.00,1535.00,,,,,,,,,,,,0,0,0,,-932,15660,3684,-95,129,-152
5.054,4.80,-0.16,-1.79,1.05,-12.00,6.53,-0.71,1.20,-0.78,1.57,1493.00,2645.00,126.00,334.00,1258.00,2908.00,756.00,1488.00,,,,,,,,,,,,0,0,0,,-1048,15468,3972,-174,108,-102
5.095,4.86,-0.06,-0.83,1.18,-14.15,20.05,1.96,-1.66,2.80,-2.33,1457.00,2538.00,63.00,253.00,1399.00,2825.00,875.00,1434.00,,,,,,,,,,,,0,0,0,,-808,15740,3848,-84,129,-157
5.159,4.91,-0.11,1.82,-1.66,19.29,-14.46,-1.16,0.47,-2.55,1.50,1619.00,2466.00,222.00,170.00,1319.00,3018.00,784.00,1599.00,,,,,,,,,,,,0,0,0,,-960,15564,3896,-74,105,-197
5.262,4.97,-0.19,-2.40,1.13,-13.17,4.85,-1.68,2.22,-2.83,3.92,1503.00,2704.00,141.00,366.00,1211.00,2939.00,691.00,1515.00,,,,,,,,,,,,0,0,0,,-1004,15536,3672,-139,61,-170
5.284,5.02,-0.07,-2.02,2.62,-37.64,53.26,2.22,-2.14,3.89,-3.36,1377.00,2559.00,16.00,263.00,1429.00,2832.00,907.00,1412.00,,,,,,,,,,,,0,0,0,,-1056,15648,4080,-156,103,-131
5.324,5.08,-0.11,1.83,-1.86,17.27,-13.18,-0.93,0.05,-2.24,1.02,1636.00,2478.00,215.00,178.00,1344.00,3025.00,800.00,1600.00,,,,,,,,,,,,0,0,0,,-1064,15640,3872,-138,174,-138
5.386,5.13,-0.17,-1.32,0.14,-5.36,0.11,-1.22,1.25,-2.11,2.57,1555.00,2660.00,158.00,305.00,1266.00,2963.00,734.00,1527.00,,,,,,,,,,,,0,0,0,,-888,15668,3856,-136,158,-145
5.448,5.19,-0.14,-1.98,1.86,-16.86,20.67,0.30,-0.42,1.17,-0.85,1434.00,2608.00,64.00,277.00,1348.00,2918.00,832.00,1470.00,,,,,,,,,,,,0,0,0,,-944,15668,3872,-70,133,-116
5.49,5.24,-0.14,-0.80,0.31,-4.57,4.63,-0.08,-0.33,-0.05,-0.17,1526.00,2594.00,122.00,262.00,1351.00,2955.00,820.00,1515.00,,,,,,,,,,,,0,0,0,,-936,15428,3896,-57,166,-142
5.572,5.30,-0.18,-0.26,-0.37,4.33,-3.49,-0.84,0.15,-1.72,1.22,1568.00,2586.00,161.00,229.00,1334.00,3005.00,784.00,1559.00,,,,,,,,,,,,0,0,0,,-884,15732,3892,-162,80,-206
5.592,5.35,-0.21,-1.99,0.92,-12.78,6.79,-0.79,1.09,-1.00,1.75,1509.00,2675.00,126.00,342.00,1267.00,2925.00,752.00,1494.00,,,,,,,,,,,,0,0,0,,-960,15704,3884,-40,136,-168
5.654,5.41,-0.10,-1.09,1.25,-17.37,23.64,2.00,-1.68,2.73,-2.20,1458.00,2559.00,55.00,261.00,1399.00,2821.00,870.00,1433.00,,,,,,,,,,,,0,0,0,,-860,15560,3784,-66,212,-152
5.717,5.46,-0.15,1.91,-1.82,18.49,-14.35,-1.14,0.52,-2.71,1.67,1630.00,2467.00,224.00,175.00,1315.00,3012.00,779.00,1602.00,,,,,,,,,,,,0,0,0,,-960,15592,3800,-100,114,-114
5.776,5.52,-0.22,-2.45,1.06,-13.01,4.40,-1.61,2.20,-2.81,3.92,1510.00,2714.00,144.00,368.00,1211.00,2933.00,691.00,1514.00,,,,,,,,,,,,0,0,0,,-972,15712,3924,-24,171,-94
5.818,5.57,-0.09,-1.98,2.57,-39.57,53.91,2.36,-2.06,3.77,-3.16,1380.00,2559.00,16.00,279.00,1419.00,2810.00,899.00,1411.00,,,,,,,,,,,,0,0,0,,-856,15528,3756,-100,174,-139
5.878,5.63,-0.12,2.18,-2.12,18.42,-14.25,-0.63,0.02,-2.10,1.11,1649.00,2461.00,223.00,175.00,1339.00,2992.00,794.00,1587.00,,,,,,,,,,,,0,0,0,,-904,15632,3948,-106,42,-159
5.94,5.68,-0.17,-1.20,0.34,-4.53,-0.74,-1.13,1.28,-1.85,2.35,1535.00,2634.00,163.00,302.00,1262.00,2950.00,739.00,1520.00,,,,,,,,,,,,0,0,0,,-844,15556,3952,-123,79,-177
5.982,5.74,-0.14,-1.40,1.70,-15.28,19.57,0.49,-0.39,1.11,-0.77,1431.00,2559.00,66.00,268.00,1341.00,2893.00,829.00,1470.00,,,,,,,,,,,,0,0,0,,-892,15688,3768,-84,110,-209
6.043,5.79,-0.13,-0.39,0.21,-3.44,4.55,0.04,-0.37,0.04,-0.11,1523.00,2559.00,120.00,251.00,1351.00,2944.00,816.00,1507.00,,,,,,,,,,,,0,0,0,,-912,15564,3768,-114,100,-168
6.105,5.85,-0.16,0.05,-0.28,6.09,-3.74,-0.86,0.32,-0.70,0.78,1552.00,2549.00,158.00,215.00,1323.00,2995.00,788.00,1515.00,,,,,,,,,,,,0,0,0,,-868,15712,3876,-89,52,-131
6.167,5.90,-0.22,-1.95,0.99,-12.14,5.86,-1.23,1.28,-1.48,1.91,1502.00,2666.00,131.00,342.00,1264.00,2961.00,752.00,1516.00,,,,,,,,,,,,0,0,0,,-1064,15584,3960,-148,142,-199
6.227,5.96,-0.14,-1.49,1.49,-15.04,20.35,1.41,-1.60,2.21,-2.01,1450.00,2583.00,63.00,260.00,1408.00,2882.00,869.00,1455.00,,,,,,,,,,,,0,0,0,,-868,15596,3764,-76,40,-116
6.329,6.01,-0.21,1.50,-1.71,21.19,-14.76,-1.60,0.47,-2.87,1.61,1633.00,2501.00,218.00,159.00,1330.00,3071.00,784.00,1615.00,,,,,,,,,,,,0,0,0,,-928,15644,3820,-70,147,-175
6.35,6.07,-0.29,-2.69,1.03,-14.72,6.72,-1.81,2.13,-2.89,3.86,1519.00,2742.00,131.00,370.00,1220.00,2962.00,694.00,1521.00,,,,,,,,,,,,0,0,0,,-976,15500,3756,-217,61,-230
6.37,6.12,-0.16,-2.33,2.65,-37.14,53.09,2.21,-2.04,3.76,-3.09,1383.00,2589.00,16.00,259.00,1421.00,2825.00,896.00,1409.00,,,,,,,,,,,,0,0,0,,-864,15636,3904,-89,93,-154
6.431,6.18,-0.19,2.07,-1.94,18.34,-14.14,-0.63,-0.01,-2.08,1.03,1636.00,2460.00,222.00,175.00,1341.00,2994.00,797.00,1589.00,,,,,,,,,,,,0,0,0,,-964,15560,3772,-65,135,-162
6.515,6.23,-0.22,-1.28,0.37,-6.09,0.72,-0.87,1.23,-2.03,2.61,1535.00,2640.00,155.00,309.00,1259.00,2923.00,731.00,1520.00,,,,,,,,,,,,0,0,0,,-956,15668,3908,-146,95,-165
6.555,6.29,-0.18,-1.44,1.77,-13.08,16.47,0.57,-0.29,1.08,-0.60,1427.00,2559.00,75.00,267.00,1332.00,2877.00,822.00,1465.00,,,,,,,,,,,,0,0,0,,-876,15712,3936,-44,107,-120
6.575,6.34,-0.15,-0.21,0.18,-2.13,2.92,0.52,-0.47,0.26,-0.19,1521.00,2544.00,128.00,249.00,1346.00,2896.00,816.00,1497.00,,,,,,,,,,,,0,0,0,,-1040,15588,3896,-117,129,-164
6.676,6.40,-0.17,0.14,-0.11,6.60,-4.14,-0.58,0.28,-1.32,1.20,1535.00,2528.00,160.00,213.00,1319.00,2965.00,779.00,1535.00,,,,,,,,,,,,0,0,0,,-920,15664,3832,-48,82,-164
6.697,6.45,-0.21,-1.77,0.91,-13.30,7.56,-0.91,1.23,-1.13,1.67,1504.00,2653.00,122.00,342.00,1260.00,2928.00,757.00,1505.00,,,,,,,,,,,,0,0,0,,-924,15680,3908,-89,113,-233
6.758,6.51,-0.09,-1.31,1.57,-17.72,24.44,2.13,-1.84,2.32,-2.17,1439.00,2559.00,53.00,259.00,1408.00,2819.00,875.00,1455.00,,,,,,,,,,,,0,0,0,,-976,15576,3932,-101,81,-180
6.8,6.56,-0.15,1.71,-1.70,19.00,-14.02,-1.38,0.46,-2.85,1.60,1626.00,2479.00,218.00,170.00,1325.00,3045.00,784.00,1614.00,,,,,,,,,,,,0,0,0,,-972,15544,3828,-107,98,-126
6.862,6.62,-0.24,-2.51,1.21,-14.91,6.51,-1.96,2.38,-3.03,4.02,1500.00,2710.00,133.00,375.00,1207.00,2960.00,690.00,1523.00,,,,,,,,,,,,0,0,0,,-928,15712,4016,-90,148,-128
6.924,6.67,-0.13,-1.89,2.43,-43.29,60.47,2.13,-2.22,3.64,-3.34,1388.00,2559.00,12.00,271.00,1437.00,2848.00,910.00,1425.00,,,,,,,,,,,,0,0,0,,-888,15632,3884,-118,115,-120
6.966,6.73,-0.18,1.77,-1.95,18.12,-14.23,-1.14,0.02,-2.47,0.98,1646.00,2490.00,224.00,177.00,1351.00,3052.00,805.00,1616.00,,,,,,,,,,,,0,0,0,,-928,15656,3880,-120,140,-109
7.068,6.78,-0.24,-1.67,0.50,-7.56,1.69,-1.52,1.23,-3.02,2.92,1535.00,2672.00,151.00,319.00,1274.00,2999.00,732.00,1568.00,,,,,,,,,,,,0,0,0,,-908,15588,3868,-74,169,-198
7.089,6.84,-0.22,-1.80,1.59,-16.74,20.63,0.26,-0.45,0.93,-0.71,1450.00,2608.00,64.00,276.00,1351.00,2924.00,829.00,1478.00,,,,,,,,,,,,0,0,0,,-956,15692,3800,-107,52,-281
7.172,6.89,-0.19,-0.30,0.09,-3.42,3.35,0.43,-0.37,-0.02,-0.05,1531.00,2559.00,128.00,259.00,1341.00,2899.00,814.00,1508.00,,,,,,,,,,,,0,0,0,,-968,15680,3900,-141,110,-110
7.193,6.95,-0.21,-0.26,0.02,6.13,-3.28,-0.66,0.43,-1.10,1.03,1535.00,2559.00,154.00,212.00,1310.00,2962.00,783.00,1529.00,,,,,,,,,,,,0,0,0,,-972,15568,4012,-34,189,-129
7.234,7.00,-0.23,-1.80,0.92,-11.94,6.22,-0.63,1.23,-1.42,2.36,1504.00,2655.00,128.00,336.00,1254.00,2896.00,733.00,1494.00,,,,,,,,,,,,0,0,0,,-968,15652,3748,-91,186,-172
7.297,7.06,-0.11,-1.07,1.45,-16.95,24.18,2.17,-1.68,2.60,-1.99,1442.00,2543.00,53.00,253.00,1395.00,2803.00,862.00,1432.00,,,,,,,,,,,,0,0,0,,-920,15532,3780,-125,115,-88
7.359,7.11,-0.15,2.26,-1.76,21.78,-14.44,-1.00,0.53,-2.55,1.52,1615.00,2430.00,212.00,154.00,1311.00,2994.00,783.00,1598.00,,,,,,,,,,,,0,0,0,,-864,15596,3744,-158,121,-229
7.422,7.17,-0.23,-2.04,1.02,-14.38,7.04,-1.67,2.58,-2.31,3.83,1502.00,2673.00,128.00,362.00,1188.00,2911.00,688.00,1488.00,,,,,,,,,,,,0,0,0,,-936,15676,3900,-154,99,-108
7.483,7.22,-0.09,-1.71,2.68,-37.01,53.05,2.63,-2.22,3.79,-3.06,1365.00,2524.00,16.00,258.00,1424.00,2792.00,894.00,1406.00,,,,,,,,,,,,0,0,0,,-944,15692,3956,-58,73,-210
7.545,7.28,-0.11,2.57,-1.99,20.65,-14.66,-0.58,0.17,-2.10,1.18,1626.00,2415.00,219.00,162.00,1327.00,2974.00,791.00,1584.00,,,,,,,,,,,,0,0,0,,-1040,15532,3880,-54,119,-180
7.565,7.33,-0.16,-1.00,0.39,-4.30,-0.70,-1.05,1.44,-1.94,2.81,1525.00,2609.00,162.00,299.00,1249.00,2928.00,722.00,1507.00,,,,,,,,,,,,0,0,0,,-964,15504,3828,-116,101,-221
7.628,7.39,-0.10,-1.32,1.78,-15.90,20.35,0.97,-0.66,1.45,-0.84,1423.00,2546.00,64.00,269.00,1349.00,2860.00,827.00,1453.00,,,,,,,,,,,,0,0,0,,-936,15636,3736,-126,121,-153
7.69,7.44,-0.07,0.18,0.06,-0.80,2.33,0.46,-0.36,-0.11,0.23,1520.00,2513.00,129.00,240.00,1340.00,2895.00,803.00,1502.00,,,,,,,,,,,,0,0,0,,-936,15672,3876,-125,142,-164
7.813,7.50,-0.10,0.19,-0.06,6.71,-3.94,-0.59,0.32,-1.25,1.11,1529.00,2519.00,158.00,211.00,1316.00,2963.00,782.00,1535.00,,,,,,,,,,,,0,0,0,,-968,15628,3904,-108,124,-120
7.834,7.55,-0.14,-1.56,0.92,-11.87,6.34,-0.96,1.18,-0.98,1.74,1497.00,2630.00,127.00,334.00,1265.00,2938.00,752.00,1493.00,,,,,,,,,,,,0,0,0,,-900,15572,3908,-89,138,-164
7.875,7.61,-0.05,-1.07,1.44,-14.54,20.78,1.72,-1.49,2.46,-1.96,1443.00,2544.00,61.00,252.00,1392.00,2839.00,863.00,1439.00,,,,,,,,,,,,0,0,0,,-960,15652,3868,-78,77,-201
7.896,7.66,-0.09,2.16,-1.70,20.55,-14.29,-0.86,0.54,-2.34,1.59,1613.00,2436.00,215.00,161.00,1307.00,2977.00,777.00,1582.00,,,,,,,,,,,,0,0,0,,-1060,15568,4024,-119,132,-142
7.958,7.72,-0.14,-1.86,1.15,-13.46,6.73,-1.08,2.30,-2.64,4.32,1487.00,2645.00,128.00,352.00,1193.00,2865.00,674.00,1488.00,,,,,,,,,,,,0,0,0,,-1076,15688,3996,-25,159,-119
8.021,7.77,0.02,-1.41,2.64,-35.59,52.57,3.10,-2.17,4.04,-2.91,1360.00,2496.00,16.00,247.00,1408.00,2737.00,883.00,1387.00,,,,,,,,,,,,0,0,0,,-908,15508,3828,-90,195,-133
8.083,7.83,0.01,2.99,-2.02,22.94,-14.92,-0.12,0.07,-1.50,0.82,1616.00,2377.00,213.00,149.00,1323.00,2928.00,798.00,1562.00,,,,,,,,,,,,0,0,0,,-968,15572,3780,-156,100,-86
8.164,7.88,-0.01,-0.59,0.51,-4.98,1.70,-0.56,1.53,-1.38,2.73,1504.00,2559.00,144.00,288.00,1232.00,2865.00,718.00,1477.00,,,,,,,,,,,,0,0,0,,-876,15616,3816,-128,114,-216
8.185,7.94,0.06,-0.56,1.80,-16.08,21.60,1.49,-0.50,1.93,-0.64,1402.00,2469.00,60.00,262.00,1325.00,2790.00,811.00,1418.00,,,,,,,,,,,,0,0,0,,-988,15684,3912,-123,122,-137
8.246,7.99,0.12,0.89,-0.02,1.06,1.99,1.30,-0.58,0.81,-0.14,1507.00,2448.00,127.00,225.00,1335.00,2816.00,806.00,1463.00,,,,,,,,,,,,0,0,0,,-952,15744,3872,-98,81,-157
8.286,8.05,0.12,0.81,0.18,6.22,-2.70,0.03,0.30,-0.92,1.47,1493.00,2443.00,149.00,208.00,1303.00,2893.00,762.00,1500.00,,,,,,,,,,,,0,0,0,,-1048,15640,3864,-77,133,-176
8.349,8.10,0.10,-0.81,1.06,-8.81,5.46,-0.29,1.20,-0.57,1.95,1466.00,2544.00,126.00,303.00,1248.00,2859.00,738.00,1461.00,,,,,,,,,,,,0,0,0,,-1024,15668,3896,-106,104,-164
8.412,8.16,0.22,-0.25,1.53,-16.97,26.02,2.49,-1.71,3.06,-1.80,1414.00,2456.00,48.00,241.00,1389.00,2770.00,846.00,1399.00,,,,,,,,,,,,0,0,0,,-904,15632,3932,-94,139,-116
8.453,8.21,0.18,2.52,-1.52,22.43,-14.66,-0.61,0.39,-2.12,1.66,1586.00,2389.00,212.00,151.00,1312.00,2960.00,771.00,1565.00,,,,,,,,,,,,0,0,0,,-960,15692,3884,-101,112,-162
8.514,8.27,0.11,-1.29,0.97,-12.23,6.32,-1.07,2.27,-2.67,4.63,1486.00,2599.00,128.00,339.00,1195.00,2866.00,663.00,1477.00,,,,,,,,,,,,0,0,0,,-952,15524,3900,-63,143,-120
8.576,8.32,0.26,-1.14,2.56,-38.15,55.90,3.03,-2.29,4.47,-3.29,1360.00,2476.00,14.00,250.00,1419.00,2753.00,894.00,1377.00,,,,,,,,,,,,0,0,0,,-848,15664,3808,-88,119,-162
8.637,8.38,0.23,3.09,-2.05,25.42,-16.52,-0.38,0.09,-1.72,1.26,1616.00,2370.00,222.00,141.00,1328.00,2957.00,782.00,1557.00,,,,,,,,,,,,0,0,0,,-984,15688,3912,-179,45,-280
8.72,8.43,0.20,-0.20,0.34,-4.55,0.68,-0.26,1.43,-1.20,2.74,1507.00,2531.00,151.00,291.00,1232.00,2839.00,715.00,1466.00,,,,,,,,,,,,0,0,0,,-1032,15672,3932,-79,97,-123
8.74,8.49,0.28,-0.28,1.70,-16.95,24.18,1.73,-0.44,2.19,-0.52,1402.00,2448.00,53.00,253.00,1315.00,2759.00,802.00,1399.00,,,,,,,,,,,,0,0,0,,-916,15528,3972,-20,179,-125
8.801,8.54,0.35,1.48,-0.16,4.24,-0.48,1.66,-0.48,0.92,0.24,1502.00,2401.00,137.00,212.00,1319.00,2769.00,788.00,1442.00,,,,,,,,,,,,0,0,0,,-912,15664,3700,-108,143,-170
8.884,8.60,0.35,1.31,-0.05,7.51,-3.13,0.42,0.49,-0.39,1.27,1498.00,2410.00,149.00,200.00,1280.00,2833.00,763.00,1477.00,,,,,,,,,,,,0,0,0,,-968,15580,3864,-71,127,-162
8.905,8.65,0.35,-0.16,1.04,-7.10,5.48,0.41,0.98,-0.23,2.11,1450.00,2480.00,122.00,283.00,1247.00,2798.00,727.00,1435.00,,,,,,,,,,,,0,0,0,,-856,15740,3828,-134,108,-175
8.947,8.71,0.50,0.20,1.48,-13.21,21.58,3.34,-1.76,3.34,-1.91,1407.00,2417.00,57.00,234.00,1371.00,2681.00,847.00,1388.00,,,,,,,,,,,,0,0,0,,-1000,15668,3892,-107,122,-111
9.008,8.76,0.47,3.19,-1.52,26.11,-15.63,-0.14,0.45,-1.57,1.57,1567.00,2327.00,209.00,134.00,1296.00,2900.00,767.00,1535.00,,,,,,,,,,,,0,0,0,,-892,15632,3924,-90,94,-160
9.07,8.82,0.41,-0.74,1.16,-11.83,7.07,-0.78,2.43,-1.80,4.15,1456.00,2530.00,122.00,327.00,1178.00,2821.00,670.00,1446.00,,,,,,,,,,,,0,0,0,,-1040,15640,3860,-63,103,-157
9.132,8.87,0.56,-0.68,2.74,-53.23,79.98,3.46,-2.25,4.88,-3.16,1335.00,2419.00,5.00,238.00,1405.00,2704.00,881.00,1350.00,,,,,,,,,,,,0,0,0,,-908,15588,3840,-111,111,-145
9.195,8.93,0.53,3.90,-2.15,28.08,-18.54,0.01,0.08,-1.52,1.51,1601.00,2301.00,236.00,134.00,1319.00,2912.00,769.00,1535.00,,,,,,,,,,,,0,0,0,,-1008,15660,3784,-106,81,-112
9.257,8.98,0.50,-0.21,0.57,-5.22,0.91,-0.25,1.25,-1.34,2.92,1489.00,2517.00,151.00,297.00,1244.00,2851.00,710.00,1467.00,,,,,,,,,,,,0,0,0,,-1052,15616,3832,-169,163,-163
9.277,9.04,0.54,-0.38,1.83,-16.60,22.09,1.41,-0.31,2.29,-0.51,1395.00,2450.00,59.00,264.00,1313.00,2784.00,800.00,1393.00,,,,,,,,,,,,0,0,0,,-940,15624,3868,-102,63,-180
9.338,9.09,0.57,1.53,-0.47,4.59,-1.00,1.14,-0.51,0.64,0.30,1526.00,2416.00,140.00,212.00,1334.00,2829.00,789.00,1455.00,,,,,,,,,,,,0,0,0,,-936,15624,3916,-142,105,-147
9.4,9.15,0.56,1.06,-0.13,6.91,-3.90,0.30,0.36,-0.71,1.82,1511.00,2439.00,157.00,209.00,1292.00,2857.00,745.00,1474.00,,,,,,,,,,,,0,0,0,,-1036,15556,3988,-194,125,-150
9.441,9.20,0.55,0.01,0.88,-7.83,6.03,0.33,1.23,-0.37,2.26,1458.00,2474.00,120.00,287.00,1232.00,2788.00,723.00,1437.00,,,,,,,,,,,,0,0,0,,-860,15580,3972,-24,159,-157
9.503,9.26,0.67,0.43,1.15,-12.01,19.33,2.96,-1.52,3.30,-1.61,1426.00,2416.00,63.00,237.00,1363.00,2705.00,834.00,1379.00,,,,,,,,,,,,0,0,0,,-968,15592,3872,-60,203,-155
9.564,9.31,0.64,3.31,-1.58,24.59,-15.30,0.07,0.41,-1.52,1.80,1569.00,2320.00,211.00,141.00,1294.00,2879.00,757.00,1523.00,,,,,,,,,,,,0,0,0,,-940,15556,3952,-121,172,-141
9.625,9.37,0.58,-0.43,0.92,-12.52,6.41,-0.43,2.32,-1.42,3.56,1467.00,2515.00,128.00,342.00,1178.00,2791.00,687.00,1447.00,,,,,,,,,,,,0,0,0,,-804,15728,3836,-102,78,-189
9.666,9.42,0.74,-0.77,2.93,-78.92,118.34,3.72,-2.31,5.29,-3.32,1324.00,2416.00,1.00,235.00,1403.00,2681.00,882.00,1334.00,,,,,,,,,,,,0,0,0,,-812,15684,3864,-136,187,-122
9.729,9.48,0.72,4.31,-2.44,26.71,-16.53,0.29,0.15,-1.36,1.36,1614.00,2282.00,217.00,134.00,1307.00,2874.00,773.00,1531.00,,,,,,,,,,,,0,0,0,,-840,15692,3912,-28,39,-174
9.769,9.53,0.67,-0.03,0.56,-5.55,1.89,-0.17,1.40,-0.98,2.67,1485.00,2500.00,144.00,293.00,1232.00,2831.00,715.00,1456.00,,,,,,,,,,,,0,0,0,,-888,15556,3932,-47,78,-180
9.83,9.59,0.74,-0.10,1.92,-13.50,19.54,1.98,-0.54,2.60,-0.75,1381.00,2417.00,64.00,250.00,1316.00,2739.00,806.00,1385.00,,,,,,,,,,,,0,0,0,,-868,15592,3740,-101,94,-159
9.892,9.64,0.77,2.23,-0.57,9.34,-4.11,1.43,-0.48,0.54,0.46,1515.00,2356.00,152.00,191.00,1325.00,2795.00,784.00,1455.00,,,,,,,,,,,,0,0,0,,-908,15544,3788,-115,117,-162
9.995,9.70,0.76,1.21,0.10,6.76,-3.12,0.45,0.24,-0.50,1.33,1488.00,2409.00,151.00,206.00,1297.00,2849.00,762.00,1481.00,,,,,,,,,,,,0,0,0,,-876,15592,3996,-158,123,-149
10.037,9.75,0.72,0.18,0.78,-7.50,6.07,0.08,1.15,-0.30,1.96,1462.00,2465.00,119.00,283.00,1243.00,2822.00,734.00,1445.00,,,,,,,,,,,,0,0,0,,-884,15612,3924,-83,60,-116
10.058,9.81,0.82,0.33,1.17,-10.48,16.61,2.62,-1.66,3.01,-1.69,1427.00,2424.00,71.00,240.00,1382.00,2752.00,842.00,1398.00,,,,,,,,,,,,0,0,0,,-968,15588,3856,-93,123,-129
10.1,9.86,0.76,3.01,-1.66,23.30,-14.96,-0.29,0.52,-1.67,1.82,1584.00,2352.00,212.00,147.00,1295.00,2912.00,758.00,1531.00,,,,,,,,,,,,0,0,0,,-784,15492,4048,-114,49,-162
10.16,9.92,0.70,-0.52,1.00,-11.05,5.92,-0.48,2.27,-1.51,4.05,1463.00,2519.00,128.00,327.00,1182.00,2800.00,670.00,1433.00,,,,,,,,,,,,0,0,0,,-936,15576,3868,-22,135,-193
10.222,9.97,0.86,-0.61,2.77,-27.18,40.78,3.86,-2.41,5.46,-3.64,1331.00,2410.00,26.00,243.00,1407.00,2673.00,895.00,1337.00,,,,,,,,,,,,0,0,0,,-884,15648,3792,-128,145,-165
10.263,10.03,0.82,4.67,-2.59,30.02,-19.12,0.09,0.36,-1.65,1.84,1616.00,2258.00,235.00,126.00,1297.00,2881.00,757.00,1529.00,,,,,,,,,,,,0,0,0,,-960,15500,4060,-97,74,-113
10.385,10.08,0.78,-0.23,0.87,-8.92,5.49,0.05,1.34,-1.23,2.96,1465.00,2498.00,126.00,304.00,1231.00,2811.00,707.00,1459.00,,,,,,,,,,,,0,0,0,,-1004,15588,3768,-97,153,-200
10.405,10.14,0.85,-0.11,1.95,-12.84,19.32,2.20,-0.68,2.77,-0.83,1379.00,2416.00,64.00,245.00,1321.00,2726.00,807.00,1379.00,,,,,,,,,,,,0,0,0,,-848,15588,3944,-58,68,-143
10.468,10.19,0.87,2.49,-0.59,10.59,-3.54,1.24,-0.12,0.33,0.74,1509.00,2333.00,144.00,179.00,1304.00,2789.00,775.00,1456.00,,,,,,,,,,,,0,0,0,,-984,15640,3980,-51,108,-165
10.489,10.25,0.85,1.47,0.07,7.02,-2.97,0.49,0.37,-0.52,1.58,1484.00,2387.00,149.00,203.00,1287.00,2835.00,752.00,1472.00,,,,,,,,,,,,0,0,0,,-948,15552,3892,-88,97,-188
10.55,10.30,0.82,0.42,0.77,-6.15,5.00,0.25,0.98,-0.17,1.91,1456.00,2442.00,123.00,276.00,1251.00,2816.00,734.00,1439.00,,,,,,,,,,,,0,0,0,,-976,15572,3828,-119,127,-152
10.592,10.36,0.91,0.76,1.13,-10.81,17.25,2.59,-1.66,2.70,-1.50,1419.00,2386.00,69.00,239.00,1383.00,2755.00,838.00,1408.00,,,,,,,,,,,,0,0,0,,-1044,15620,3932,-130,109,-140
10.655,10.41,0.85,3.07,-1.50,23.83,-14.96,-0.35,0.48,-1.69,1.76,1569.00,2337.00,210.00,144.00,1299.00,2922.00,761.00,1535.00,,,,,,,,,,,,0,0,0,,-908,15608,4028,-142,171,-113
10.738,10.47,0.77,-0.65,1.13,-11.20,5.68,-0.78,2.26,-1.83,3.80,1456.00,2523.00,130.00,331.00,1189.00,2834.00,683.00,1461.00,,,,,,,,,,,,0,0,0,,-856,15660,3944,-104,132,-236
10.779,10.52,0.90,-0.83,2.68,-61.79,92.29,3.46,-2.55,4.63,-3.22,1343.00,2437.00,3.00,240.00,1428.00,2726.00,888.00,1366.00,,,,,,,,,,,,0,0,0,,-868,15672,3920,-96,97,-149
10.82,10.58,0.84,4.24,-2.47,29.39,-19.06,-0.24,0.52,-1.99,1.62,1619.00,2290.00,237.00,129.00,1294.00,2907.00,771.00,1559.00,,,,,,,,,,,,0,0,0,,-900,15704,4180,-120,153,-127
10.88,10.63,0.80,-0.12,0.60,-9.23,3.91,-0.07,1.35,-1.33,2.84,1484.00,2506.00,138.00,321.00,1233.00,2823.00,713.00,1470.00,,,,,,,,,,,,0,0,0,,-868,15648,3876,-60,145,-216
10.942,10.69,0.88,0.30,1.67,-14.02,20.30,2.37,-0.87,2.48,-0.75,1390.00,2395.00,62.00,250.00,1330.00,2721.00,808.00,1392.00,,,,,,,,,,,,0,0,0,,-1076,15636,3744,-93,72,-148
11.004,10.74,0.89,2.79,-0.57,10.57,-2.88,1.21,-0.09,-0.11,0.91,1499.00,2304.00,139.00,176.00,1302.00,2789.00,774.00,1475.00,,,,,,,,,,,,0,0,0,,-892,15524,3840,-84,140,-148
11.106,10.80,0.88,1.64,0.16,6.11,-2.54,0.73,0.35,-0.45,1.41,1472.00,2365.00,148.00,208.00,1283.00,2810.00,758.00,1475.00,,,,,,,,,,,,0,0,0,,-980,15636,3776,-106,101,-196
11.127,10.85,0.86,0.60,0.89,-6.62,6.24,0.46,1.01,-0.19,1.94,1442.00,2417.00,116.00,272.00,1244.00,2790.00,733.00,1439.00,,,,,,,,,,,,0,0,0,,-968,15636,3964,-127,106,-142
11.168,10.91,0.97,0.74,1.37,-11.39,18.26,2.91,-1.65,2.93,-1.69,1401.00,2372.00,66.00,238.00,1374.00,2720.00,843.00,1402.00,,,,,,,,,,,,0,0,0,,-956,15596,4024,-42,66,-197
11.228,10.96,0.92,3.22,-1.37,22.55,-14.35,0.06,0.35,-1.89,2.04,1554.00,2315.00,208.00,149.00,1299.00,2886.00,752.00,1535.00,,,,,,,,,,,,0,0,0,,-948,15632,3780,-103,81,-189
11.269,11.02,0.85,-0.37,1.03,-11.19,6.70,-0.41,2.01,-1.75,3.56,1456.00,2501.00,123.00,322.00,1197.00,2811.00,691.00,1466.00,,,,,,,,,,,,0,0,0,,-924,15584,3836,-83,90,-146
11.351,11.07,1.00,-0.42,2.72,-43.84,65.97,3.79,-2.61,4.82,-3.20,1330.00,2395.00,9.00,239.00,1424.00,2695.00,884.00,1355.00,,,,,,,,,,,,0,0,0,,-1028,15632,3956,-153,148,-162
11.372,11.13,0.94,4.42,-2.47,32.65,-20.54,-0.18,0.19,-2.18,1.70,1613.00,2273.00,242.00,118.00,1316.00,2926.00,770.00,1567.00,,,,,,,,,,,,0,0,0,,-964,15596,3960,-119,136,-95
11.475,11.18,0.87,-0.49,0.84,-8.26,3.19,-0.49,1.37,-1.76,3.03,1475.00,2527.00,141.00,315.00,1241.00,2869.00,711.00,1487.00,,,,,,,,,,,,0,0,0,,-944,15480,3872,-127,192,-125
11.496,11.24,0.93,-0.09,1.76,-14.28,19.52,1.98,-0.93,2.56,-1.01,1393.00,2426.00,65.00,258.00,1344.00,2768.00,818.00,1397.00,,,,,,,,,,,,0,0,0,,-868,15640,3832,-115,117,-235
11.537,11.29,0.93,2.63,-0.63,11.62,-4.64,0.95,0.06,-0.08,0.81,1509.00,2323.00,150.00,177.00,1298.00,2807.00,778.00,1477.00,,,,,,,,,,,,0,0,0,,-928,15700,3940,-52,142,-130
11.599,11.35,0.92,1.42,0.17,6.33,-2.86,0.70,0.39,-0.63,1.62,1477.00,2385.00,150.00,208.00,1281.00,2810.00,752.00,1477.00,,,,,,,,,,,,0,0,0,,-956,15616,3836,-24,138,-187
11.639,11.40,0.91,0.91,0.77,-6.29,6.46,0.85,0.91,-0.06,1.65,1443.00,2395.00,114.00,267.00,1242.00,2755.00,743.00,1443.00,,,,,,,,,,,,0,0,0,,-984,15508,3800,-154,117,-150
11.701,11.46,1.02,1.16,1.15,-10.98,19.58,3.00,-1.56,2.44,-1.30,1407.00,2347.00,61.00,226.00,1365.00,2703.00,833.00,1415.00,,,,,,,,,,,,0,0,0,,-948,15640,3856,-120,123,-80
11.761,11.51,0.97,3.41,-1.21,23.44,-14.65,0.12,0.61,-1.87,2.06,1535.00,2288.00,208.00,145.00,1279.00,2858.00,751.00,1533.00,,,,,,,,,,,,0,0,0,,-964,15540,3900,-157,137,-241
11.844,11.57,0.93,-0.01,1.15,-10.92,6.76,0.18,1.80,-0.68,2.57,1438.00,2459.00,122.00,318.00,1198.00,2762.00,715.00,1443.00,,,,,,,,,,,,0,0,0,,-976,15516,4060,-87,78,-95
11.864,11.62,1.09,-0.03,2.72,-76.31,117.46,4.07,-2.54,4.86,-3.25,1321.00,2359.00,1.00,217.00,1412.00,2661.00,886.00,1355.00,,,,,,,,,,,,0,0,0,,-824,15648,3764,-71,119,-190
11.925,11.68,1.03,5.00,-2.67,34.15,-20.82,-0.01,0.37,-2.01,1.70,1614.00,2234.00,239.00,112.00,1299.00,2892.00,768.00,1557.00,,,,,,,,,,,,0,0,0,,-960,15604,3756,-95,62,-188
11.987,11.73,0.98,-0.05,0.99,-9.83,5.51,0.01,1.34,-1.54,3.14,1451.00,2473.00,128.00,315.00,1232.00,2815.00,704.00,1470.00,,,,,,,,,,,,0,0,0,,-872,15736,3780,-163,53,-170
12.028,11.79,1.05,0.26,1.89,-12.57,19.23,2.22,-0.83,2.60,-0.93,1374.00,2384.00,64.00,243.00,1331.00,2734.00,814.00,1392.00,,,,,,,,,,,,0,0,0,,-992,15520,3916,-137,114,-117
12.089,11.84,1.03,2.81,-0.57,12.00,-4.14,0.83,-0.07,-0.37,0.81,1499.00,2303.00,145.00,172.00,1310.00,2830.00,782.00,1494.00,,,,,,,,,,,,0,0,0,,-980,15636,3984,-113,200,-126
12.215,11.90,1.02,1.44,0.16,5.80,-2.43,0.82,0.14,-0.49,1.55,1477.00,2384.00,148.00,210.00,1295.00,2815.00,753.00,1472.00,,,,,,,,,,,,0,0,0,,-976,15600,3800,-134,95,-258
12.236,11.95,1.01,0.79,0.94,-6.03,6.21,0.79,0.91,0.03,1.62,1433.00,2395.00,115.00,266.00,1243.00,2761.00,743.00,1439.00,,,,,,,,,,,,0,0,0,,-928,15548,4052,-113,106,-121
12.277,12.01,1.12,1.46,1.10,-8.72,17.93,3.18,-1.59,2.89,-1.41,1403.00,2322.00,64.00,216.00,1363.00,2687.00,831.00,1394.00,,,,,,,,,,,,0,0,0,,-920,15632,4016,-21,170,-136
12.298,12.06,1.09,3.73,-1.17,22.95,-13.67,0.47,0.54,-1.63,2.06,1523.00,2257.00,199.00,144.00,1276.00,2825.00,748.00,1519.00,,,,,,,,,,,,0,0,0,,-1028,15640,3920,-103,129,-191
12.36,12.12,1.05,0.41,1.07,-10.27,7.00,0.42,1.87,-1.13,3.73,1433.00,2423.00,119.00,308.00,1188.00,2731.00,677.00,1424.00,,,,,,,,,,,,0,0,0,,-948,15576,4004,-78,108,-96
12.422,12.17,1.22,0.51,2.71,-32.82,51.64,4.32,-2.38,5.24,-3.07,1309.00,2310.00,16.00,227.00,1393.00,2623.00,871.00,1328.00,,,,,,,,,,,,0,0,0,,-900,15480,3936,-167,117,-196
12.464,12.23,1.17,5.59,-2.58,35.71,-21.42,0.33,0.55,-1.80,1.92,1589.00,2177.00,240.00,107.00,1278.00,2839.00,756.00,1535.00,,,,,,,,,,,,0,0,0,,-932,15644,4032,-114,91,-132
12.568,12.28,1.12,0.40,1.05,-9.47,5.10,0.06,1.87,-1.68,3.94,1435.00,2426.00,130.00,314.00,1196.00,2770.00,676.00,1447.00,,,,,,,,,,,,0,0,0,,-868,15700,3868,-82,123,-179
12.589,12.34,1.20,0.77,1.93,-15.49,22.03,2.69,-0.96,2.81,-1.02,1359.00,2335.00,58.00,253.00,1329.00,2693.00,815.00,1384.00,,,,,,,,,,,,0,0,0,,-880,15564,3924,-79,98,-183
12.652,12.39,1.20,3.20,-0.22,14.53,-5.86,1.26,-0.00,-0.10,0.84,1460.00,2246.00,152.00,163.00,1295.00,2778.00,777.00,1477.00,,,,,,,,,,,,0,0,0,,-940,15604,3912,-91,83,-177
12.714,12.45,1.18,1.74,0.49,4.24,-1.01,0.81,0.36,-0.65,1.75,1443.00,2335.00,141.00,215.00,1280.00,2800.00,747.00,1473.00,,,,,,,,,,,,0,0,0,,-920,15652,4036,-167,88,-120
12.755,12.50,1.16,1.08,0.96,-3.80,3.92,0.88,0.62,0.15,1.73,1424.00,2367.00,125.00,259.00,1261.00,2773.00,737.00,1428.00,,,,,,,,,,,,0,0,0,,-876,15664,4032,-113,113,-143
12.815,12.56,1.25,1.44,1.07,-8.69,16.53,2.85,-1.54,2.91,-1.39,1406.00,2326.00,69.00,224.00,1367.00,2718.00,830.00,1392.00,,,,,,,,,,,,0,0,0,,-892,15624,3876,-104,149,-216
12.876,12.61,1.21,3.65,-1.24,22.79,-13.43,0.40,0.60,-1.37,1.87,1531.00,2268.00,197.00,144.00,1273.00,2827.00,752.00,1511.00,,,,,,,,,,,,0,0,0,,-1028,15624,3956,-108,42,-149
12.959,12.67,1.16,0.32,1.24,-11.25,7.96,0.21,2.16,-0.92,3.50,1422.00,2421.00,115.00,312.00,1174.00,2732.00,683.00,1421.00,,,,,,,,,,,,0,0,0,,-1064,15596,3980,-22,176,-115
12.979,12.72,1.33,0.69,2.64,-39.86,62.69,4.65,-2.28,4.93,-2.47,1309.00,2297.00,10.00,223.00,1377.00,2582.00,848.00,1323.00,,,,,,,,,,,,0,0,0,,-876,15512,3904,-13,201,-165
13.041,12.78,1.29,5.94,-2.61,37.10,-22.04,0.57,0.47,-1.95,2.24,1581.00,2149.00,242.00,103.00,1278.00,2818.00,745.00,1531.00,,,,,,,,,,,,0,0,0,,-940,15572,3884,-135,117,-166
13.082,12.83,1.25,0.53,1.26,-9.29,5.91,0.48,1.90,-1.18,3.88,1415.00,2399.00,124.00,305.00,1185.00,2722.00,672.00,1421.00,,,,,,,,,,,,0,0,0,,-844,15656,3744,-101,118,-125
13.143,12.89,1.35,1.18,1.97,-13.07,20.90,3.18,-0.99,3.37,-1.12,1346.00,2295.00,59.00,237.00,1319.00,2643.00,811.00,1357.00,,,,,,,,,,,,0,0,0,,-968,15652,3992,-178,126,-145
13.205,12.94,1.36,4.15,-0.72,16.38,-5.74,1.64,-0.02,-0.11,1.40,1475.00,2193.00,146.00,151.00,1287.00,2737.00,754.00,1456.00,,,,,,,,,,,,0,0,0,,-852,15688,3804,-87,111,-179
13.308,13.00,1.35,2.17,0.39,4.32,-0.77,1.10,0.50,-0.08,1.78,1440.00,2302.00,139.00,213.00,1264.00,2758.00,738.00,1439.00,,,,,,,,,,,,0,0,0,,-880,15616,3936,-73,88,-180
13.329,13.05,1.35,1.59,0.99,-1.57,3.46,1.25,0.73,0.25,1.95,1408.00,2317.00,123.00,240.00,1245.00,2725.00,727.00,1414.00,,,,,,,,,,,,0,0,0,,-924,15492,3876,-64,87,-160
13.37,13.11,1.44,1.95,1.17,-7.23,17.15,3.23,-1.53,3.03,-1.19,1386.00,2274.00,65.00,208.00,1357.00,2677.00,819.00,1378.00,,,,,,,,,,,,0,0,0,,-948,15656,3924,-123,133,-154
13.411,13.16,1.39,3.80,-1.10,22.50,-13.52,0.42,0.51,-1.48,2.33,1515.00,2246.00,199.00,146.00,1279.00,2832.00,735.00,1499.00,,,,,,,,,,,,0,0,0,,-892,15596,3840,-112,81,-151
13.452,13.22,1.31,0.34,1.29,-9.45,5.67,-0.09,2.12,-1.16,3.90,1418.00,2416.00,126.00,309.00,1183.00,2768.00,671.00,1419.00,,,,,,,,,,,,0,0,0,,-868,15740,4072,-120,91,-131
13.535,13.27,1.45,0.61,2.55,-36.90,58.33,4.04,-2.20,4.68,-2.38,1318.00,2311.00,12.00,223.00,1387.00,2640.00,848.00,1333.00,,,,,,,,,,,,0,0,0,,-916,15692,3832,-63,167,-207
13.576,13.33,1.41,5.09,-1.78,38.26,-22.28,0.60,0.25,-1.57,1.94,1535.00,2173.00,240.00,99.00,1293.00,2832.00,752.00,1520.00,,,,,,,,,,,,0,0,0,,-896,15552,3860,-130,67,-163
13.679,13.38,1.32,0.49,1.17,-8.61,4.67,-0.32,3.09,-1.09,3.66,1423.00,2409.00,131.00,307.00,1127.00,2721.00,679.00,1424.00,,,,,,,,,,,,0,0,0,,-1012,15552,4080,-29,106,-101
13.7,13.44,1.42,1.42,1.83,-14.33,22.29,3.25,-0.95,3.61,-1.11,1350.00,2281.00,56.00,240.00,1315.00,2634.00,807.00,1344.00,,,,,,,,,,,,0,0,0,,-948,15672,3728,-51,220,-195
13.741,13.49,1.43,4.37,-0.76,18.76,-8.00,1.75,0.21,0.45,1.23,1472.00,2176.00,158.00,146.00,1269.00,2709.00,753.00,1430.00,,,,,,,,,,,,0,0,0,,-960,15536,4028,-154,83,-168
13.804,13.55,1.44,2.44,0.46,4.17,-1.25,1.49,0.56,-0.14,2.26,1427.00,2273.00,143.00,217.00,1251.00,2711.00,720.00,1424.00,,,,,,,,,,,,0,0,0,,-872,15572,3828,-153,149,-156
13.864,13.60,1.44,2.11,0.89,-2.67,5.40,1.50,0.81,0.72,1.82,1403.00,2277.00,113.00,238.00,1234.00,2692.00,726.00,1393.00,,,,,,,,,,,,0,0,0,,-888,15700,3984,-147,107,-124
13.926,13.66,1.53,2.22,1.25,-10.54,22.03,3.32,-1.16,3.05,-0.81,1373.00,2245.00,53.00,208.00,1328.00,2641.00,802.00,1363.00,,,,,,,,,,,,0,0,0,,-836,15668,3880,-101,108,-124
14.029,13.71,1.49,4.30,-1.17,21.59,-12.93,0.66,0.62,-0.75,1.93,1507.00,2206.00,196.00,149.00,1266.00,2797.00,741.00,1472.00,,,,,,,,,,,,0,0,0,,-940,15640,3796,-40,80,-195
14.05,13.77,1.44,0.66,1.45,-9.98,7.06,0.43,1.98,-0.63,3.84,1397.00,2375.00,118.00,304.00,1181.00,2722.00,667.00,1392.00,,,,,,,,,,,,0,0,0,,-936,15600,3964,-102,98,-176
14.071,13.82,1.58,1.70,1.59,-30.33,48.63,4.33,-2.17,5.08,-2.32,1361.00,2271.00,18.00,223.00,1377.00,2607.00,839.00,1310.00,,,,,,,,,,,,0,0,0,,-848,15520,3848,-139,70,-110
14.111,13.88,1.52,5.79,-2.54,39.47,-22.53,0.33,0.45,-1.76,2.25,1580.00,2158.00,238.00,95.00,1285.00,2847.00,742.00,1519.00,,,,,,,,,,,,0,0,0,,-824,15708,3960,-152,127,-170
14.193,13.93,1.44,0.28,1.27,-9.99,5.27,-0.07,2.08,-1.50,4.38,1421.00,2423.00,130.00,319.00,1185.00,2768.00,658.00,1420.00,,,,,,,,,,,,0,0,0,,-924,15684,3920,-88,137,-119
14.233,13.99,1.50,0.91,1.88,-15.94,24.20,2.67,-0.95,3.14,-0.72,1359.00,2325.00,52.00,243.00,1329.00,2695.00,797.00,1355.00,,,,,,,,,,,,0,0,0,,-872,15612,3944,-31,139,-123
14.295,14.04,1.50,3.93,-0.95,15.65,-6.36,1.56,-0.06,0.14,1.44,1499.00,2225.00,153.00,158.00,1292.00,2749.00,749.00,1440.00,,,,,,,,,,,,0,0,0,,-892,15612,3872,-133,48,-286
14.378,14.10,1.49,2.16,0.33,1.97,0.15,1.21,0.62,0.19,2.15,1445.00,2307.00,138.00,228.00,1253.00,2737.00,720.00,1410.00,,,,,,,,,,,,0,0,0,,-972,15728,3992,-58,92,-91
14.418,14.15,1.49,1.99,0.80,-4.92,7.34,1.52,0.83,1.12,1.63,1413.00,2293.00,106.00,247.00,1232.00,2688.00,728.00,1378.00,,,,,,,,,,,,0,0,0,,-992,15580,3920,-71,222,-171
14.46,14.21,1.60,2.17,1.18,-6.50,16.07,3.64,-1.32,3.18,-0.76,1379.00,2253.00,68.00,208.00,1332.00,2619.00,798.00,1354.00,,,,,,,,,,,,0,0,0,,-948,15688,3792,-118,96,-156
14.523,14.26,1.57,4.16,-1.02,22.62,-13.18,0.97,0.51,-0.91,2.24,1499.00,2210.00,195.00,144.00,1266.00,2771.00,731.00,1469.00,,,,,,,,,,,,0,0,0,,-996,15624,3892,-116,113,-110
14.606,14.32,1.52,0.84,1.32,-10.12,7.26,0.58,2.07,-0.42,3.88,1403.00,2367.00,117.00,304.00,1172.00,2699.00,663.00,1379.00,,,,,,,,,,,,0,0,0,,-876,15640,3972,-166,76,-194
14.626,14.37,1.66,1.22,2.51,-40.07,64.70,4.40,-2.03,5.34,-2.17,1306.00,2258.00,9.00,213.00,1365.00,2590.00,828.00,1291.00,,,,,,,,,,,,0,0,0,,-888,15736,3824,-80,64,-104
14.668,14.43,1.60,5.98,-2.55,39.61,-22.73,0.47,0.61,-1.50,2.19,1575.00,2142.00,240.00,95.00,1271.00,2819.00,741.00,1506.00,,,,,,,,,,,,0,0,0,,-908,15764,4004,-31,101,-235
14.77,14.48,1.53,0.49,1.19,-10.32,5.53,0.04,2.31,-1.57,4.77,1421.00,2407.00,129.00,321.00,1168.00,2739.00,645.00,1409.00,,,,,,,,,,,,0,0,0,,-908,15552,3824,-125,96,-161
14.791,14.54,1.59,1.19,1.95,-17.70,25.15,2.88,-0.94,3.69,-1.09,1347.00,2295.00,51.00,254.00,1323.00,2672.00,805.00,1339.00,,,,,,,,,,,,0,0,0,,-1044,15668,3880,-97,115,-175
14.873,14.59,1.59,3.99,-0.74,17.72,-8.45,1.49,-0.05,0.34,1.27,1481.00,2208.00,165.00,154.00,1293.00,2756.00,753.00,1435.00,,,,,,,,,,,,0,0,0,,-864,15520,3816,-165,122,-115
14.893,14.65,1.56,1.95,0.38,0.61,2.00,1.03,0.38,-0.20,2.36,1446.00,2322.00,128.00,229.00,1274.00,2775.00,717.00,1424.00,,,,,,,,,,,,0,0,0,,-952,15696,4064,-114,139,-114
14.934,14.70,1.53,1.57,0.75,-4.49,5.37,0.99,0.67,0.74,1.81,1427.00,2334.00,117.00,256.00,1255.00,2757.00,726.00,1392.00,,,,,,,,,,,,0,0,0,,-948,15660,3892,-72,152,-170
14.995,14.76,1.59,1.48,1.11,-8.84,15.29,2.66,-1.09,2.79,-0.67,1402.00,2320.00,74.00,233.00,1339.00,2706.00,800.00,1372.00,,,,,,,,,,,,0,0,0,,-808,15576,3844,-87,164,-172
15.058,14.81,1.54,3.53,-1.14,19.88,-12.35,0.56,0.59,-0.84,2.06,1526.00,2273.00,196.00,157.00,1270.00,2810.00,737.00,1472.00,,,,,,,,,,,,0,0,0,,-1040,15716,3988,-115,139,-115
15.141,14.87,1.49,0.45,1.34,-11.15,7.93,0.62,1.93,-0.32,3.73,1411.00,2402.00,115.00,311.00,1180.00,2705.00,667.00,1379.00,,,,,,,,,,,,0,0,0,,-904,15556,3992,-30,163,-173
15.161,14.92,1.63,1.03,2.49,inf,inf,4.36,-1.95,5.54,-2.34,1312.00,2276.00,0.00,225.00,1360.00,2589.00,833.00,1287.00,,,,,,,,,,,,0,0,0,,-920,15600,3904,-117,119,-135
15.222,14.98,1.57,5.88,-2.69,38.14,-22.84,0.33,0.77,-1.26,2.06,1590.00,2159.00,248.00,101.00,1263.00,2822.00,743.00,1497.00,,,,,,,,,,,,0,0,0,,-840,15672,3872,-107,137,-111
15.284,15.03,1.50,0.46,1.10,-9.72,5.47,0.11,2.26,-0.65,3.84,1429.00,2416.00,128.00,314.00,1170.00,2736.00,667.00,1393.00,,,,,,,,,,,,0,0,0,,-960,15592,3800,-148,85,-211
15.324,15.09,1.58,1.16,1.90,-13.91,21.82,3.16,-0.97,3.72,-0.92,1351.00,2300.00,57.00,239.00,1318.00,2644.00,797.00,1331.00,,,,,,,,,,,,0,0,0,,-940,15744,3912,-119,100,-93
15.387,15.14,1.56,4.19,-0.94,17.45,-7.32,1.15,0.64,0.29,1.58,1491.00,2202.00,156.00,151.00,1253.00,2742.00,741.00,1426.00,,,,,,,,,,,,0,0,0,,-844,15648,3932,-27,124,-202
15.448,15.20,1.53,2.06,0.26,3.58,-1.56,1.05,0.65,-0.04,2.20,1453.00,2320.00,147.00,224.00,1255.00,2752.00,721.00,1421.00,,,,,,,,,,,,0,0,0,,-860,15684,3768,-82,36,-142
15.529,15.25,1.50,1.61,0.81,-4.82,6.29,0.94,0.98,1.04,1.53,1422.00,2327.00,112.00,253.00,1235.00,2740.00,733.00,1386.00,,,,,,,,,,,,0,0,0,,-884,15668,3920,-77,82,-196
15.55,15.31,1.57,1.62,1.06,-9.51,17.91,2.80,-1.28,3.24,-1.01,1402.00,2310.00,65.00,223.00,1349.00,2704.00,808.00,1360.00,,,,,,,,,,,,0,0,0,,-836,15512,3868,-98,159,-168
15.634,15.36,1.50,3.53,-1.09,19.87,-12.82,0.26,0.53,-0.82,1.91,1522.00,2270.00,201.00,159.00,1281.00,2848.00,743.00,1477.00,,,,,,,,,,,,0,0,0,,-932,15616,3776,-94,30,-99
15.655,15.42,1.42,0.27,1.09,-10.99,6.63,-0.21,2.16,-0.65,3.70,1435.00,2435.00,123.00,320.00,1183.00,2778.00,672.00,1398.00,,,,,,,,,,,,0,0,0,,-920,15584,3916,-101,146,-136
15.717,15.47,1.53,0.31,2.53,-33.82,51.97,3.74,-2.08,5.38,-2.69,1326.00,2339.00,16.00,234.00,1385.00,2662.00,851.00,1307.00,,,,,,,,,,,,0,0,0,,-808,15668,3764,-148,68,-196
15.778,15.53,1.47,5.48,-2.67,38.86,-23.16,0.28,0.53,-1.35,1.99,1600.00,2192.00,249.00,99.00,1281.00,2847.00,747.00,1505.00,,,,,,,,,,,,0,0,0,,-988,15636,3780,-50,146,-165
15.882,15.58,1.40,0.30,1.01,-9.41,5.37,0.13,2.17,-1.38,4.65,1440.00,2437.00,128.00,311.00,1175.00,2740.00,647.00,1403.00,,,,,,,,,,,,0,0,0,,-1052,15624,3736,-96,163,-146
15.903,15.64,1.48,1.07,1.81,-12.93,20.85,2.96,-0.82,3.54,-0.62,1360.00,2314.00,59.00,236.00,1312.00,2654.00,787.00,1330.00,,,,,,,,,,,,0,0,0,,-924,15620,3876,-133,105,-141
15.944,15.69,1.47,3.91,-0.84,15.86,-6.67,1.34,0.16,0.41,1.20,1491.00,2221.00,155.00,158.00,1282.00,2757.00,755.00,1434.00,,,,,,,,,,,,0,0,0,,-856,15604,3988,-74,125,-136
16.006,15.75,1.46,2.21,0.26,4.13,-1.36,1.20,0.44,0.25,1.77,1449.00,2306.00,144.00,218.00,1266.00,2752.00,734.00,1421.00,,,,,,,,,,,,0,0,0,,-972,15520,3800,-114,97,-168
16.047,15.80,1.44,1.24,1.03,-5.16,5.91,1.02,1.00,0.98,1.70,1414.00,2347.00,115.00,259.00,1232.00,2730.00,727.00,1383.00,,,,,,,,,,,,0,0,0,,-868,15704,3860,-43,86,-162
16.128,15.86,1.53,1.65,1.12,-9.11,17.50,3.31,-1.61,3.58,-1.35,1397.00,2304.00,66.00,222.00,1361.00,2674.00,818.00,1354.00,,,,,,,,,,,,0,0,0,,-948,15572,3852,-51,105,-184
16.25,15.91,1.48,3.57,-1.11,19.14,-12.20,0.41,0.54,-0.95,2.05,1522.00,2267.00,197.00,161.00,1277.00,2831.00,739.00,1479.00,,,,,,,,,,,,0,0,0,,-912,15628,3884,-77,100,-169
16.272,15.97,1.41,0.26,1.24,-11.67,8.10,0.24,1.89,-0.44,3.58,1424.00,2427.00,115.00,316.00,1191.00,2749.00,674.00,1391.00,,,,,,,,,,,,0,0,0,,-796,15628,3832,-100,116,-174
16.292,16.02,1.54,0.21,2.69,-33.39,51.83,4.00,-2.31,5.43,-2.81,1317.00,2338.00,16.00,231.00,1396.00,2651.00,856.00,1309.00,,,,,,,,,,,,0,0,0,,-900,15684,3932,-161,145,-138
16.312,16.08,1.46,5.20,-2.58,34.82,-21.80,-0.17,0.55,-1.44,1.99,1600.00,2211.00,249.00,112.00,1290.00,2896.00,748.00,1510.00,,,,,,,,,,,,0,0,0,,-880,15556,3832,-118,149,-154
16.374,16.13,1.37,0.02,0.83,-9.64,3.27,-0.37,1.95,-1.21,3.84,1462.00,2477.00,144.00,332.00,1200.00,2811.00,674.00,1424.00,,,,,,,,,,,,0,0,0,,-924,15636,3708,-155,122,-111
16.434,16.19,1.44,0.69,1.75,-12.57,19.23,2.86,-1.01,3.39,-0.76,1374.00,2353.00,64.00,243.00,1328.00,2678.00,795.00,1343.00,,,,,,,,,,,,0,0,0,,-940,15632,3952,-58,163,-155
16.475,16.24,1.45,3.59,-0.71,15.16,-6.79,1.58,-0.14,0.59,0.84,1489.00,2241.00,158.00,163.00,1297.00,2753.00,767.00,1437.00,,,,,,,,,,,,0,0,0,,-836,15584,3796,-41,160,-176
16.538,16.30,1.44,1.95,0.42,3.11,-0.37,1.19,0.45,0.40,1.50,1443.00,2320.00,139.00,221.00,1265.00,2751.00,743.00,1423.00,,,,,,,,,,,,0,0,0,,-828,15656,4044,-167,107,-123
16.621,16.35,1.42,1.43,0.85,-3.43,4.24,1.08,0.98,1.01,1.90,1423.00,2341.00,122.00,253.00,1232.00,2725.00,719.00,1374.00,,,,,,,,,,,,0,0,0,,-936,15632,3960,-99,140,-58
16.64,16.41,1.52,1.53,1.26,-9.19,18.98,3.38,-1.47,3.64,-1.44,1390.00,2307.00,61.00,214.00,1349.00,2657.00,821.00,1354.00,,,,,,,,,,,,0,0,0,,-936,15556,3708,-123,58,-242
16.701,16.46,1.47,4.18,-1.29,22.95,-13.67,0.53,0.53,-0.93,2.19,1520.00,2224.00,199.00,144.00,1275.00,2818.00,733.00,1472.00,,,,,,,,,,,,0,0,0,,-788,15644,4000,-83,51,-159
16.764,16.52,1.39,0.45,1.18,-11.73,7.97,-0.10,2.32,-0.44,3.44,1423.00,2412.00,116.00,318.00,1171.00,2755.00,679.00,1396.00,,,,,,,,,,,,0,0,0,,-992,15484,3980,-79,142,-240
16.826,16.57,1.53,0.35,2.84,-61.52,92.20,4.27,-2.53,5.88,-3.28,1303.00,2316.00,3.00,238.00,1406.00,2639.00,871.00,1302.00,,,,,,,,,,,,0,0,0,,-928,15540,3916,-121,8,-108
16.868,16.63,1.46,5.61,-2.59,36.96,-21.84,0.19,0.50,-1.01,1.48,1589.00,2176.00,240.00,103.00,1285.00,2859.00,763.00,1505.00,,,,,,,,,,,,0,0,0,,-916,15572,3996,-128,127,-148
16.974,16.68,1.39,0.44,0.88,-8.03,4.06,0.02,1.52,-0.57,2.87,1447.00,2433.00,134.00,305.00,1220.00,2801.00,702.00,1425.00,,,,,,,,,,,,0,0,0,,-884,15452,3844,-165,165,-124
16.994,16.74,1.44,0.64,1.82,-12.54,19.81,2.33,-0.67,3.49,-0.89,1370.00,2353.00,62.00,239.00,1317.00,2711.00,799.00,1342.00,,,,,,,,,,,,0,0,0,,-780,15716,3844,-104,118,-107
17.035,16.79,1.42,3.16,-0.55,10.91,-3.39,1.00,0.07,0.41,0.88,1488.00,2270.00,142.00,176.00,1296.00,2801.00,768.00,1446.00,,,,,,,,,,,,0,0,0,,-808,15620,3900,-77,103,-204
17.097,16.85,1.40,2.21,-0.07,6.00,-2.37,0.98,0.35,0.56,1.39,1475.00,2327.00,147.00,208.00,1277.00,2782.00,745.00,1418.00,,,,,,,,,,,,0,0,0,,-960,15556,4008,-160,80,-178
17.139,16.90,1.36,1.51,0.54,-7.07,7.04,0.73,1.34,0.97,1.96,1445.00,2353.00,112.00,271.00,1216.00,2736.00,717.00,1374.00,,,,,,,,,,,,0,0,0,,-864,15668,3880,-41,119,-166
17.199,16.96,1.46,1.30,1.56,-9.85,20.13,3.28,-1.44,3.98,-1.67,1373.00,2309.00,58.00,213.00,1349.00,2665.00,826.00,1344.00,,,,,,,,,,,,0,0,0,,-768,15536,3816,-83,130,-215
17.26,17.01,1.41,4.45,-1.52,25.55,-14.82,0.58,0.67,-0.77,2.12,1532.00,2214.00,202.00,134.00,1264.00,2802.00,734.00,1466.00,,,,,,,,,,,,0,0,0,,-992,15580,3832,-177,81,-127
17.342,17.07,1.35,0.56,1.23,-10.47,6.46,0.05,2.39,-0.75,3.99,1417.00,2399.00,123.00,315.00,1163.00,2733.00,663.00,1393.00,,,,,,,,,,,,0,0,0,,-780,15708,3896,-106,176,-115
17.362,17.12,1.51,0.52,2.79,-59.97,91.68,4.56,-2.53,6.12,-3.26,1303.00,2304.00,3.00,227.00,1398.00,2608.00,866.00,1289.00,,,,,,,,,,,,0,0,0,,-904,15588,3864,-171,141,-133
17.423,17.18,1.46,5.62,-2.45,31.01,-19.37,0.56,0.30,-0.87,1.70,1577.00,2167.00,234.00,122.00,1290.00,2832.00,752.00,1488.00,,,,,,,,,,,,0,0,0,,-780,15588,3920,-116,60,-137
17.484,17.23,1.41,0.67,0.80,-7.22,3.11,0.43,1.48,-0.62,2.96,1447.00,2416.00,139.00,303.00,1213.00,2758.00,699.00,1424.00,,,,,,,,,,,,0,0,0,,-916,15644,3992,-104,133,-208
17.545,17.29,1.46,0.82,2.02,-14.76,22.76,2.52,-0.62,3.75,-0.90,1351.00,2324.00,55.00,241.00,1309.00,2687.00,796.00,1329.00,,,,,,,,,,,,0,0,0,,-948,15624,3984,-98,36,-156
17.606,17.34,1.47,3.75,-0.73,10.47,-2.30,1.54,-0.11,1.12,0.64,1486.00,2228.00,135.00,174.00,1296.00,2755.00,768.00,1415.00,,,,,,,,,,,,0,0,0,,-984,15588,3864,-119,121,-137
17.708,17.40,1.44,2.26,0.08,6.97,-3.44,0.85,0.26,0.05,1.59,1462.00,2313.00,153.00,206.00,1286.00,2803.00,744.00,1439.00,,,,,,,,,,,,0,0,0,,-788,15596,3828,-90,112,-106
17.728,17.45,1.38,0.92,0.97,-5.84,6.63,0.40,1.21,0.88,1.59,1427.00,2381.00,112.00,261.00,1232.00,2782.00,733.00,1393.00,,,,,,,,,,,,0,0,0,,-832,15556,4048,-75,163,-168
17.749,17.51,1.47,1.27,1.32,-12.37,22.64,3.00,-1.57,4.04,-1.88,1392.00,2327.00,53.00,220.00,1366.00,2704.00,835.00,1349.00,,,,,,,,,,,,0,0,0,,-900,15700,3832,-80,107,-270
17.812,17.56,1.40,4.43,-1.78,25.94,-15.67,0.24,0.77,-0.80,1.90,1554.00,2231.00,210.00,135.00,1265.00,2832.00,743.00,1476.00,,,,,,,,,,,,0,0,0,,-936,15644,3968,-123,99,-104
17.853,17.62,1.33,0.29,1.16,-10.67,5.94,-0.03,2.61,-0.61,3.94,1429.00,2429.00,127.00,322.00,1151.00,2725.00,663.00,1387.00,,,,,,,,,,,,0,0,0,,-876,15608,4036,-42,149,-143
17.934,17.67,1.49,0.80,2.54,-78.07,118.06,4.46,-2.35,6.56,-3.62,1314.00,2294.00,1.00,229.00,1387.00,2606.00,876.00,1279.00,,,,,,,,,,,,0,0,0,,-812,15572,3836,-98,183,-167
17.994,17.73,1.45,5.61,-2.33,31.95,-18.88,0.70,0.39,-0.56,1.52,1567.00,2161.00,224.00,116.00,1281.00,2810.00,755.00,1477.00,,,,,,,,,,,,0,0,0,,-948,15548,3884,-132,115,-82
18.098,17.78,1.39,1.44,0.30,-2.65,0.66,0.28,1.70,0.13,2.71,1466.00,2375.00,146.00,270.00,1202.00,2758.00,699.00,1392.00,,,,,,,,,,,,0,0,0,,-872,15568,3988,-157,123,-190
18.119,17.84,1.44,1.07,2.03,-25.89,39.64,2.45,-0.32,3.60,-0.57,1344.00,2301.00,27.00,238.00,1289.00,2672.00,784.00,1325.00,,,,,,,,,,,,0,0,0,,-956,15644,3848,-111,123,-122
18.14,17.89,1.48,3.20,-0.23,7.60,-0.35,2.06,-0.30,1.73,0.44,1461.00,2247.00,128.00,185.00,1297.00,2713.00,768.00,1389.00,,,,,,,,,,,,0,0,0,,-856,15720,3816,-60,33,-158
18.223,17.95,1.44,2.72,0.04,9.15,-3.05,0.85,0.55,0.40,1.55,1453.00,2274.00,144.00,187.00,1266.00,2781.00,741.00,1421.00,,,,,,,,,,,,0,0,0,,-928,15572,3860,-68,136,-229
18.243,18.00,1.40,1.02,0.99,-8.17,7.58,0.47,1.35,0.57,2.25,1423.00,2370.00,111.00,279.00,1221.00,2764.00,711.00,1385.00,,,,,,,,,,,,0,0,0,,-852,15596,3920,-82,65,-144
18.306,18.06,1.48,1.28,1.62,-11.23,20.28,3.09,-1.52,4.22,-1.88,1369.00,2307.00,59.00,224.00,1360.00,2691.00,832.00,1339.00,,,,,,,,,,,,0,0,0,,-848,15616,3936,-100,84,-137
18.367,18.11,1.40,4.11,-1.45,27.78,-16.11,-0.05,0.60,-1.04,2.03,1535.00,2239.00,208.00,127.00,1284.00,2879.00,741.00,1485.00,,,,,,,,,,,,0,0,0,,-896,15532,3952,-101,166,-116
18.448,18.17,1.30,-0.03,1.10,-13.37,9.00,-0.61,2.53,-0.97,4.20,1442.00,2464.00,113.00,330.00,1168.00,2794.00,658.00,1397.00,,,,,,,,,,,,0,0,0,,-796,15504,3864,-63,112,-118
18.469,18.22,1.42,-0.24,3.14,-68.36,101.99,3.72,-2.17,6.15,-3.50,1296.00,2352.00,2.00,240.00,1392.00,2670.00,877.00,1296.00,,,,,,,,,,,,0,0,0,,-936,15584,3852,-148,61,-277
18.51,18.28,1.38,4.73,-2.12,27.78,-16.11,0.57,0.37,-0.39,1.42,1574.00,2225.00,208.00,127.00,1285.00,2826.00,757.00,1471.00,,,,,,,,,,,,0,0,0,,-952,15632,3996,-99,118,-104
18.572,18.33,1.33,1.11,0.49,-1.89,-0.46,0.35,1.62,1.06,2.38,1460.00,2394.00,153.00,270.00,1206.00,2757.00,700.00,1354.00,,,,,,,,,,,,0,0,0,,-920,15524,3948,-44,157,-140
18.636,18.39,1.39,0.96,1.92,-12.79,21.77,2.53,-0.44,3.55,-0.58,1355.00,2318.00,56.00,229.00,1296.00,2673.00,785.00,1328.00,,,,,,,,,,,,0,0,0,,-824,15564,3724,-95,120,-169
18.675,18.44,1.43,2.33,0.40,0.67,4.61,2.18,-0.31,4.31,-2.96,1435.00,2287.00,111.00,213.00,1295.00,2701.00,881.00,1374.00,,,,,,,,,,,,0,0,0,,-924,15712,4088,-86,133,-169
18.738,18.50,1.40,2.70,-0.06,10.45,-3.74,0.83,0.59,0.62,1.20,1461.00,2281.00,146.00,181.00,1264.00,2781.00,752.00,1422.00,,,,,,,,,,,,0,0,0,,-900,15528,4044,-148,85,-164
18.819,18.55,1.36,0.41,1.54,-13.67,12.50,0.67,1.34,0.96,1.89,1397.00,2393.00,94.00,304.00,1217.00,2742.00,720.00,1377.00,,,,,,,,,,,,0,0,0,,-900,15716,3864,-72,123,-158
18.859,18.61,1.47,1.15,1.91,-20.11,34.56,3.42,-1.62,4.68,-2.10,1351.00,2301.00,32.00,217.00,1359.00,2663.00,835.00,1323.00,,,,,,,,,,,,0,0,0,,-892,15604,3908,-51,103,-173
18.921,18.66,1.40,4.36,-1.53,27.53,-16.02,0.16,0.60,-0.36,1.50,1535.00,2222.00,208.00,128.00,1279.00,2855.00,753.00,1466.00,,,,,,,,,,,,0,0,0,,-996,15620,3928,-104,83,-189
18.984,18.72,1.30,-0.45,1.44,-13.99,8.25,-0.63,2.71,-0.85,4.16,1427.00,2483.00,119.00,345.00,1157.00,2783.00,658.00,1392.00,,,,,,,,,,,,0,0,0,,-900,15556,3904,-107,88,-132
19.045,18.77,1.41,0.35,2.62,-61.65,92.25,3.54,-1.92,5.83,-3.03,1319.00,2330.00,3.00,239.00,1378.00,2672.00,860.00,1296.00,,,,,,,,,,,,0,0,0,,-872,15636,3824,-145,114,-142
19.066,18.83,1.37,3.75,-1.71,16.63,-11.82,0.55,-0.00,0.16,0.63,1567.00,2287.00,202.00,176.00,1312.00,2857.00,782.00,1470.00,,,,,,,,,,,,0,0,0,,-832,15596,4008,-100,123,-88
19.128,18.88,1.29,0.72,0.49,-4.77,3.38,-0.18,1.54,-0.27,2.80,1470.00,2431.00,131.00,273.00,1223.00,2821.00,701.00,1411.00,,,,,,,,,,,,0,0,0,,-908,15572,3984,-78,163,-120
19.19,18.94,1.30,0.22,1.88,-15.55,20.82,1.41,-0.07,2.48,-0.27,1376.00,2389.00,62.00,262.00,1296.00,2766.00,787.00,1374.00,,,,,,,,,,,,0,0,0,,-916,15684,3828,-98,80,-301
19.252,18.99,1.33,1.37,0.74,-3.11,9.14,2.01,-0.35,2.49,-0.20,1433.00,2353.00,93.00,219.00,1302.00,2722.00,784.00,1371.00,,,,,,,,,,,,0,0,0,,-872,15644,4128,-70,92,-111
19.313,19.05,1.29,2.66,-0.32,11.91,-4.86,0.42,0.74,0.06,1.26,1483.00,2301.00,151.00,176.00,1263.00,2815.00,757.00,1451.00,,,,,,,,,,,,0,0,0,,-832,15468,3952,3,210,-175
19.355,19.10,1.24,0.20,1.25,-11.27,8.96,0.46,1.67,0.62,2.29,1424.00,2431.00,109.00,304.00,1200.00,2741.00,709.00,1381.00,,,,,,,,,,,,0,0,0,,-844,15628,3776,-137,110,-137
19.396,19.16,1.36,0.63,2.18,-25.37,41.65,3.48,-1.65,5.09,-2.46,1344.00,2332.00,24.00,221.00,1360.00,2659.00,845.00,1314.00,,,,,,,,,,,,0,0,0,,-856,15636,4080,-94,160,-158
19.458,19.21,1.28,4.56,-1.80,30.88,-16.97,-0.20,0.85,-1.11,1.68,1552.00,2221.00,206.00,115.00,1270.00,2876.00,756.00,1503.00,,,,,,,,,,,,0,0,0,,-896,15576,3968,-132,88,-190
19.561,19.27,1.18,-0.59,1.43,-13.77,7.72,-0.64,2.76,-0.63,3.84,1431.00,2497.00,122.00,347.00,1154.00,2780.00,667.00,1392.00,,,,,,,,,,,,0,0,0,,-968,15776,3984,-56,73,-125
19.581,19.32,1.28,-0.21,2.92,-42.27,63.50,3.02,-1.38,4.80,-2.43,1311.00,2363.00,10.00,240.00,1351.00,2688.00,848.00,1328.00,,,,,,,,,,,,0,0,0,,-964,15624,3944,-74,172,-239
19.622,19.38,1.24,3.52,-1.20,15.52,-9.11,0.67,0.15,0.63,0.43,1531.00,2277.00,178.00,171.00,1298.00,2831.00,784.00,1451.00,,,,,,,,,,,,0,0,0,,-932,15540,3836,-96,46,-150
19.685,19.43,1.18,0.82,0.64,-3.56,4.28,-0.03,1.44,-0.36,2.59,1456.00,2412.00,122.00,254.00,1226.00,2812.00,710.00,1424.00,,,,,,,,,,,,0,0,0,,-852,15584,3904,-117,116,-114
19.747,19.49,1.15,0.29,1.58,-11.32,15.16,0.61,0.64,1.20,0.74,1397.00,2402.00,78.00,258.00,1266.00,2802.00,763.00,1407.00,,,,,,,,,,,,0,0,0,,-972,15548,3940,-163,144,-137
19.788,19.54,1.18,0.97,1.11,-5.10,10.42,1.72,-0.54,1.98,-0.14,1415.00,2367.00,90.00,229.00,1322.00,2767.00,789.00,1397.00,,,,,,,,,,,,0,0,0,,-856,15616,3972,-134,145,-104
19.913,19.60,1.09,2.57,-0.93,13.83,-7.91,-0.54,0.77,-0.83,1.61,1535.00,2347.00,172.00,177.00,1283.00,2921.00,755.00,1489.00,,,,,,,,,,,,0,0,0,,-860,15528,3876,-69,174,-102
19.935,19.65,1.02,-0.42,1.09,-12.51,8.87,-0.42,1.94,0.01,2.44,1453.00,2503.00,112.00,320.00,1202.00,2818.00,711.00,1409.00,,,,,,,,,,,,0,0,0,,-896,15592,3912,-198,59,-248
19.954,19.71,1.14,0.22,2.06,-28.21,42.60,3.38,-1.62,5.01,-2.73,1363.00,2378.00,24.00,241.00,1360.00,2667.00,859.00,1328.00,,,,,,,,,,,,0,0,0,,-880,15688,4088,-89,128,-127
20.017,19.76,1.06,4.53,-2.18,31.03,-18.15,-0.46,0.95,-1.35,1.50,1585.00,2246.00,219.00,118.00,1269.00,2898.00,767.00,1525.00,,,,,,,,,,,,0,0,0,,-956,15476,4004,-14,203,-133
20.079,19.82,0.97,-0.72,1.34,-12.84,6.23,-0.68,2.63,-1.11,4.30,1441.00,2515.00,130.00,348.00,1163.00,2794.00,656.00,1401.00,,,,,,,,,,,,0,0,0,,-812,15588,4000,-198,143,-173
20.12,19.87,1.05,-0.14,2.44,-28.40,40.49,2.61,-1.18,4.05,-2.04,1344.00,2387.00,27.00,257.00,1347.00,2718.00,842.00,1354.00,,,,,,,,,,,,0,0,0,,-956,15688,3716,-128,133,-81
20.16,19.93,1.03,3.07,-0.89,14.67,-6.97,0.67,0.32,0.45,0.73,1518.00,2299.00,161.00,167.00,1286.00,2818.00,774.00,1450.00,,,,,,,,,,,,0,0,0,,-888,15584,4004,-165,152,-119
20.222,19.98,0.98,0.76,0.49,-2.20,1.55,-0.06,1.36,-0.20,2.28,1469.00,2427.00,138.00,259.00,1232.00,2821.00,720.00,1427.00,,,,,,,,,,,,0,0,0,,-816,15712,3944,-86,93,-202
20.283,20.04,0.95,0.69,0.86,-4.95,6.33,0.42,0.92,0.91,1.00,1442.00,2410.00,112.00,254.00,1251.00,2801.00,756.00,1413.00,,,,,,,,,,,,0,0,0,,-1016,15516,3976,-23,63,-211
20.344,20.09,1.00,1.14,0.81,-7.48,14.59,1.94,-0.74,2.78,-1.01,1434.00,2371.00,75.00,225.00,1331.00,2758.00,815.00,1385.00,,,,,,,,,,,,0,0,0,,-880,15804,3904,-65,86,-156
20.387,20.15,0.93,3.14,-1.50,17.24,-12.30,-0.33,0.62,-0.83,1.52,1567.00,2330.00,205.00,174.00,1289.00,2909.00,759.00,1493.00,,,,,,,,,,,,0,0,0,,-872,15560,4032,-112,128,-143
20.447,20.20,0.86,-0.46,0.95,-12.13,7.63,-0.47,1.82,-0.43,2.77,1465.00,2516.00,119.00,326.00,1211.00,2833.00,704.00,1421.00,,,,,,,,,,,,0,0,0,,-924,15636,3932,-149,113,-107
20.528,20.26,0.98,-0.47,2.51,-35.69,53.80,3.14,-1.97,5.20,-3.01,1347.00,2414.00,15.00,240.00,1392.00,2718.00,869.00,1328.00,,,,,,,,,,,,0,0,0,,-812,15644,4020,-125,80,-170
20.549,20.31,0.89,4.42,-2.70,31.42,-20.88,-0.78,0.60,-1.46,1.42,1634.00,2288.00,252.00,125.00,1301.00,2963.00,772.00,1535.00,,,,,,,,,,,,0,0,0,,-836,15628,3956,-96,138,-158
20.653,20.37,0.81,-0.72,0.84,-10.84,4.59,-0.79,2.29,-1.37,3.86,1481.00,2550.00,137.00,336.00,1187.00,2832.00,675.00,1432.00,,,,,,,,,,,,0,0,0,,-944,15636,4076,-81,165,-127
20.673,20.42,0.87,-0.17,1.76,-16.86,20.67,2.16,-0.77,3.47,-1.42,1395.00,2434.00,64.00,277.00,1328.00,2736.00,823.00,1363.00,,,,,,,,,,,,0,0,0,,-812,15496,3812,-15,116,-201
20.734,20.48,0.86,2.90,-0.93,12.23,-5.33,0.57,0.39,0.20,0.88,1526.00,2317.00,154.00,176.00,1284.00,2825.00,771.00,1458.00,,,,,,,,,,,,0,0,0,,-880,15560,4088,-118,134,-135
20.776,20.53,0.84,1.19,0.25,2.98,-0.85,0.49,0.47,0.59,0.84,1477.00,2402.00,143.00,225.00,1280.00,2827.00,767.00,1437.00,,,,,,,,,,,,0,0,0,,-864,15640,3956,-141,142,-121
20.837,20.59,0.81,0.81,0.45,-7.19,7.08,0.31,1.15,0.59,1.23,1471.00,2425.00,112.00,272.00,1238.00,2796.00,751.00,1422.00,,,,,,,,,,,,0,0,0,,-888,15588,4004,-143,78,-131
20.897,20.64,0.89,0.69,1.22,-10.70,18.03,2.42,-1.31,3.63,-2.08,1414.00,2387.00,66.00,233.00,1361.00,2748.00,850.00,1378.00,,,,,,,,,,,,0,0,0,,-952,15776,4028,-79,108,-126
20.938,20.70,0.83,3.29,-1.54,23.22,-14.58,-0.47,0.81,-1.01,1.38,1566.00,2319.00,208.00,146.00,1279.00,2910.00,767.00,1509.00,,,,,,,,,,,,0,0,0,,-992,15660,3892,-50,97,-210
21.019,20.75,0.74,-0.61,1.11,-12.46,7.43,-0.80,2.31,-0.66,3.03,1457.00,2521.00,121.00,332.00,1186.00,2832.00,697.00,1424.00,,,,,,,,,,,,0,0,0,,-812,15464,3912,-52,68,-171
21.08,20.81,0.87,-0.69,2.77,inf,inf,3.31,-2.17,5.62,-3.74,1333.00,2418.00,0.00,233.00,1403.00,2715.00,897.00,1332.00,,,,,,,,,,,,0,0,0,,-844,15636,3932,-126,138,-145
21.122,20.86,0.80,4.26,-2.48,30.93,-18.94,-0.63,0.61,-0.96,0.87,1619.00,2289.00,229.00,121.00,1297.00,2945.00,788.00,1527.00,,,,,,,,,,,,0,0,0,,-868,15596,3880,-129,114,-104
21.163,20.92,0.71,-0.49,0.69,-10.19,5.34,-0.86,1.63,-1.02,2.50,1487.00,2537.00,130.00,321.00,1232.00,2891.00,722.00,1465.00,,,,,,,,,,,,0,0,0,,-904,15664,4136,-101,119,-176
21.246,20.97,0.75,-0.39,1.78,-15.45,21.39,1.37,-0.50,3.23,-1.44,1399.00,2454.00,60.00,257.00,1328.00,2803.00,827.00,1376.00,,,,,,,,,,,,0,0,0,,-872,15612,3824,-108,170,-188
21.267,21.03,0.77,2.05,-0.58,8.68,-3.15,1.16,-0.35,1.27,-0.21,1521.00,2374.00,146.00,191.00,1322.00,2815.00,802.00,1439.00,,,,,,,,,,,,0,0,0,,-860,15596,3976,-82,104,-107
21.33,21.08,0.74,1.33,-0.01,6.16,-2.43,0.23,0.63,0.62,0.64,1494.00,2405.00,147.00,207.00,1275.00,2844.00,775.00,1443.00,,,,,,,,,,,,0,0,0,,-812,15592,3984,-58,129,-241
21.412,21.14,0.70,0.22,0.76,-5.96,5.55,-0.04,1.45,0.67,1.26,1462.00,2462.00,119.00,270.00,1226.00,2813.00,749.00,1417.00,,,,,,,,,,,,0,0,0,,-908,15704,3956,-124,152,-127
21.432,21.19,0.79,0.32,1.42,-13.79,22.44,2.42,-1.28,4.03,-2.25,1408.00,2409.00,55.00,234.00,1359.00,2746.00,852.00,1363.00,,,,,,,,,,,,0,0,0,,-952,15536,3912,-112,130,-140
21.495,21.25,0.73,3.25,-1.61,23.37,-14.54,-0.33,0.63,-1.07,1.38,1573.00,2327.00,207.00,145.00,1288.00,2908.00,768.00,1513.00,,,,,,,,,,,,0,0,0,,-860,15584,4140,-153,91,-151
21.536,21.30,0.65,-0.74,1.02,-11.30,5.71,-0.92,2.64,-0.62,2.96,1467.00,2539.00,130.00,332.00,1168.00,2821.00,699.00,1424.00,,,,,,,,,,,,0,0,0,,-924,15700,3800,-98,146,-176
21.597,21.36,0.78,-0.80,2.81,-62.06,92.39,3.31,-2.03,5.63,-3.78,1333.00,2426.00,3.00,242.00,1392.00,2704.00,899.00,1333.00,,,,,,,,,,,,0,0,0,,-952,15540,3828,-94,119,-189
21.659,21.41,0.74,3.73,-2.05,28.43,-16.77,-0.10,0.26,-0.75,0.73,1597.00,2310.00,213.00,126.00,1309.00,2911.00,791.00,1520.00,,,,,,,,,,,,0,0,0,,-848,15616,4004,-143,82,-164
21.762,21.47,0.67,0.05,0.26,-3.45,-0.17,-0.53,1.63,1.64,-1.01,1507.00,2512.00,155.00,285.00,1225.00,2854.00,832.00,1449.00,,,,,,,,,,,,0,0,0,,-880,15528,4144,-122,103,-151
21.782,21.52,0.70,-0.47,1.91,-16.13,22.24,1.21,-0.21,2.78,-1.17,1391.00,2453.00,58.00,258.00,1311.00,2799.00,822.00,1391.00,,,,,,,,,,,,0,0,0,,-792,15644,3856,-142,159,-152
21.843,21.58,0.72,0.72,0.27,-1.43,3.72,0.99,-0.31,1.67,-0.60,1488.00,2446.00,121.00,237.00,1323.00,2830.00,813.00,1431.00,,,,,,,,,,,,0,0,0,,-732,15676,3872,-150,101,-162
21.885,21.63,0.66,1.21,-0.17,6.55,-3.89,-0.47,0.72,-0.03,0.86,1510.00,2427.00,158.00,212.00,1285.00,2917.00,775.00,1472.00,,,,,,,,,,,,0,0,0,,-792,15680,3800,-126,117,-180
21.946,21.69,0.61,-0.80,0.98,-12.57,7.93,-0.23,1.62,0.62,1.32,1472.00,2548.00,118.00,329.00,1219.00,2821.00,747.00,1417.00,,,,,,,,,,,,0,0,0,,-924,15692,4116,-94,112,-106
21.987,21.74,0.72,0.05,1.70,-22.63,34.84,2.84,-1.48,4.42,-2.58,1394.00,2417.00,33.00,238.00,1363.00,2715.00,861.00,1354.00,,,,,,,,,,,,0,0,0,,-848,15540,3952,-26,164,-218
22.049,21.80,0.67,3.48,-1.75,28.30,-16.29,-0.34,0.82,-0.79,0.79,1578.00,2314.00,208.00,125.00,1275.00,2894.00,789.00,1520.00,,,,,,,,,,,,0,0,0,,-952,15628,3888,-72,130,-115
22.152,21.85,0.59,-1.36,1.36,-14.40,7.48,-0.87,2.84,-0.99,3.38,1457.00,2579.00,125.00,358.00,1154.00,2800.00,688.00,1429.00,,,,,,,,,,,,0,0,0,,-836,15552,4044,-114,132,-85
22.171,21.91,0.72,-0.75,2.86,-69.17,102.27,3.06,-1.65,4.91,-3.15,1328.00,2418.00,2.00,246.00,1370.00,2703.00,880.00,1348.00,,,,,,,,,,,,0,0,0,,-816,15696,3800,-130,101,-222
22.211,21.96,0.71,3.16,-1.67,16.68,-11.46,0.51,0.09,0.33,0.13,1581.00,2339.00,198.00,174.00,1306.00,2854.00,801.00,1480.00,,,,,,,,,,,,0,0,0,,-916,15648,4012,-79,48,-101
22.273,22.02,0.65,0.28,0.59,-4.65,3.34,-0.51,2.00,-0.14,2.13,1474.00,2467.00,131.00,272.00,1200.00,2823.00,725.00,1429.00,,,,,,,,,,,,0,0,0,,-876,15636,4044,-66,87,-240
22.316,22.07,0.64,-0.12,1.72,-14.79,20.27,0.62,0.50,1.52,-0.15,1397.00,2432.00,63.00,258.00,1275.00,2811.00,796.00,1423.00,,,,,,,,,,,,0,0,0,,-944,15468,3852,-82,54,-216
22.376,22.13,0.69,0.54,0.88,-7.48,12.50,1.47,-0.41,2.09,-0.76,1444.00,2423.00,84.00,238.00,1319.00,2785.00,814.00,1414.00,,,,,,,,,,,,0,0,0,,-904,15576,3888,-150,109,-123
22.519,22.18,0.63,1.76,-0.26,14.39,-8.52,-0.45,0.79,-1.01,1.19,1502.00,2380.00,176.00,176.00,1280.00,2910.00,775.00,1517.00,,,,,,,,,,,,0,0,0,,-884,15508,3900,-184,155,-79
22.541,22.24,0.56,-0.63,1.01,-12.47,8.70,-0.70,2.03,-0.16,2.01,1465.00,2529.00,113.00,321.00,1202.00,2842.00,730.00,1435.00,,,,,,,,,,,,0,0,0,,-900,15588,4044,-146,154,-132
22.562,22.29,0.66,-0.40,2.12,-28.49,43.48,2.61,-1.59,4.41,-2.87,1374.00,2433.00,23.00,238.00,1377.00,2748.00,875.00,1365.00,,,,,,,,,,,,0,0,0,,-916,15656,3836,-89,124,-227
22.584,22.35,0.59,3.53,-1.83,27.17,-16.08,-0.87,0.91,-1.59,1.20,1584.00,2315.00,210.00,130.00,1281.00,2948.00,783.00,1552.00,,,,,,,,,,,,0,0,0,,-784,15656,4084,-97,107,-117
22.643,22.40,0.53,-0.95,1.04,-8.90,1.07,-0.67,2.66,-0.80,3.24,1471.00,2559.00,160.00,342.00,1161.00,2791.00,691.00,1424.00,,,,,,,,,,,,0,0,0,,-872,15660,4016,-55,153,-160
22.705,22.46,0.64,-0.62,2.78,-51.89,76.16,2.75,-1.29,3.84,-2.30,1331.00,2411.00,6.00,250.00,1351.00,2710.00,857.00,1375.00,,,,,,,,,,,,0,0,0,,-804,15520,3968,-80,174,-181
22.766,22.51,0.65,2.94,-0.99,16.07,-7.44,0.82,0.32,0.28,0.40,1530.00,2317.00,161.00,160.00,1283.00,2802.00,790.00,1472.00,,,,,,,,,,,,0,0,0,,-804,15400,4072,-180,95,-139
22.849,22.57,0.61,0.50,0.77,-2.26,2.96,-0.01,1.57,-0.46,2.14,1454.00,2434.00,128.00,250.00,1217.00,2800.00,729.00,1447.00,,,,,,,,,,,,0,0,0,,-796,15672,3960,-181,95,-188
22.869,22.62,0.61,0.48,1.02,-5.97,7.69,0.65,0.87,1.18,0.48,1435.00,2420.00,106.00,255.00,1249.00,2780.00,774.00,1418.00,,,,,,,,,,,,0,0,0,,-808,15476,4072,-161,126,-96
22.93,22.68,0.68,0.82,1.07,-7.27,14.27,2.01,-0.43,2.56,-1.03,1422.00,2384.00,76.00,225.00,1307.00,2727.00,819.00,1398.00,,,,,,,,,,,,0,0,0,,-844,15588,3924,-88,77,-197
22.971,22.73,0.64,2.93,-1.32,18.04,-12.38,-0.13,0.81,-0.84,1.23,1558.00,2339.00,203.00,169.00,1271.00,2871.00,771.00,1505.00,,,,,,,,,,,,0,0,0,,-868,15520,3884,-92,97,-178
23.033,22.79,0.59,-0.49,1.14,-11.63,7.93,-0.43,2.17,-0.09,2.11,1451.00,2506.00,116.00,317.00,1187.00,2801.00,725.00,1427.00,,,,,,,,,,,,0,0,0,,-904,15608,3972,-126,96,-147
23.095,22.84,0.71,-0.12,2.23,-33.25,51.78,2.91,-1.43,4.86,-2.98,1359.00,2399.00,16.00,230.00,1358.00,2704.00,873.00,1345.00,,,,,,,,,,,,0,0,0,,-852,15580,3936,-114,101,-130
23.157,22.90,0.64,4.31,-2.54,34.42,-21.22,-0.68,0.81,-1.82,1.23,1623.00,2288.00,243.00,112.00,1284.00,2935.00,785.00,1565.00,,,,,,,,,,,,0,0,0,,-896,15648,3972,-133,119,-104
23.218,22.95,0.56,-0.87,1.06,-10.45,5.71,-0.95,2.44,-1.08,3.28,1467.00,2549.00,128.00,321.00,1181.00,2839.00,693.00,1438.00,,,,,,,,,,,,0,0,0,,-748,15636,3824,-88,139,-206
23.259,23.01,0.64,-0.35,1.85,-16.74,23.43,2.27,-0.78,3.83,-1.99,1393.00,2446.00,55.00,256.00,1326.00,2725.00,843.00,1364.00,,,,,,,,,,,,0,0,0,,-888,15612,4036,-116,71,-143
23.3,23.06,0.67,2.76,-0.77,15.56,-6.92,1.10,0.14,0.84,0.12,1517.00,2320.00,158.00,161.00,1289.00,2785.00,794.00,1451.00,,,,,,,,,,,,0,0,0,,-904,15692,3936,-72,133,-106
23.362,23.12,0.67,1.19,0.32,4.06,-1.08,0.83,0.77,0.50,0.92,1471.00,2397.00,142.00,217.00,1252.00,2768.00,765.00,1439.00,,,,,,,,,,,,0,0,0,,-844,15468,3944,-35,189,-155
23.425,23.17,0.68,0.82,0.93,-5.77,7.11,0.77,1.26,1.18,0.55,1433.00,2393.00,109.00,257.00,1220.00,2737.00,771.00,1415.00,,,,,,,,,,,,0,0,0,,-796,15500,3968,-134,93,-127
23.465,23.23,0.80,1.10,1.16,-10.19,19.93,3.06,-1.37,3.48,-2.05,1408.00,2352.00,59.00,217.00,1350.00,2684.00,851.00,1385.00,,,,,,,,,,,,0,0,0,,-848,15636,4100,-132,113,-174
23.525,23.28,0.77,3.59,-1.27,23.31,-13.42,0.14,0.78,-0.77,1.25,1535.00,2275.00,195.00,141.00,1267.00,2843.00,769.00,1500.00,,,,,,,,,,,,0,0,0,,-940,15524,4036,-142,129,-137
23.588,23.34,0.72,-0.10,1.11,-12.12,8.42,-0.19,2.34,-0.34,2.79,1443.00,2470.00,114.00,319.00,1171.00,2762.00,702.00,1415.00,,,,,,,,,,,,0,0,0,,-796,15604,3908,-46,106,-179
23.651,23.39,0.89,0.00,2.62,inf,inf,4.15,-2.38,5.71,-3.48,1327.00,2362.00,0.00,227.00,1397.00,2640.00,883.00,1318.00,,,,,,,,,,,,0,0,0,,-864,15576,3820,-83,103,-177
23.692,23.45,0.84,5.03,-2.65,33.32,-19.59,-0.09,0.65,-0.79,0.81,1611.00,2230.00,227.00,112.00,1281.00,2879.00,788.00,1519.00,,,,,,,,,,,,0,0,0,,-932,15652,3988,-77,139,-168
23.753,23.50,0.80,-0.19,0.92,-8.56,5.08,-0.05,1.62,-0.41,2.02,1460.00,2491.00,128.00,303.00,1215.00,2801.00,733.00,1449.00,,,,,,,,,,,,0,0,0,,-840,15460,3992,-137,71,-131
23.793,23.56,0.86,0.15,1.90,-14.60,22.38,2.06,-0.60,3.71,-1.71,1376.00,2394.00,56.00,242.00,1318.00,2734.00,832.00,1360.00,,,,,,,,,,,,0,0,0,,-748,15676,4064,-62,117,-103
23.855,23.61,0.86,2.53,-0.45,9.97,-2.00,0.91,0.07,0.92,0.00,1497.00,2321.00,134.00,176.00,1298.00,2811.00,798.00,1451.00,,,,,,,,,,,,0,0,0,,-768,15672,3872,-88,111,-236
23.958,23.67,0.86,1.54,0.04,6.71,-1.58,0.85,0.32,0.52,0.53,1484.00,2382.00,139.00,198.00,1282.00,2799.00,781.00,1453.00,,,,,,,,,,,,0,0,0,,-928,15496,4140,-143,49,-216
23.979,23.72,0.85,0.61,0.90,-6.13,7.06,0.60,1.49,1.02,0.92,1441.00,2415.00,110.00,261.00,1209.00,2739.00,758.00,1410.00,,,,,,,,,,,,0,0,0,,-848,15672,3968,-77,147,-129
24.04,23.78,0.98,1.00,1.41,-10.25,21.25,3.40,-1.46,4.35,-2.51,1392.00,2346.00,55.00,210.00,1348.00,2654.00,859.00,1355.00,,,,,,,,,,,,0,0,0,,-888,15528,4004,-56,188,-143
24.082,23.83,0.95,3.97,-1.40,26.81,-14.97,0.37,0.74,-0.62,1.08,1535.00,2249.00,199.00,128.00,1264.00,2820.00,774.00,1498.00,,,,,,,,,,,,0,0,0,,-848,15576,3936,-93,70,-175
24.123,23.89,0.88,0.02,1.28,-11.11,7.76,-0.27,2.72,-0.50,3.09,1427.00,2447.00,116.00,312.00,1149.00,2743.00,693.00,1413.00,,,,,,,,,,,,0,0,0,,-820,15680,3900,-126,121,-169
24.185,23.94,1.06,-0.21,3.13,inf,inf,4.30,-2.28,6.20,-4.18,1296.00,2350.00,0.00,224.00,1386.00,2618.00,909.00,1317.00,,,,,,,,,,,,0,0,0,,-840,15616,4068,-137,109,-130
24.248,24.00,1.03,4.89,-2.29,30.19,-16.92,0.59,0.41,-0.30,0.74,1584.00,2221.00,208.00,118.00,1282.00,2821.00,784.00,1493.00,,,,,,,,,,,,0,0,0,,-756,15628,3960,-95,94,-185
24.328,24.05,0.99,0.77,0.65,-9.03,10.36,0.10,1.79,-2.42,5.58,1456.00,2416.00,97.00,268.00,1200.00,2771.00,627.00,1426.00,,,,,,,,,,,,0,0,0,,-872,15548,4028,-59,105,-181
24.349,24.11,1.04,0.42,2.07,-14.20,24.34,2.07,-0.27,3.24,-1.26,1357.00,2358.00,50.00,226.00,1295.00,2710.00,819.00,1369.00,,,,,,,,,,,,0,0,0,,-848,15616,3976,-104,91,-140
24.451,24.16,1.08,1.92,0.10,1.74,3.92,1.76,-0.25,2.20,-0.82,1469.00,2343.00,113.00,208.00,1301.00,2742.00,815.00,1410.00,,,,,,,,,,,,0,0,0,,-812,15532,3936,-128,102,-143
24.472,24.22,1.05,2.04,-0.18,9.55,-3.44,0.56,0.43,0.26,0.67,1488.00,2349.00,146.00,186.00,1281.00,2822.00,779.00,1463.00,,,,,,,,,,,,0,0,0,,-808,15544,3884,-106,134,-120
24.532,24.27,1.00,-0.18,1.16,-10.34,7.34,0.09,1.48,0.63,1.12,1441.00,2474.00,117.00,306.00,1221.00,2796.00,755.00,1424.00,,,,,,,,,,,,0,0,0,,-708,15736,3856,-82,179,-94
24.593,24.33,1.12,0.28,1.82,-20.13,32.92,3.29,-1.59,4.47,-2.75,1379.00,2387.00,35.00,227.00,1360.00,2675.00,868.00,1357.00,,,,,,,,,,,,0,0,0,,-808,15672,4132,-148,102,-286
24.716,24.38,1.07,4.16,-1.81,29.02,-16.44,0.28,0.72,-0.52,0.84,1564.00,2257.00,207.00,122.00,1268.00,2832.00,783.00,1502.00,,,,,,,,,,,,0,0,0,,-968,15584,3996,-88,142,-146
24.736,24.44,1.00,-0.79,1.50,-14.37,8.38,-0.40,2.93,-0.80,3.29,1431.00,2512.00,119.00,349.00,1139.00,2742.00,689.00,1422.00,,,,,,,,,,,,0,0,0,,-884,15488,3868,10,200,-158
24.757,24.49,1.14,-0.42,3.20,inf,inf,3.85,-1.81,5.79,-3.88,1296.00,2365.00,0.00,236.00,1362.00,2631.00,901.00,1328.00,,,,,,,,,,,,0,0,0,,-792,15564,3836,-149,92,-166
24.798,24.55,1.14,3.90,-1.58,18.32,-11.45,1.07,0.05,0.67,-0.19,1552.00,2266.00,192.00,163.00,1296.00,2795.00,810.00,1473.00,,,,,,,,,,,,0,0,0,,-864,15624,3988,-118,129,-100
24.839,24.60,1.10,0.76,0.75,-2.30,2.13,0.29,1.73,0.09,1.93,1449.00,2411.00,134.00,256.00,1200.00,2755.00,730.00,1424.00,,,,,,,,,,,,0,0,0,,-956,15520,3956,-171,102,-155
24.9,24.66,1.12,0.36,2.05,-15.80,24.15,1.52,0.36,2.36,-0.69,1360.00,2365.00,52.00,242.00,1264.00,2723.00,807.00,1396.00,,,,,,,,,,,,0,0,0,,-880,15684,4220,-60,67,-127
24.961,24.71,1.16,1.35,0.90,-2.97,10.33,1.94,-0.32,2.16,-0.76,1422.00,2346.00,87.00,211.00,1301.00,2727.00,813.00,1410.00,,,,,,,,,,,,0,0,0,,-752,15544,3836,-31,111,-239
25.087,24.77,1.11,2.57,-0.27,11.47,-4.21,0.13,0.71,-0.62,0.99,1481.00,2306.00,147.00,176.00,1272.00,2850.00,778.00,1502.00,,,,,,,,,,,,0,0,0,,-896,15500,3880,-81,88,-156
25.107,24.82,1.06,0.01,1.12,-10.94,8.35,0.08,1.77,0.24,1.60,1439.00,2458.00,112.00,305.00,1202.00,2775.00,741.00,1428.00,,,,,,,,,,,,0,0,0,,-952,15564,3988,-132,120,-118
25.127,24.88,1.16,0.07,2.33,-22.92,36.70,3.22,-1.70,4.29,-2.94,1347.00,2375.00,30.00,229.00,1370.00,2690.00,880.00,1374.00,,,,,,,,,,,,0,0,0,,-860,15508,4160,-177,121,-112
25.168,24.93,1.08,4.12,-1.85,30.35,-17.15,-0.47,0.62,-1.74,1.20,1569.00,2263.00,210.00,118.00,1292.00,2925.00,785.00,1561.00,,,,,,,,,,,,0,0,0,,-800,15580,3956,-120,133,-135
25.229,24.99,0.98,-0.82,1.01,-14.50,8.58,-0.88,2.77,-0.89,2.98,1470.00,2548.00,118.00,349.00,1159.00,2807.00,702.00,1439.00,,,,,,,,,,,,0,0,0,,-896,15740,3856,-96,62,-248
25.311,25.04,1.09,-0.40,2.62,-36.95,55.49,3.03,-1.41,4.26,-2.86,1337.00,2400.00,14.00,241.00,1353.00,2689.00,877.00,1373.00,,,,,,,,,,,,0,0,0,,-920,15632,4056,-89,176,-109
25.332,25.10,1.09,3.17,-1.07,16.60,-9.37,1.06,0.18,0.45,0.14,1530.00,2301.00,177.00,165.00,1287.00,2786.00,799.00,1473.00,,,,,,,,,,,,0,0,0,,-852,15512,3968,-4,124,-167
25.434,25.15,1.04,0.93,0.59,-2.64,3.98,0.17,1.77,-0.19,1.84,1457.00,2405.00,122.00,247.00,1200.00,2765.00,737.00,1443.00,,,,,,,,,,,,0,0,0,,-904,15664,3932,-174,122,-133
25.455,25.21,1.04,0.69,1.15,-9.75,12.40,1.03,0.80,1.27,0.21,1419.00,2391.00,88.00,261.00,1245.00,2743.00,784.00,1423.00,,,,,,,,,,,,0,0,0,,-848,15632,3864,-142,119,-102
25.496,25.26,1.10,1.18,0.95,-5.84,12.16,2.19,-0.41,1.99,-0.72,1422.00,2358.00,83.00,225.00,1302.00,2707.00,814.00,1418.00,,,,,,,,,,,,0,0,0,,-916,15488,3988,-173,167,-135
25.558,25.32,1.04,2.93,-1.03,18.87,-11.34,0.04,0.90,-0.87,1.02,1533.00,2320.00,189.00,159.00,1261.00,2845.00,780.00,1515.00,,,,,,,,,,,,0,0,0,,-780,15656,3968,-67,134,-164
25.62,25.37,0.99,-0.03,0.96,-10.86,7.99,-0.04,2.07,-0.14,2.21,1453.00,2473.00,114.00,307.00,1185.00,2766.00,722.00,1426.00,,,,,,,,,,,,0,0,0,,-968,15576,4008,-68,62,-191
25.681,25.43,1.12,-0.10,2.41,-36.62,56.75,3.53,-1.72,4.74,-3.09,1345.00,2385.00,13.00,230.00,1364.00,2659.00,880.00,1355.00,,,,,,,,,,,,0,0,0,,-856,15472,3976,-107,156,-170
25.722,25.48,1.04,4.62,-2.49,35.88,-20.61,-0.38,0.68,-2.03,1.30,1609.00,2257.00,229.00,104.00,1286.00,2910.00,785.00,1575.00,,,,,,,,,,,,0,0,0,,-900,15604,3956,-157,78,-143
25.783,25.54,0.95,-0.83,1.15,-12.30,6.19,-0.73,2.41,-1.25,3.07,1459.00,2539.00,129.00,341.00,1178.00,2816.00,703.00,1456.00,,,,,,,,,,,,0,0,0,,-864,15688,3992,-88,141,-97
25.845,25.59,1.02,-0.48,2.02,-21.36,29.53,2.25,-0.99,3.47,-2.43,1383.00,2447.00,43.00,261.00,1342.00,2743.00,869.00,1400.00,,,,,,,,,,,,0,0,0,,-820,15640,3872,-115,151,-169
25.907,25.65,1.00,2.18,-0.75,12.28,-4.98,0.69,0.28,0.30,-0.02,1531.00,2372.00,151.00,174.00,1289.00,2820.00,808.00,1488.00,,,,,,,,,,,,0,0,0,,-880,15608,4064,-153,39,-179
25.949,25.70,0.97,0.77,0.41,0.35,0.17,0.35,1.21,-0.07,1.31,1475.00,2431.00,142.00,243.00,1233.00,2787.00,757.00,1457.00,,,,,,,,,,,,0,0,0,,-812,15668,4056,-34,250,-152
26.01,25.76,0.96,0.75,0.88,-5.77,5.96,0.71,1.09,0.10,0.70,1439.00,2403.00,116.00,265.00,1233.00,2757.00,780.00,1471.00,,,,,,,,,,,,0,0,0,,-788,15452,3896,-77,164,-151
26.052,25.81,1.04,0.91,1.18,-10.19,19.93,2.64,-0.95,2.87,-1.62,1411.00,2368.00,59.00,217.00,1329.00,2697.00,841.00,1403.00,,,,,,,,,,,,0,0,0,,-808,15652,4044,-138,80,-171
26.154,25.87,0.99,2.95,-1.06,20.20,-14.00,0.05,0.84,-0.77,0.76,1535.00,2320.00,213.00,162.00,1265.00,2849.00,790.00,1520.00,,,,,,,,,,,,0,0,0,,-848,15696,4044,-86,118,-182
26.175,25.92,0.93,-0.51,1.14,-12.41,8.84,-0.14,2.20,-0.32,2.14,1452.00,2509.00,112.00,319.00,1179.00,2767.00,727.00,1439.00,,,,,,,,,,,,0,0,0,,-808,15624,3900,-83,84,-147
26.217,25.98,1.07,-0.06,2.45,-55.73,84.94,3.69,-1.93,5.26,-3.58,1341.00,2379.00,4.00,230.00,1375.00,2657.00,895.00,1345.00,,,,,,,,,,,,0,0,0,,-840,15604,3836,-36,86,-206
26.278,26.03,1.01,4.92,-2.70,34.42,-21.22,-0.15,0.56,-1.58,0.91,1619.00,2243.00,243.00,112.00,1289.00,2893.00,795.00,1563.00,,,,,,,,,,,,0,0,0,,-772,15572,4044,-66,46,-198
26.36,26.09,0.95,-0.30,0.77,-8.09,4.64,-0.26,1.93,-1.00,2.62,1475.00,2512.00,130.00,301.00,1199.00,2801.00,717.00,1459.00,,,,,,,,,,,,0,0,0,,-808,15548,4012,-117,99,-139
26.381,26.14,1.01,-0.22,1.82,-14.82,21.49,2.20,-0.74,3.24,-2.01,1392.00,2435.00,59.00,250.00,1325.00,2730.00,853.00,1397.00,,,,,,,,,,,,0,0,0,,-824,15504,4024,-113,130,-146
26.442,26.20,0.99,2.46,-0.64,12.25,-4.73,0.69,0.20,0.36,-0.11,1514.00,2339.00,149.00,173.00,1294.00,2825.00,811.00,1488.00,,,,,,,,,,,,0,0,0,,-740,15712,3944,-126,152,-132
26.545,26.25,0.96,0.93,0.01,5.05,-1.67,0.25,0.55,0.35,0.31,1503.00,2442.00,144.00,212.00,1280.00,2848.00,793.00,1472.00,,,,,,,,,,,,0,0,0,,-844,15672,3900,-112,130,-210
26.564,26.31,0.93,0.15,0.69,-5.89,6.00,0.40,1.19,0.41,0.86,1470.00,2474.00,116.00,266.00,1233.00,2783.00,769.00,1447.00,,,,,,,,,,,,0,0,0,,-956,15508,4160,-122,90,-126
26.625,26.36,1.04,0.48,1.28,-9.02,17.19,3.13,-1.52,3.52,-2.64,1415.00,2403.00,67.00,223.00,1359.00,2687.00,878.00,1405.00,,,,,,,,,,,,0,0,0,,-844,15588,3964,-51,156,-210
26.666,26.42,1.00,3.43,-1.62,23.28,-14.15,0.20,0.73,-1.04,1.06,1569.00,2311.00,203.00,144.00,1269.00,2840.00,781.00,1524.00,,,,,,,,,,,,0,0,0,,-864,15572,3964,-102,92,-102
26.706,26.47,0.93,-0.30,0.90,-11.22,7.32,-0.27,2.51,-0.80,2.87,1465.00,2504.00,119.00,317.00,1162.00,2758.00,705.00,1438.00,,,,,,,,,,,,0,0,0,,-876,15728,4028,-112,171,-105
26.768,26.53,1.10,-0.47,2.70,inf,inf,4.15,-2.40,5.21,-3.89,1333.00,2402.00,0.00,227.00,1399.00,2642.00,911.00,1359.00,,,,,,,,,,,,0,0,0,,-792,15488,3884,-143,98,-190
26.831,26.58,1.04,4.56,-2.55,33.75,-19.89,0.06,0.63,-0.68,0.27,1616.00,2266.00,229.00,111.00,1279.00,2864.00,810.00,1535.00,,,,,,,,,,,,0,0,0,,-852,15628,3920,-75,94,-116
26.893,26.64,0.99,-0.21,0.59,-7.72,4.09,0.07,1.59,-0.52,1.58,1487.00,2515.00,133.00,301.00,1214.00,2790.00,752.00,1472.00,,,,,,,,,,,,0,0,0,,-824,15496,3824,-51,102,-243
26.955,26.69,1.06,-0.00,1.74,-15.33,23.29,2.26,-0.52,3.38,-1.95,1392.00,2419.00,54.00,243.00,1308.00,2707.00,848.00,1387.00,,,,,,,,,,,,0,0,0,,-900,15460,3840,-104,41,-186
26.996,26.75,1.07,2.39,-0.65,10.91,-3.39,1.27,0.02,0.85,-0.39,1517.00,2346.00,142.00,176.00,1293.00,2775.00,816.00,1470.00,,,,,,,,,,,,0,0,0,,-988,15560,3928,-126,122,-178
27.079,26.80,1.03,1.40,-0.09,3.32,-2.33,0.39,0.56,0.01,0.40,1498.00,2403.00,154.00,231.00,1276.00,2832.00,794.00,1488.00,,,,,,,,,,,,0,0,0,,-852,15572,3944,-123,147,-115
27.101,26.86,0.99,0.24,0.67,-6.58,6.88,0.05,1.28,0.44,0.66,1469.00,2466.00,112.00,267.00,1235.00,2815.00,777.00,1453.00,,,,,,,,,,,,0,0,0,,-868,15460,4132,-140,140,-158
27.162,26.91,1.08,0.17,1.23,-13.88,23.86,2.88,-1.55,3.64,-2.76,1427.00,2436.00,51.00,226.00,1367.00,2715.00,882.00,1403.00,,,,,,,,,,,,0,0,0,,-864,15716,3880,-102,124,-201
27.264,26.97,1.03,3.30,-1.82,23.44,-14.38,0.03,0.80,-0.90,0.68,1590.00,2336.00,205.00,144.00,1268.00,2854.00,795.00,1531.00,,,,,,,,,,,,0,0,0,,-832,15696,4004,-59,115,-105
27.284,27.02,0.96,-0.40,0.82,-11.70,7.79,-0.29,2.73,-0.86,2.84,1474.00,2519.00,117.00,319.00,1149.00,2745.00,707.00,1443.00,,,,,,,,,,,,0,0,0,,-820,15512,3832,-22,207,-204
27.325,27.08,1.13,-0.47,2.77,-67.11,101.57,4.36,-2.33,5.68,-4.31,1328.00,2397.00,2.00,231.00,1388.00,2615.00,924.00,1349.00,,,,,,,,,,,,0,0,0,,-884,15520,3920,-103,105,-119
27.366,27.13,1.10,4.67,-2.56,29.44,-17.37,0.57,0.49,-0.50,0.37,1614.00,2257.00,216.00,123.00,1277.00,2817.00,803.00,1520.00,,,,,,,,,,,,0,0,0,,-908,15572,3936,-88,165,-107
27.427,27.19,1.06,0.58,0.29,-4.87,2.05,0.19,1.70,-0.35,1.70,1490.00,2458.00,141.00,284.00,1204.00,2768.00,745.00,1458.00,,,,,,,,,,,,0,0,0,,-832,15504,3976,-176,110,-207
27.489,27.24,1.12,0.06,1.96,-16.69,25.93,2.23,-0.20,2.97,-1.48,1374.00,2399.00,48.00,239.00,1286.00,2687.00,833.00,1392.00,,,,,,,,,,,,0,0,0,,-700,15652,4040,-48,47,-95
27.55,27.30,1.15,1.86,-0.12,4.30,1.79,1.88,-0.18,1.76,-1.01,1488.00,2362.00,121.00,199.00,1293.00,2723.00,830.00,1442.00,,,,,,,,,,,,0,0,0,,-784,15624,3944,-72,102,-237
27.654,27.35,1.14,1.83,-0.13,9.73,-3.50,0.88,0.30,0.27,0.20,1490.00,2366.00,146.00,185.00,1283.00,2797.00,799.00,1481.00,,,,,,,,,,,,0,0,0,,-960,15612,3852,-108,96,-151
27.674,27.41,1.10,-0.15,0.94,-10.08,7.57,0.36,1.46,-0.26,1.89,1458.00,2486.00,115.00,301.00,1216.00,2767.00,736.00,1445.00,,,,,,,,,,,,0,0,0,,-808,15540,3832,-125,101,-173
27.714,27.46,1.20,0.36,1.41,-14.57,25.21,3.09,-1.50,4.06,-2.90,1408.00,2406.00,48.00,224.00,1358.00,2689.00,882.00,1385.00,,,,,,,,,,,,0,0,0,,-784,15584,3812,-153,132,-145
27.755,27.52,1.14,3.52,-1.86,25.78,-15.44,0.04,0.47,-0.90,0.59,1587.00,2318.00,208.00,135.00,1291.00,2879.00,799.00,1535.00,,,,,,,,,,,,0,0,0,,-840,15556,4212,-140,131,-155
27.817,27.57,1.06,-1.23,1.11,-14.92,9.20,-0.54,2.68,-0.84,2.80,1473.00,2583.00,115.00,349.00,1157.00,2775.00,708.00,1443.00,,,,,,,,,,,,0,0,0,,-780,15636,4064,-113,13,-259
27.878,27.63,1.21,-0.68,2.74,-60.68,91.92,4.09,-1.91,4.75,-2.41,1335.00,2419.00,3.00,232.00,1364.00,2614.00,848.00,1330.00,,,,,,,,,,,,0,0,0,,-956,15584,4164,-57,172,-129
27.94,27.68,1.21,3.73,-2.06,21.40,-13.15,1.18,0.18,-0.23,0.39,1598.00,2311.00,199.00,151.00,1284.00,2773.00,798.00,1503.00,,,,,,,,,,,,0,0,0,,-812,15520,3896,-7,100,-194
28.002,27.74,1.18,0.47,0.55,-3.42,2.78,0.61,1.69,-0.12,1.85,1472.00,2451.00,132.00,263.00,1196.00,2724.00,736.00,1439.00,,,,,,,,,,,,0,0,0,,-896,15580,3972,-126,99,-147
28.043,27.79,1.23,0.09,1.95,-14.88,24.20,2.28,-0.10,3.02,-1.48,1374.00,2397.00,51.00,233.00,1278.00,2675.00,832.00,1389.00,,,,,,,,,,,,0,0,0,,-796,15600,4008,-152,121,-93
28.085,27.85,1.30,1.37,0.58,-5.30,11.54,2.58,-0.46,2.15,-0.94,1446.00,2364.00,85.00,224.00,1296.00,2669.00,821.00,1417.00,,,,,,,,,,,,0,0,0,,-848,15608,3992,-150,128,-154
28.148,27.90,1.28,2.33,-0.36,10.47,-3.37,0.90,0.67,0.17,0.42,1495.00,2334.00,143.00,179.00,1257.00,2767.00,791.00,1478.00,,,,,,,,,,,,0,0,0,,-772,15704,3812,-83,77,-173
28.21,27.96,1.24,-0.20,1.18,-10.69,8.10,0.55,1.67,0.65,1.04,1440.00,2475.00,113.00,304.00,1198.00,2731.00,758.00,1426.00,,,,,,,,,,,,0,0,0,,-856,15516,3920,-37,115,-226
28.271,28.01,1.37,0.48,1.78,-25.76,42.56,3.67,-1.64,5.43,-3.32,1377.00,2371.00,23.00,219.00,1354.00,2638.00,880.00,1327.00,,,,,,,,,,,,0,0,0,,-924,15588,3996,-123,97,-169
28.311,28.07,1.31,4.08,-1.96,29.60,-16.36,0.24,0.75,-1.13,0.99,1579.00,2273.00,204.00,119.00,1267.00,2835.00,785.00,1532.00,,,,,,,,,,,,0,0,0,,-884,15564,3872,-183,126,-147
28.392,28.12,1.22,-1.09,1.28,-14.83,8.54,-0.43,2.74,-0.55,2.42,1456.00,2557.00,119.00,354.00,1151.00,2759.00,719.00,1441.00,,,,,,,,,,,,0,0,0,,-752,15560,4072,-138,147,-93
28.413,28.18,1.33,-0.76,2.91,inf,inf,3.36,-1.59,5.08,-3.56,1325.00,2416.00,0.00,235.00,1358.00,2667.00,897.00,1354.00,,,,,,,,,,,,0,0,0,,-808,15568,4112,-116,170,-151
28.474,28.23,1.31,3.13,-1.66,15.82,-10.42,0.99,0.06,0.48,-0.28,1581.00,2341.00,190.00,175.00,1297.00,2803.00,817.00,1488.00,,,,,,,,,,,,0,0,0,,-780,15548,3840,-138,109,-314
28.535,28.29,1.28,0.65,0.57,-3.55,3.98,0.65,1.61,-0.10,1.84,1466.00,2433.00,124.00,256.00,1200.00,2725.00,736.00,1438.00,,,,,,,,,,,,0,0,0,,-868,15616,4008,-73,120,-134
28.577,28.34,1.32,0.36,1.70,-13.90,21.49,2.08,0.42,1.94,-0.41,1386.00,2387.00,58.00,241.00,1247.00,2659.00,801.00,1409.00,,,,,,,,,,,,0,0,0,,-824,15524,3904,-17,209,-154
28.637,28.40,1.39,1.38,0.69,-2.70,9.41,2.73,-0.28,2.63,-1.03,1437.00,2356.00,91.00,214.00,1280.00,2640.00,818.00,1394.00,,,,,,,,,,,,0,0,0,,-836,15448,3944,-147,150,-173
28.74,28.45,1.36,2.71,-0.38,16.57,-7.95,0.85,0.68,-0.30,0.86,1486.00,2300.00,164.00,159.00,1257.00,2771.00,779.00,1488.00,,,,,,,,,,,,0,0,0,,-832,15632,3884,-86,148,-124
28.76,28.51,1.33,-0.24,1.69,-11.46,9.37,0.76,1.96,0.61,1.57,1402.00,2445.00,107.00,303.00,1175.00,2688.00,737.00,1408.00,,,,,,,,,,,,0,0,0,,-828,15624,3824,-148,141,-171
28.801,28.56,1.47,0.55,2.22,-23.62,39.58,4.09,-1.67,4.78,-2.87,1343.00,2337.00,26.00,218.00,1346.00,2597.00,869.00,1345.00,,,,,,,,,,,,0,0,0,,-824,15808,4068,-91,131,-109
28.862,28.62,1.41,4.54,-1.91,36.53,-18.96,0.23,0.79,-0.94,0.65,1562.00,2229.00,207.00,97.00,1264.00,2832.00,797.00,1535.00,,,,,,,,,,,,0,0,0,,-916,15644,4120,-29,130,-219
28.923,28.67,1.34,-0.62,1.28,-14.40,9.51,0.08,2.60,-0.55,2.99,1443.00,2509.00,112.00,339.00,1149.00,2714.00,697.00,1419.00,,,,,,,,,,,,0,0,0,,-872,15500,4020,-126,106,-171
28.984,28.73,1.44,-0.32,2.92,-46.36,64.87,3.24,-1.27,4.64,-3.10,1314.00,2374.00,10.00,272.00,1338.00,2657.00,882.00,1361.00,,,,,,,,,,,,0,0,0,,-920,15460,4080,-145,66,-157
29.025,28.78,1.43,3.33,-1.16,15.86,-7.37,1.30,0.10,0.64,-0.02,1533.00,2292.00,161.00,161.00,1287.00,2766.00,803.00,1468.00,,,,,,,,,,,,0,0,0,,-900,15640,3940,-126,151,-119
29.106,28.84,1.37,0.87,0.43,-1.60,2.74,0.25,1.54,-0.13,1.60,1471.00,2421.00,128.00,245.00,1213.00,2773.00,746.00,1449.00,,,,,,,,,,,,0,0,0,,-752,15644,4116,-130,98,-133
29.126,28.89,1.35,0.36,1.17,-8.84,12.52,1.01,0.81,1.43,-0.03,1426.00,2421.00,86.00,251.00,1245.00,2745.00,792.00,1423.00,,,,,,,,,,,,0,0,0,,-804,15772,3880,-48,153,-219
29.188,28.95,1.44,1.13,0.90,-7.60,16.99,3.06,-0.83,2.93,-1.29,1427.00,2366.00,66.00,212.00,1311.00,2645.00,825.00,1387.00,,,,,,,,,,,,0,0,0,,-828,15568,4044,-91,79,-155
29.248,29.00,1.41,3.22,-1.15,18.43,-9.99,0.78,0.92,-0.27,0.94,1535.00,2301.00,177.00,156.00,1243.00,2762.00,775.00,1483.00,,,,,,,,,,,,0,0,0,,-812,15544,3900,2,142,-143
29.31,29.06,1.37,0.08,1.22,-10.29,7.64,0.63,2.37,0.63,1.97,1430.00,2445.00,115.00,303.00,1152.00,2672.00,721.00,1392.00,,,,,,,,,,,,0,0,0,,-864,15576,3700,-47,175,-184
29.351,29.11,1.53,0.45,2.46,-31.50,51.19,4.64,-1.81,5.70,-3.26,1328.00,2331.00,16.00,218.00,1343.00,2551.00,873.00,1311.00,,,,,,,,,,,,0,0,0,,-836,15576,4100,-120,72,-126
29.412,29.17,1.48,5.14,-2.45,39.47,-21.74,0.50,0.80,-1.04,0.99,1591.00,2209.00,228.00,93.00,1257.00,2801.00,784.00,1527.00,,,,,,,,,,,,0,0,0,,-892,15684,3736,-168,110,-209
29.475,29.22,1.41,-0.10,1.14,-11.66,7.63,0.04,2.84,-0.41,3.08,1441.00,2468.00,118.00,320.00,1135.00,2701.00,692.00,1408.00,,,,,,,,,,,,0,0,0,,-868,15528,3968,-88,159,-131
29.516,29.28,1.51,0.20,2.24,-18.58,29.03,3.47,-1.21,4.33,-2.61,1350.00,2368.00,42.00,237.00,1328.00,2629.00,864.00,1360.00,,,,,,,,,,,,0,0,0,,-852,15620,3980,-58,127,-196
29.577,29.33,1.51,3.46,-0.97,16.28,-6.33,1.52,0.36,0.87,-0.05,1514.00,2269.00,151.00,154.00,1264.00,2723.00,801.00,1456.00,,,,,,,,,,,,0,0,0,,-924,15484,3876,-110,98,-179
29.64,29.39,1.47,1.04,0.55,-0.10,2.23,0.76,1.15,0.34,1.29,1457.00,2397.00,128.00,234.00,1228.00,2747.00,752.00,1434.00,,,,,,,,,,,,0,0,0,,-840,15668,3880,-106,89,-144
29.701,29.44,1.46,1.07,0.70,-3.50,5.84,1.23,0.84,1.75,-0.18,1444.00,2384.00,112.00,243.00,1238.00,2719.00,794.00,1411.00,,,,,,,,,,,,0,0,0,,-916,15560,3976,-139,132,-161
29.761,29.50,1.53,1.04,1.14,-9.02,18.03,2.83,-0.87,3.31,-1.66,1411.00,2359.00,64.00,218.00,1319.00,2672.00,836.00,1380.00,,,,,,,,,,,,0,0,0,,-888,15544,4056,-103,125,-137
29.842,29.55,1.47,3.09,-1.35,17.97,-11.62,0.30,0.77,-0.21,0.47,1556.00,2326.00,195.00,166.00,1264.00,2826.00,794.00,1498.00,,,,,,,,,,,,0,0,0,,-868,15448,4000,-108,146,-148
29.863,29.61,1.40,-0.27,0.96,-11.57,8.56,0.14,2.22,0.26,2.05,1459.00,2496.00,112.00,311.00,1172.00,2736.00,723.00,1410.00,,,,,,,,,,,,0,0,0,,-844,15568,3980,-146,37,-280
29.903,29.66,1.57,0.06,2.49,-39.33,60.75,4.74,-2.08,5.99,-3.61,1335.00,2365.00,11.00,230.00,1360.00,2559.00,885.00,1308.00,,,,,,,,,,,,0,0,0,,-992,15616,3972,-97,108,-110
29.965,29.72,1.53,5.26,-2.85,37.21,-21.85,0.72,0.63,-0.91,0.95,1622.00,2222.00,239.00,102.00,1264.00,2790.00,784.00,1521.00,,,,,,,,,,,,0,0,0,,-924,15472,4016,7,168,-137
30.006,29.77,1.47,0.13,0.69,-9.93,5.54,0.43,2.26,0.01,2.47,1470.00,2475.00,128.00,316.00,1163.00,2701.00,710.00,1408.00,,,,,,,,,,,,0,0,0,,-852,15612,3960,-114,155,-182
30.068,29.83,1.55,0.87,1.65,-14.30,21.63,3.12,-0.66,4.32,-2.15,1377.00,2343.00,58.00,244.00,1297.00,2626.00,843.00,1344.00,,,,,,,,,,,,1,0,0,,-848,15616,3712,-79,295,-127
30.13,29.88,1.57,3.34,-0.84,15.72,-5.26,1.97,-0.11,0.90,0.08,1506.00,2271.00,144.00,153.00,1286.00,2709.00,795.00,1449.00,,,,,,,,,,,,1,0,0,,-836,15472,3780,-190,346,-209
30.254,29.94,1.56,1.44,0.26,5.56,-1.71,1.35,0.52,1.21,0.11,1469.00,2377.00,143.00,208.00,1257.00,2729.00,789.00,1430.00,,,,,,,,,,,,1,0,0,,-840,15772,3856,-133,93,-244
30.275,29.99,1.55,1.05,0.56,-4.23,5.13,1.25,1.01,1.64,0.09,1456.00,2395.00,118.00,255.00,1226.00,2704.00,784.00,1407.00,,,,,,,,,,,,1,0,0,,-864,15576,3936,-48,91,-338
30.316,30.05,1.64,0.89,1.11,-11.77,21.76,3.39,-1.49,4.13,-2.78,1417.00,2375.00,55.00,220.00,1350.00,2657.00,875.00,1377.00,,,,,,,,,,,,1,0,0,,-904,15552,3900,-116,-43,-177
30.356,30.10,1.59,3.32,-1.50,22.52,-13.80,0.61,0.46,-0.52,0.81,1562.00,2314.00,202.00,147.00,1278.00,2815.00,784.00,1503.00,,,,,,,,,,,,1,0,0,,-1064,15536,3888,-199,85,-262
30.418,30.16,1.50,-0.76,1.17,-10.47,5.87,-0.09,2.18,-0.68,2.11,1456.00,2531.00,127.00,320.00,1179.00,2763.00,733.00,1461.00,,,,,,,,,,,,1,0,0,,-924,15536,3960,-270,-118,-84
30.48,30.21,1.64,-0.22,2.31,-54.72,84.60,4.21,-2.41,6.16,-4.43,1355.00,2403.00,4.00,223.00,1398.00,2636.00,922.00,1328.00,,,,,,,,,,,,1,0,0,,-904,15780,4136,-114,-84,-213
30.603,30.27,1.57,4.54,-2.88,34.29,-21.02,0.34,0.24,-0.70,0.43,1646.00,2288.00,241.00,112.00,1300.00,2862.00,803.00,1529.00,,,,,,,,,,,,1,0,0,,-936,15356,3888,-84,40,-289
30.623,30.32,1.52,-0.34,0.62,-7.93,4.16,0.44,1.44,0.39,1.30,1488.00,2526.00,133.00,303.00,1216.00,2761.00,751.00,1431.00,,,,,,,,,,,,1,0,0,,-984,15540,4072,-271,-71,-120
30.643,30.38,1.59,0.07,1.66,-14.03,21.22,3.00,-0.67,4.14,-2.20,1396.00,2417.00,59.00,244.00,1301.00,2640.00,848.00,1355.00,,,,,,,,,,,,1,0,0,,-912,15564,4076,-28,-10,-270
30.684,30.43,1.60,2.76,-0.79,12.55,-4.07,1.76,0.19,1.71,-0.65,1518.00,2321.00,143.00,168.00,1270.00,2709.00,815.00,1431.00,,,,,,,,,,,,1,0,0,,-892,15516,3984,126,-324,138
30.726,30.49,1.59,1.81,-0.30,6.79,-2.26,1.40,0.35,1.01,-0.00,1504.00,2378.00,144.00,201.00,1267.00,2736.00,797.00,1446.00,,,,,,,,,,,,1,0,0,,-908,15676,4132,200,-358,171
30.787,30.54,1.57,0.37,0.85,-5.06,6.20,1.14,0.98,1.51,0.27,1451.00,2441.00,113.00,256.00,1231.00,2719.00,778.00,1407.00,,,,,,,,,,,,1,0,0,,-772,15620,4108,68,-2,17
30.847,30.60,1.65,0.79,1.12,-8.56,17.88,3.24,-1.40,4.38,-2.97,1419.00,2384.00,64.00,215.00,1347.00,2666.00,880.00,1370.00,,,,,,,,,,,,1,0,0,,-920,15616,3976,-101,338,-85
30.95,30.65,1.59,3.57,-1.74,24.75,-14.73,0.52,0.56,-0.20,0.54,1575.00,2306.00,204.00,138.00,1273.00,2817.00,791.00,1495.00,,,,,,,,,,,,1,0,0,,-772,15576,3840,-118,287,-112
30.97,30.71,1.51,-0.44,0.98,-10.06,6.32,-0.03,2.37,-0.14,2.26,1462.00,2512.00,123.00,311.00,1166.00,2743.00,720.00,1424.00,,,,,,,,,,,,1,0,0,,-796,15636,3964,-25,146,-48
31.011,30.76,1.65,-0.53,2.59,-67.95,101.86,4.28,-2.37,6.39,-4.56,1342.00,2414.00,2.00,237.00,1393.00,2626.00,925.00,1321.00,,,,,,,,,,,,1,0,0,,-848,15584,3924,-150,223,-95
31.052,30.82,1.58,4.23,-2.50,33.59,-20.32,0.31,0.36,-0.21,0.08,1622.00,2293.00,235.00,113.00,1292.00,2856.00,811.00,1514.00,,,,,,,,,,,,1,0,0,,-664,15684,3992,-104,233,-29
31.114,30.87,1.51,-0.08,0.37,-5.55,2.02,0.10,1.42,0.44,1.04,1502.00,2518.00,143.00,292.00,1225.00,2800.00,761.00,1438.00,,,,,,,,,,,,1,0,0,,-720,15700,4076,-116,237,-76
31.175,30.93,1.54,-0.19,1.60,-14.62,22.72,2.11,-0.39,4.20,-2.80,1408.00,2447.00,55.00,240.00,1302.00,2714.00,875.00,1374.00,,,,,,,,,,,,1,0,0,,-668,15572,3624,-206,270,-134
31.216,30.98,1.57,2.07,-0.76,8.23,-2.49,2.10,-0.50,1.98,-0.83,1535.00,2383.00,142.00,191.00,1310.00,2723.00,819.00,1423.00,,,,,,,,,,,,1,0,0,,-760,15736,4252,-113,93,-21
31.318,31.04,1.55,1.58,-0.28,7.34,-2.70,1.21,0.39,1.34,-0.25,1509.00,2399.00,146.00,199.00,1269.00,2754.00,803.00,1437.00,,,,,,,,,,,,1,0,0,,-760,15640,4016,-30,182,-186
31.338,31.09,1.52,0.40,0.55,-6.62,6.24,0.91,1.26,1.16,0.85,1474.00,2458.00,116.00,272.00,1217.00,2722.00,759.00,1405.00,,,,,,,,,,,,1,0,0,,-720,15696,3936,-163,231,-144
31.399,31.15,1.61,0.59,1.16,-11.64,21.05,3.39,-1.49,4.44,-2.78,1421.00,2400.00,57.00,223.00,1350.00,2657.00,870.00,1360.00,,,,,,,,,,,,1,0,0,,-748,15512,3876,-90,106,-102
31.44,31.20,1.55,3.53,-1.83,25.88,-15.02,0.46,0.57,-0.34,0.56,1584.00,2315.00,203.00,133.00,1274.00,2823.00,792.00,1502.00,,,,,,,,,,,,1,0,0,,-700,15680,3800,-110,103,-127
31.503,31.26,1.48,-0.37,0.83,-11.43,6.93,0.03,2.30,-0.11,2.64,1472.00,2515.00,122.00,323.00,1169.00,2741.00,705.00,1408.00,,,,,,,,,,,,1,0,0,,-696,15668,4008,-100,196,-157
31.544,31.31,1.62,-0.64,2.64,inf,inf,4.24,-2.34,5.81,-4.11,1341.00,2421.00,0.00,231.00,1392.00,2628.00,912.00,1335.00,,,,,,,,,,,,1,0,0,,-764,15476,3808,-34,50,-226
31.604,31.37,1.57,3.71,-2.11,27.50,-16.28,0.65,0.29,0.03,-0.02,1603.00,2316.00,211.00,129.00,1289.00,2823.00,812.00,1504.00,,,,,,,,,,,,1,0,0,,-908,15608,3944,-108,-10,-199
31.687,31.42,1.51,0.26,0.14,-2.91,0.50,0.36,1.37,0.22,1.28,1511.00,2499.00,148.00,274.00,1222.00,2774.00,754.00,1441.00,,,,,,,,,,,,1,0,0,,-744,15536,4004,-141,103,-204
31.727,31.48,1.54,-0.19,1.60,-13.89,19.96,2.10,-0.48,3.33,-1.71,1408.00,2447.00,63.00,251.00,1309.00,2722.00,838.00,1381.00,,,,,,,,,,,,1,0,0,,-780,15548,3968,-141,89,-157
31.79,31.53,1.54,1.00,0.10,0.56,2.90,1.61,-0.30,2.12,-1.02,1494.00,2430.00,122.00,224.00,1308.00,2762.00,825.00,1422.00,,,,,,,,,,,,1,0,0,,-656,15580,4084,-149,177,-192
31.849,31.59,1.49,1.24,-0.34,6.49,-2.91,0.59,0.35,0.82,-0.03,1523.00,2435.00,150.00,207.00,1286.00,2825.00,801.00,1458.00,,,,,,,,,,,,1,0,0,,-716,15448,3760,-372,120,-228
31.891,31.64,1.46,-0.39,0.67,-11.18,7.15,0.77,1.36,1.11,0.77,1486.00,2528.00,120.00,318.00,1214.00,2731.00,763.00,1411.00,,,,,,,,,,,,1,0,0,,-760,15604,4316,-435,78,10
31.932,31.70,1.57,0.21,1.44,-19.51,30.71,3.74,-1.70,5.08,-3.31,1410.00,2419.00,39.00,235.00,1357.00,2635.00,885.00,1345.00,,,,,,,,,,,,1,0,0,,-556,15528,4080,-332,427,-71
32.055,31.75,1.52,3.51,-1.88,26.77,-15.77,0.51,0.60,0.03,0.37,1589.00,2320.00,208.00,131.00,1271.00,2816.00,795.00,1488.00,,,,,,,,,,,,1,0,0,,-804,15864,4228,-277,736,-240
32.075,31.81,1.44,-0.79,1.04,-14.16,8.94,-0.06,2.59,-0.11,2.58,1467.00,2543.00,115.00,341.00,1153.00,2730.00,707.00,1410.00,,,,,,,,,,,,1,0,0,,-880,15356,4080,-706,1016,-167
32.116,31.86,1.56,-0.44,2.72,-48.05,72.03,3.95,-1.97,5.95,-4.03,1331.00,2398.00,7.00,240.00,1372.00,2633.00,906.00,1325.00,,,,,,,,,,,,1,0,0,,-1000,15272,4136,-1698,1312,39
32.177,31.92,1.54,3.44,-1.79,20.92,-13.17,1.08,0.04,0.61,-0.33,1583.00,2321.00,201.00,154.00,1296.00,2794.00,817.00,1482.00,,,,,,,,,,,,1,0,0,,-796,15596,4124,-1315,1656,-291
32.24,31.97,1.47,0.54,0.33,-1.76,0.62,0.15,1.62,0.44,1.36,1488.00,2459.00,144.00,261.00,1210.00,2778.00,748.00,1426.00,,,,,,,,,,,,1,0,0,,-820,15608,4280,-711,998,-238
32.302,32.03,1.49,-0.18,1.76,-14.92,23.16,1.86,-0.03,3.00,-1.47,1395.00,2435.00,54.00,240.00,1283.00,2715.00,832.00,1390.00,,,,,,,,,,,,1,0,0,,-852,15636,4364,-502,546,-145
32.323,32.08,1.52,1.14,0.41,-3.60,8.53,2.13,-0.48,2.51,-1.30,1465.00,2396.00,97.00,227.00,1308.00,2718.00,832.00,1411.00,,,,,,,,,,,,1,0,0,,-884,15444,4380,-122,100,-68
32.426,32.14,1.48,1.51,-0.21,11.02,-4.80,0.60,0.45,0.42,0.15,1505.00,2401.00,153.00,182.00,1279.00,2817.00,799.00,1474.00,,,,,,,,,,,,1,0,0,,-980,15344,4524,-162,190,-71
32.447,32.19,1.42,-0.50,0.88,-11.02,6.79,0.34,1.47,0.84,1.00,1472.00,2525.00,122.00,319.00,1216.00,2769.00,757.00,1417.00,,,,,,,,,,,,1,0,0,,-924,15236,4420,-314,305,-180
32.489,32.25,1.53,-0.10,1.77,inf,inf,3.65,-1.79,4.75,-3.24,1392.00,2426.00,0.00,231.00,1366.00,2651.00,887.00,1360.00,,,,,,,,,,,,1,0,0,,-1036,15208,4684,-455,198,-73
32.55,32.30,1.48,3.73,-1.90,27.53,-16.02,0.50,0.67,-0.21,0.47,1584.00,2301.00,208.00,128.00,1266.00,2811.00,794.00,1498.00,,,,,,,,,,,,1,0,0,,-808,15436,4696,-208,310,-65
32.592,32.36,1.41,-0.83,0.86,-12.49,6.69,0.16,2.48,0.17,2.57,1482.00,2559.00,126.00,339.00,1155.00,2714.00,704.00,1395.00,,,,,,,,,,,,1,0,0,,-792,15412,4644,-116,194,-96
32.653,32.41,1.54,-0.18,2.46,-53.09,79.94,3.98,-1.67,5.56,-3.51,1343.00,2389.00,5.00,237.00,1349.00,2608.00,887.00,1327.00,,,,,,,,,,,,1,0,0,,-832,15396,4508,-145,115,-165
32.716,32.47,1.55,2.72,-1.48,21.37,-11.59,1.63,-0.11,1.13,-0.41,1577.00,2368.00,183.00,145.00,1294.00,2745.00,813.00,1455.00,,,,,,,,,,,,1,0,0,,-1108,15292,4388,-179,204,-119
32.798,32.52,1.51,0.77,0.45,-2.53,2.63,0.72,1.51,0.66,1.51,1472.00,2429.00,131.00,255.00,1205.00,2725.00,739.00,1408.00,,,,,,,,,,,,1,0,0,,-948,15460,4580,-265,177,-106
32.819,32.58,1.52,0.15,1.63,-11.61,18.91,1.78,0.27,2.42,-0.64,1397.00,2412.00,64.00,236.00,1264.00,2701.00,804.00,1391.00,,,,,,,,,,,,1,0,0,,-940,15304,4516,-211,172,-230
32.88,32.63,1.57,1.17,0.61,-4.04,10.69,2.47,-0.34,2.82,-1.21,1449.00,2381.00,87.00,218.00,1290.00,2672.00,823.00,1390.00,,,,,,,,,,,,1,0,0,,-1136,15280,4588,-180,85,-167
32.941,32.69,1.52,2.20,-0.44,15.56,-7.15,0.62,0.65,0.04,0.53,1505.00,2351.00,160.00,162.00,1265.00,2800.00,788.00,1481.00,,,,,,,,,,,,1,0,0,,-1016,15404,4660,-183,88,-184
33.025,32.74,1.47,-0.14,0.95,-11.19,8.60,0.49,1.76,0.85,1.47,1457.00,2485.00,111.00,306.00,1194.00,2732.00,738.00,1399.00,,,,,,,,,,,,1,0,0,,-1000,15356,4656,-134,132,-153
33.044,32.80,1.58,0.15,1.89,-32.53,51.54,3.68,-1.72,5.10,-3.25,1377.00,2395.00,16.00,225.00,1360.00,2643.00,882.00,1342.00,,,,,,,,,,,,1,0,0,,-976,15304,4636,-266,183,-189
33.147,32.85,1.50,3.83,-1.93,31.74,-17.26,0.06,0.70,-0.64,0.64,1584.00,2294.00,206.00,112.00,1274.00,2858.00,793.00,1517.00,,,,,,,,,,,,1,0,0,,-892,15468,4592,-152,88,-205
33.168,32.91,1.43,-0.62,0.96,-12.52,6.41,0.01,2.66,-0.41,3.11,1469.00,2532.00,128.00,342.00,1147.00,2717.00,691.00,1407.00,,,,,,,,,,,,1,0,0,,-952,15136,4612,-281,-94,-192
33.209,32.96,1.55,-0.08,2.67,-59.97,91.68,3.77,-1.57,5.17,-3.02,1326.00,2367.00,3.00,227.00,1347.00,2623.00,870.00,1330.00,,,,,,,,,,,,1,0,0,,-908,15316,4884,-67,-41,-107
33.27,33.02,1.55,3.43,-1.10,16.26,-7.96,1.71,0.12,1.31,-0.25,1525.00,2279.00,165.00,161.00,1276.00,2720.00,803.00,1438.00,,,,,,,,,,,,1,0,0,,-808,15376,4520,-186,121,-261
33.311,33.07,1.53,1.39,0.63,0.72,1.67,1.07,1.47,0.89,1.41,1441.00,2358.00,130.00,230.00,1200.00,2690.00,740.00,1399.00,,,,,,,,,,,,1,0,0,,-952,15252,4552,-132,5,-250
33.393,33.13,1.54,1.26,1.28,-8.41,13.71,1.81,0.60,2.39,-0.19,1395.00,2330.00,80.00,239.00,1241.00,2674.00,785.00,1376.00,,,,,,,,,,,,1,0,0,,-1100,15256,4748,-186,-63,-367
33.433,33.18,1.62,1.71,1.02,-5.57,13.46,3.02,-0.61,3.32,-1.13,1403.00,2305.00,77.00,215.00,1296.00,2633.00,812.00,1360.00,,,,,,,,,,,,1,0,0,,-1236,15304,4920,-129,-2,-78
33.514,33.24,1.58,3.15,-0.48,20.23,-10.17,0.88,0.68,0.45,0.42,1482.00,2266.00,173.00,146.00,1257.00,2769.00,787.00,1462.00,,,,,,,,,,,,1,0,0,,-1228,15204,4764,155,79,-80
33.534,33.29,1.53,0.40,1.15,-10.58,8.56,0.67,1.91,0.84,1.93,1427.00,2419.00,110.00,299.00,1180.00,2701.00,720.00,1382.00,,,,,,,,,,,,1,0,0,,-840,15272,4552,58,158,120
33.596,33.35,1.67,0.78,2.13,-25.16,42.36,4.17,-1.82,5.71,-3.31,1344.00,2321.00,23.00,215.00,1355.00,2599.00,875.00,1312.00,,,,,,,,,,,,1,0,0,,-692,15464,4520,181,-127,-85
33.658,33.40,1.60,4.90,-1.71,42.91,-21.20,0.41,0.51,-0.38,0.53,1535.00,2186.00,208.00,80.00,1279.00,2833.00,794.00,1506.00,,,,,,,,,,,,1,0,0,,-720,15352,4548,270,-254,-215
33.721,33.46,1.53,-0.10,1.30,-11.40,6.77,0.13,2.28,0.24,2.39,1428.00,2457.00,123.00,324.00,1168.00,2732.00,710.00,1398.00,,,,,,,,,,,,1,0,0,,-884,15368,4416,39,-178,-258
33.763,33.51,1.61,0.66,2.11,-18.52,30.38,3.11,-1.05,4.35,-2.34,1348.00,2333.00,39.00,228.00,1325.00,2655.00,851.00,1349.00,,,,,,,,,,,,1,0,1,,-1020,15212,4768,22,-297,-171
33.805,33.57,1.62,3.56,-0.62,13.65,-4.57,1.91,0.14,1.95,-0.37,1483.00,2239.00,144.00,163.00,1270.00,2697.00,799.00,1407.00,,,,,,,,,,,,1,0,1,,-944,15400,4692,166,-77,109
33.887,33.62,1.61,1.69,0.82,0.02,3.85,1.32,1.14,1.16,1.19,1419.00,2319.00,117.00,223.00,1216.00,2687.00,745.00,1392.00,,,,,,,,,,,,1,0,1,,-820,15448,4696,172,55,108
33.949,33.68,1.62,1.82,1.13,-2.98,7.95,1.91,0.90,2.81,-0.09,1392.00,2288.00,99.00,225.00,1219.00,2643.00,775.00,1350.00,,,,,,,,,,,,1,0,1,,-772,15548,4428,-143,344,-133
33.99,33.73,1.71,2.25,1.17,-5.81,17.84,3.37,-0.76,4.18,-1.51,1378.00,2247.00,61.00,193.00,1298.00,2607.00,816.00,1328.00,,,,,,,,,,,,1,0,1,,-752,15340,4416,-441,454,-214
34.03,33.79,1.69,4.27,-0.99,23.88,-12.64,1.35,0.61,3.26,-0.32,1493.00,2198.00,185.00,135.00,1251.00,2723.00,778.00,1334.00,,,,,,,,,,,,1,0,1,,-788,15444,4556,-238,149,-291
34.092,33.84,1.66,1.00,1.41,-8.72,7.60,0.95,2.25,1.50,1.79,1392.00,2346.00,112.00,285.00,1153.00,2647.00,717.00,1352.00,,,,,,,,,,,,1,0,1,,-656,15248,4764,-134,-103,-164
34.152,33.90,1.82,1.46,2.57,-32.53,55.38,4.89,-1.90,6.88,-3.53,1296.00,2233.00,13.00,203.00,1343.00,2531.00,867.00,1260.00,,,,,,,,,,,,1,0,1,,-844,15308,4836,-91,45,-78
34.235,33.95,1.77,6.04,-2.10,44.04,-22.87,0.84,0.60,0.32,0.58,1535.00,2111.00,223.00,80.00,1263.00,2779.00,782.00,1463.00,,,,,,,,,,,,1,0,1,,-912,15420,4360,-301,401,-182
34.255,34.01,1.70,0.75,1.42,-11.89,8.67,0.36,2.46,0.20,3.28,1397.00,2368.00,112.00,314.00,1152.00,2694.00,677.00,1367.00,,,,,,,,,,,,1,0,1,,-1020,15252,4660,-555,428,-148
34.315,34.06,1.79,1.46,2.19,-14.02,25.42,3.56,-1.09,7.21,-2.99,1323.00,2256.00,47.00,218.00,1317.00,2611.00,837.00,1226.00,,,,,,,,,,,,1,0,1,,-844,15600,4848,-533,438,-189
34.357,34.12,1.80,4.39,-0.70,18.63,-6.24,1.97,0.00,2.31,-0.37,1467.00,2171.00,144.00,140.00,1278.00,2700.00,794.00,1387.00,,,,,,,,,,,,1,0,1,,-1100,15332,4736,-223,663,-356
34.419,34.17,1.80,2.23,0.77,2.57,1.63,1.86,0.85,1.78,1.23,1409.00,2273.00,126.00,214.00,1223.00,2651.00,735.00,1357.00,,,,,,,,,,,,1,0,1,,-892,15228,4704,-130,536,-78
34.48,34.23,1.82,2.36,0.96,-3.43,8.29,2.10,1.04,2.95,0.39,1391.00,2250.00,98.00,227.00,1205.00,2612.00,753.00,1325.00,,,,,,,,,,,,1,0,1,,-868,15220,4584,-67,122,-129
34.522,34.28,1.94,2.73,1.39,-8.37,22.01,4.29,-1.04,5.27,-1.94,1350.00,2192.00,51.00,191.00,1296.00,2533.00,819.00,1287.00,,,,,,,,,,,,1,0,1,,-880,15364,4508,-16,-45,-114
34.625,34.34,1.94,5.20,-1.15,27.72,-14.51,1.84,0.59,1.68,0.43,1481.00,2128.00,191.00,122.00,1241.00,2672.00,769.00,1392.00,,,,,,,,,,,,1,0,1,,-928,15312,4820,-238,-90,-184
34.645,34.39,1.92,1.53,1.52,-8.51,8.90,1.61,2.04,2.09,1.98,1370.00,2290.00,104.00,273.00,1152.00,2593.00,702.00,1314.00,,,,,,,,,,,,1,0,1,,-956,15380,4924,-235,137,-176
34.686,34.45,2.11,2.05,2.83,inf,inf,5.60,-1.93,7.78,-3.62,1264.00,2166.00,0.00,191.00,1328.00,2463.00,857.00,1219.00,,,,,,,,,,,,1,0,1,,-992,15472,4868,-161,177,-63
34.748,34.50,2.07,7.36,-2.49,54.23,-26.54,1.49,0.66,0.77,0.69,1531.00,2025.00,226.00,59.00,1244.00,2704.00,771.00,1433.00,,,,,,,,,,,,1,0,1,,-768,15364,4572,86,-56,-48
34.809,34.56,2.04,1.10,2.24,-8.22,7.93,1.43,2.09,1.54,2.67,1328.00,2285.00,109.00,277.00,1153.00,2609.00,683.00,1318.00,,,,,,,,,,,,1,0,1,,-1012,15420,4620,213,-476,-93
34.85,34.61,2.14,1.90,2.61,-15.41,28.86,4.08,-0.94,6.05,-2.43,1283.00,2192.00,40.00,210.00,1294.00,2547.00,829.00,1264.00,,,,,,,,,,,,1,0,1,,-852,15400,4652,231,-335,-105
34.933,34.67,2.16,5.02,-0.34,20.01,-5.51,2.49,0.03,2.69,-0.19,1422.00,2097.00,135.00,130.00,1264.00,2643.00,781.00,1360.00,,,,,,,,,,,,1,0,2,,-904,15348,4808,138,-280,5
34.996,34.72,2.16,3.03,0.72,5.06,2.00,2.19,0.28,2.96,-0.07,1392.00,2205.00,118.00,192.00,1254.00,2657.00,772.00,1341.00,,,,,,,,,,,,1,0,2,,-828,15428,4892,121,-24,56
35.017,34.78,2.16,2.63,0.99,-1.75,6.80,2.03,0.98,3.33,0.14,1382.00,2224.00,103.00,221.00,1211.00,2624.00,758.00,1314.00,,,,,,,,,,,,1,0,2,,-668,15424,4584,74,-136,-117
35.099,34.83,2.28,2.90,1.64,-8.33,22.73,4.66,-1.64,6.21,-2.66,1328.00,2163.00,49.00,187.00,1330.00,2537.00,837.00,1264.00,,,,,,,,,,,,1,0,2,,-792,15516,4628,-28,21,-171
35.139,34.89,2.27,5.63,-1.01,33.06,-15.72,2.00,0.96,1.90,0.70,1458.00,2084.00,185.00,102.00,1213.00,2629.00,755.00,1370.00,,,,,,,,,,,,1,0,2,,-812,15472,4568,35,7,-166
35.201,34.94,2.25,1.93,1.65,-8.55,9.09,1.82,2.23,2.44,2.23,1351.00,2247.00,103.00,272.00,1136.00,2559.00,688.00,1287.00,,,,,,,,,,,,1,0,2,,-784,15416,4688,-54,-97,-131
35.264,35.00,2.44,2.21,3.21,inf,inf,6.11,-2.52,8.80,-4.27,1235.00,2131.00,0.00,192.00,1359.00,2453.00,871.00,1191.00,,,,,,,,,,,,1,0,2,,-612,15496,4524,82,-69,-138
35.367,35.05,2.41,7.49,-2.22,53.87,-26.00,1.87,0.39,1.79,0.56,1505.00,2000.00,221.00,59.00,1254.00,2683.00,762.00,1381.00,,,,,,,,,,,,1,0,2,,-812,15456,4656,36,-69,-204
35.387,35.11,2.38,2.16,1.40,-5.00,5.54,1.73,1.68,2.61,1.77,1363.00,2241.00,117.00,260.00,1172.00,2606.00,703.00,1294.00,,,,,,,,,,,,1,0,2,,-676,15560,4500,-13,-13,-210
35.408,35.16,2.46,2.46,2.49,-13.77,26.98,4.11,-0.75,7.04,-2.47,1278.00,2151.00,43.00,207.00,1280.00,2531.00,816.00,1217.00,,,,,,,,,,,,1,0,2,,-796,15464,4708,-10,10,-246
35.468,35.22,2.49,5.38,-0.24,11.54,10.27,3.10,-0.32,3.66,-0.43,1405.00,2062.00,67.00,119.00,1274.00,2605.00,777.00,1317.00,,,,,,,,,,,,1,0,2,,-876,15468,4520,-68,64,-245
35.51,35.27,2.49,3.58,0.76,11.76,-1.32,2.47,0.29,3.36,0.30,1375.00,2155.00,125.00,161.00,1247.00,2627.00,751.00,1307.00,,,,,,,,,,,,1,0,2,,-876,15348,4560,-84,51,-170
35.572,35.33,2.48,2.81,1.46,-1.01,6.73,2.22,0.93,4.06,0.19,1343.00,2181.00,102.00,215.00,1210.00,2608.00,746.00,1275.00,,,,,,,,,,,,1,0,2,,-812,15480,4536,-51,119,-228
35.635,35.38,2.59,3.05,1.80,-12.62,28.87,4.68,-1.81,6.51,-2.69,1313.00,2141.00,38.00,188.00,1342.00,2547.00,834.00,1250.00,,,,,,,,,,,,1,0,2,,-836,15484,4392,-101,101,-104
35.718,35.44,2.55,5.84,-1.06,39.46,-18.37,1.88,0.44,2.27,0.67,1457.00,2070.00,190.00,85.00,1250.00,2678.00,751.00,1351.00,,,,,,,,,,,,1,0,2,,-756,15416,4732,-65,63,-99
35.739,35.49,2.52,2.10,1.51,-9.19,10.04,1.90,2.12,2.98,2.40,1357.00,2240.00,99.00,272.00,1141.00,2558.00,675.00,1254.00,,,,,,,,,,,,1,0,2,,-836,15408,4388,-21,175,-179
35.801,35.55,2.73,2.35,3.21,inf,inf,6.61,-2.80,9.83,-4.61,1232.00,2119.00,0.00,185.00,1367.00,2423.00,871.00,1154.00,,,,,,,,,,,,1,0,2,,-804,15324,4588,16,20,-64
35.843,35.60,2.71,7.56,-2.12,48.47,-23.33,2.36,0.26,2.29,0.39,1495.00,1989.00,211.00,68.00,1251.00,2640.00,762.00,1360.00,,,,,,,,,,,,1,0,2,,-644,15512,4464,-15,193,-156
35.905,35.66,2.68,2.58,1.24,-4.88,5.50,2.16,1.35,3.25,1.53,1365.00,2214.00,117.00,259.00,1184.00,2585.00,704.00,1270.00,,,,,,,,,,,,1,0,2,,-788,15240,4524,-34,49,-188
35.967,35.71,2.78,2.86,2.57,-13.06,28.54,4.57,-0.77,7.21,-1.86,1263.00,2112.00,39.00,193.00,1271.00,2487.00,787.00,1189.00,,,,,,,,,,,,1,0,2,,-832,15396,4540,8,123,-114
36.008,35.77,2.82,5.81,-0.20,17.92,-1.85,3.77,-0.43,5.03,-0.65,1391.00,2025.00,115.00,128.00,1266.00,2544.00,767.00,1255.00,,,,,,,,,,,,1,0,2,,-828,15280,4296,-38,139,-136
36.09,35.82,2.82,4.39,0.68,13.80,-3.15,2.76,0.19,4.30,0.03,1361.00,2092.00,133.00,156.00,1247.00,2604.00,749.00,1268.00,,,,,,,,,,,,1,0,2,,-668,15612,4428,-81,110,-138
36.13,35.88,2.81,3.24,1.42,-3.27,8.04,2.50,1.22,4.47,0.71,1335.00,2146.00,99.00,227.00,1185.00,2559.00,720.00,1237.00,,,,,,,,,,,,1,0,2,,-720,15388,4440,-106,154,-153
36.211,35.93,2.93,3.45,1.90,-12.45,28.81,5.19,-1.80,8.15,-3.09,1296.00,2101.00,38.00,187.00,1329.00,2495.00,827.00,1184.00,,,,,,,,,,,,1,0,2,,-736,15536,4276,-87,141,-99
36.231,35.99,2.87,6.46,-1.11,35.05,-16.79,1.77,0.49,2.59,0.76,1444.00,2022.00,189.00,97.00,1249.00,2686.00,743.00,1331.00,,,,,,,,,,,,1,0,2,,-708,15656,4508,-150,219,-212
36.292,36.04,2.81,2.10,1.75,-18.50,23.36,1.73,2.36,3.14,2.73,1339.00,2225.00,57.00,275.00,1130.00,2559.00,661.00,1235.00,,,,,,,,,,,,1,0,2,,-740,15688,4748,-222,65,-31
36.355,36.10,2.99,2.67,3.33,inf,inf,6.32,-2.43,10.79,-4.87,1217.00,2086.00,0.00,188.00,1347.00,2427.00,868.00,1119.00,,,,,,,,,,,,1,0,2,,-580,15568,4352,-168,293,-254
36.457,36.15,2.97,8.20,-2.05,43.61,-20.80,2.60,0.25,3.21,0.55,1472.00,1936.00,201.00,77.00,1247.00,2617.00,743.00,1306.00,,,,,,,,,,,,1,0,2,,-600,15424,4416,-171,112,-243
36.477,36.21,2.94,3.26,1.51,-0.43,3.69,2.42,1.42,3.53,1.86,1328.00,2139.00,119.00,228.00,1174.00,2554.00,688.00,1245.00,,,,,,,,,,,,1,0,2,,-796,15380,4352,-155,-164,-336
36.517,36.26,3.02,3.35,3.11,-15.06,32.87,4.58,-0.63,7.71,-1.93,1216.00,2042.00,32.00,186.00,1261.00,2477.00,783.00,1168.00,,,,,,,,,,,,1,0,2,,-1008,15296,4684,-66,-61,-283
36.599,36.32,3.08,5.78,0.36,13.63,0.08,4.17,-0.53,5.97,-0.77,1350.00,1997.00,112.00,144.00,1264.00,2511.00,759.00,1213.00,,,,,,,,,,,,1,0,2,,-780,15456,4380,-88,311,-8
36.619,36.37,3.08,5.06,0.77,18.41,-4.28,3.13,0.29,4.75,-0.07,1338.00,2032.00,130.00,134.00,1232.00,2559.00,747.00,1249.00,,,,,,,,,,,,1,0,2,,-716,15560,4336,13,-165,-330
36.681,36.43,3.05,3.48,1.89,-3.85,9.39,2.55,1.38,5.28,0.44,1296.00,2099.00,93.00,224.00,1174.00,2544.00,720.00,1207.00,,,,,,,,,,,,1,0,2,,-864,15280,4520,148,-234,-339
36.722,36.48,3.17,3.98,2.34,-14.85,34.61,5.43,-1.86,8.62,-2.98,1253.00,2033.00,29.00,176.00,1327.00,2475.00,815.00,1159.00,,,,,,,,,,,,1,0,2,,-980,15236,4260,-141,-32,-304
36.827,36.54,3.12,7.28,-1.06,43.21,-19.24,2.15,0.40,2.94,0.74,1419.00,1955.00,186.00,75.00,1247.00,2653.00,739.00,1313.00,,,,,,,,,,,,1,0,2,,-744,15372,4616,-168,61,-128
36.847,36.59,3.06,2.47,1.85,-8.56,8.56,1.82,2.23,3.60,2.66,1323.00,2187.00,106.00,276.00,1136.00,2559.00,658.00,1215.00,,,,,,,,,,,,1,0,2,,-968,15556,4492,-147,358,8
36.888,36.65,3.21,2.59,3.75,inf,inf,6.15,-2.54,10.39,-4.48,1191.00,2069.00,0.00,193.00,1359.00,2450.00,856.00,1125.00,,,,,,,,,,,,1,0,2,,-676,15380,4484,-180,220,-165
36.95,36.70,3.20,7.62,-1.32,37.59,-17.74,2.93,-0.06,4.04,-0.07,1430.00,1942.00,190.00,90.00,1260.00,2604.00,757.00,1285.00,,,,,,,,,,,,1,0,3,,-772,15508,4568,-31,179,-5
36.991,36.76,3.16,3.80,1.21,2.49,2.10,2.49,1.49,4.26,1.73,1337.00,2111.00,123.00,212.00,1168.00,2542.00,684.00,1214.00,,,,,,,,,,,,1,0,3,,-652,15472,4208,-52,159,-202
37.053,36.81,3.20,3.48,2.87,-16.61,33.97,3.89,-0.16,8.14,-2.05,1229.00,2045.00,31.00,192.00,1245.00,2514.00,782.00,1152.00,,,,,,,,,,,,1,0,3,,-704,15376,4548,-171,25,-212
37.114,36.87,3.27,4.95,1.26,4.90,8.11,4.62,-0.70,6.58,-0.95,1306.00,2015.00,85.00,164.00,1265.00,2478.00,758.00,1190.00,,,,,,,,,,,,1,0,3,,-816,15608,4344,-62,105,-82
37.176,36.92,3.26,5.55,0.76,18.50,-3.29,3.15,0.31,5.54,0.27,1327.00,1994.00,123.00,130.00,1230.00,2556.00,723.00,1200.00,,,,,,,,,,,,1,0,3,,-740,15404,4584,-114,223,-90
37.239,36.98,3.24,3.00,2.19,-6.56,8.42,2.84,1.37,4.96,1.06,1286.00,2122.00,103.00,256.00,1168.00,2515.00,700.00,1202.00,,,,,,,,,,,,1,0,3,,-636,15428,4188,-79,213,-129
37.28,37.03,3.37,4.05,2.62,-24.30,48.77,5.82,-1.93,9.31,-3.25,1233.00,2013.00,16.00,175.00,1323.00,2442.00,817.00,1136.00,,,,,,,,,,,,1,0,3,,-740,15488,4508,-91,-27,-199
37.322,37.09,3.32,7.76,-1.12,48.33,-21.45,2.34,0.45,3.29,0.77,1411.00,1921.00,191.00,65.00,1239.00,2629.00,733.00,1294.00,,,,,,,,,,,,1,0,3,,-876,15404,4400,-68,75,-270
37.385,37.14,3.23,2.05,2.39,-13.11,11.92,1.60,2.55,3.36,3.08,1295.00,2192.00,96.00,302.00,1121.00,2559.00,646.00,1213.00,,,,,,,,,,,,1,0,3,,-784,15456,4396,-120,-25,-163
37.447,37.20,3.37,2.68,3.80,inf,inf,6.02,-2.37,10.28,-4.29,1186.00,2059.00,0.00,189.00,1350.00,2452.00,849.00,1124.00,,,,,,,,,,,,1,0,3,,-876,15368,4560,-178,68,-185
37.549,37.25,3.35,7.03,-1.13,28.79,-13.57,2.98,-0.24,4.27,-0.13,1431.00,1978.00,178.00,114.00,1271.00,2611.00,756.00,1275.00,,,,,,,,,,,,1,0,3,,-756,15420,4492,-157,3,-215
37.57,37.31,3.32,3.87,1.27,7.90,-6.23,2.60,1.45,4.70,1.63,1331.00,2102.00,175.00,214.00,1168.00,2533.00,682.00,1196.00,,,,,,,,,,,,1,0,3,,-712,15540,4664,-73,85,-130
37.611,37.36,3.37,3.66,2.84,-12.89,28.48,4.31,-0.27,7.87,-1.65,1227.00,2032.00,39.00,192.00,1243.00,2480.00,769.00,1152.00,,,,,,,,,,,,1,0,3,,-852,15432,4548,-65,176,-170
37.671,37.42,3.43,5.10,1.35,-1.64,15.55,4.57,-0.58,7.19,-1.16,1296.00,1998.00,64.00,174.00,1258.00,2475.00,758.00,1168.00,,,,,,,,,,,,1,0,3,,-760,15416,4640,-94,131,-111
37.712,37.47,3.40,5.87,0.64,24.50,-7.56,2.99,0.50,4.88,0.29,1328.00,1975.00,139.00,115.00,1221.00,2559.00,731.00,1231.00,,,,,,,,,,,,1,0,3,,-812,15456,4436,-78,204,-135
37.773,37.53,3.37,3.37,2.11,-8.22,10.86,2.80,1.53,5.57,0.94,1283.00,2096.00,93.00,256.00,1159.00,2508.00,697.00,1177.00,,,,,,,,,,,,1,0,3,,-848,15400,4512,-51,172,-130
37.815,37.58,3.51,4.06,3.10,-24.14,54.03,6.03,-1.83,9.95,-3.47,1201.00,1986.00,12.00,151.00,1311.00,2416.00,817.00,1114.00,,,,,,,,,,,,1,0,3,,-724,15592,4356,-33,111,-102
37.92,37.64,3.45,8.17,-1.14,47.78,-20.07,2.43,0.48,4.03,0.05,1402.00,1891.00,179.00,64.00,1235.00,2618.00,752.00,1281.00,,,,,,,,,,,,1,0,3,,-872,15364,4340,-16,182,-117
37.94,37.69,3.38,2.38,2.45,-13.37,12.80,2.00,2.46,3.72,3.46,1283.00,2160.00,92.00,298.00,1118.00,2525.00,629.00,1184.00,,,,,,,,,,,,1,0,3,,-728,15592,4264,-85,134,-77
37.98,37.75,3.51,3.04,4.23,inf,inf,5.94,-2.00,10.55,-3.99,1151.00,2006.00,0.00,192.00,1325.00,2435.00,831.00,1103.00,,,,,,,,,,,,1,0,3,,-668,15404,4324,-124,173,-164
38.042,37.80,3.50,7.25,-0.92,28.82,-12.95,3.33,-0.35,5.18,-0.48,1409.00,1950.00,172.00,112.00,1271.00,2583.00,758.00,1242.00,,,,,,,,,,,,1,0,3,,-692,15372,4484,-136,82,-138
38.104,37.86,3.45,3.75,1.60,0.23,5.60,2.49,1.32,4.62,1.66,1310.00,2093.00,106.00,211.00,1179.00,2554.00,682.00,1199.00,,,,,,,,,,,,1,0,3,,-704,15544,4416,-141,54,-260
38.166,37.91,3.47,3.67,2.84,-9.52,23.52,3.94,0.02,7.25,-0.96,1227.00,2031.00,48.00,192.00,1232.00,2497.00,749.00,1159.00,,,,,,,,,,,,1,0,3,,-640,15456,4452,-38,98,-126
38.207,37.97,3.55,4.95,1.63,0.30,14.90,4.98,-0.79,11.46,-2.45,1280.00,1995.00,64.00,164.00,1263.00,2449.00,752.00,1021.00,,,,,,,,,,,,1,0,3,,-712,15404,4348,-81,101,-151
38.29,38.02,3.52,6.43,0.42,24.95,-7.58,3.00,0.48,4.39,0.89,1330.00,1943.00,138.00,113.00,1222.00,2559.00,714.00,1235.00,,,,,,,,,,,,1,0,3,,-696,15528,4484,-124,105,-139
38.31,38.08,3.49,3.61,2.08,-8.65,12.24,2.83,1.90,5.76,1.49,1280.00,2078.00,87.00,251.00,1135.00,2480.00,674.00,1151.00,,,,,,,,,,,,1,0,3,,-756,15416,4432,-124,186,-125
38.372,38.13,3.64,4.18,3.23,inf,inf,6.50,-2.05,10.54,-3.42,1190.00,1970.00,0.00,169.00,1315.00,2385.00,806.00,1087.00,,,,,,,,,,,,1,0,3,,-824,15604,4428,-100,73,-153
38.433,38.19,3.57,8.46,-1.10,57.24,-24.05,2.39,0.60,3.44,1.11,1392.00,1868.00,187.00,49.00,1228.00,2614.00,718.00,1275.00,,,,,,,,,,,,1,0,3,,-768,15408,4476,-63,56,-197
38.514,38.24,3.50,2.71,2.31,-12.57,11.74,1.99,2.65,4.03,3.50,1285.00,2140.00,96.00,297.00,1107.00,2513.00,624.00,1168.00,,,,,,,,,,,,1,0,3,,-668,15448,4524,-68,86,-193
38.536,38.30,3.60,3.43,3.83,inf,inf,5.64,-1.62,9.93,-3.44,1168.00,1997.00,0.00,189.00,1305.00,2439.00,816.00,1114.00,,,,,,,,,,,,1,0,3,,-748,15376,4416,-133,103,-235
38.597,38.35,3.60,7.24,-0.48,27.93,-10.97,3.49,-0.10,5.39,-0.41,1376.00,1928.00,157.00,110.00,1250.00,2550.00,752.00,1229.00,,,,,,,,,,,,1,0,3,,-892,15448,4492,-168,119,-77
38.658,38.41,3.54,4.14,1.60,5.08,2.96,2.54,1.30,4.74,1.70,1301.00,2061.00,112.00,187.00,1179.00,2550.00,679.00,1192.00,,,,,,,,,,,,1,0,3,,-660,15412,4688,-184,221,-203
38.72,38.46,3.54,3.77,2.40,-28.51,50.19,3.44,0.43,6.30,0.09,1254.00,2047.00,16.00,199.00,1216.00,2519.00,720.00,1170.00,,,,,,,,,,,,1,0,3,,-736,15636,4468,-196,74,-210
38.761,38.52,3.62,4.93,1.56,-0.88,15.29,5.20,-0.87,8.07,-1.43,1285.00,2000.00,64.00,170.00,1263.00,2432.00,757.00,1136.00,,,,,,,,,,,,1,0,3,,-732,15388,4692,-64,139,-105
38.823,38.57,3.59,6.36,0.22,26.90,-8.77,2.92,0.60,4.61,0.66,1346.00,1959.00,142.00,108.00,1216.00,2559.00,720.00,1232.00,,,,,,,,,,,,1,0,3,,-772,15380,4580,-68,165,-163
38.883,38.63,3.56,3.45,2.04,-7.88,10.95,3.01,1.99,5.75,2.00,1286.00,2093.00,92.00,252.00,1126.00,2457.00,656.00,1136.00,,,,,,,,,,,,1,0,3,,-780,15456,4308,-102,113,-171
38.925,38.68,3.75,4.15,3.10,-41.83,76.15,7.38,-2.22,11.44,-3.74,1199.00,1979.00,5.00,168.00,1306.00,2314.00,807.00,1058.00,,,,,,,,,,,,1,0,3,,-736,15504,4320,-146,105,-77
39.046,38.74,3.68,8.74,-1.43,56.18,-23.99,2.47,0.68,3.59,1.03,1410.00,1864.00,190.00,51.00,1221.00,2600.00,719.00,1270.00,,,,,,,,,,,,1,0,3,,-828,15464,4516,-149,129,-189
39.067,38.79,3.61,2.98,2.07,-9.57,8.73,2.15,2.69,4.69,3.07,1295.00,2131.00,107.00,286.00,1101.00,2494.00,631.00,1151.00,,,,,,,,,,,,1,0,3,,-764,15560,4424,-104,39,-141
39.108,38.85,3.72,3.38,3.84,inf,inf,5.81,-1.53,10.15,-3.22,1168.00,2000.00,0.00,176.00,1295.00,2417.00,803.00,1098.00,,,,,,,,,,,,1,0,3,,-848,15484,4300,-102,129,-263
39.17,38.90,3.72,6.53,-0.20,27.43,-9.20,3.79,-0.10,5.91,-0.43,1373.00,1968.00,144.00,107.00,1243.00,2519.00,746.00,1205.00,,,,,,,,,,,,1,0,3,,-616,15372,4340,-90,57,-210
39.21,38.96,3.68,4.37,1.39,2.87,5.43,2.80,1.29,4.99,1.67,1310.00,2054.00,102.00,191.00,1174.00,2524.00,677.00,1181.00,,,,,,,,,,,,1,0,3,,-792,15436,4500,-186,33,-149
39.272,39.01,3.66,4.39,1.86,-2.70,11.56,3.42,0.57,6.58,-0.11,1277.00,2027.00,81.00,202.00,1207.00,2511.00,724.00,1163.00,,,,,,,,,,,,1,0,3,,-796,15520,4476,-149,119,-209
39.336,39.07,3.73,4.79,1.66,-3.89,18.45,5.03,-1.01,8.14,-1.70,1281.00,2005.00,57.00,176.00,1277.00,2458.00,767.00,1141.00,,,,,,,,,,,,1,0,3,,-740,15472,4316,-132,57,-159
39.397,39.12,3.70,6.79,-0.58,36.51,-14.88,3.00,0.50,4.61,0.66,1395.00,1968.00,166.00,87.00,1221.00,2558.00,720.00,1232.00,,,,,,,,,,,,1,0,3,,-748,15492,4600,-89,161,-107
39.418,39.18,3.66,3.46,1.93,-8.34,10.32,2.89,2.31,5.61,2.04,1294.00,2099.00,96.00,261.00,1109.00,2447.00,656.00,1141.00,,,,,,,,,,,,1,0,3,,-748,15352,4544,29,109,-177
39.48,39.23,3.82,4.10,3.10,inf,inf,6.86,-2.03,11.74,-3.94,1200.00,1983.00,0.00,163.00,1305.00,2350.00,811.00,1051.00,,,,,,,,,,,,1,0,3,,-820,15436,4348,-76,166,-196
39.522,39.29,3.77,9.20,-1.77,54.01,-24.93,2.90,0.64,3.79,0.94,1424.00,1847.00,208.00,57.00,1214.00,2559.00,720.00,1263.00,,,,,,,,,,,,1,0,3,,-792,15416,4408,-48,132,-84
39.585,39.34,3.71,2.88,2.22,-8.98,9.60,2.61,2.46,4.74,3.26,1287.00,2131.00,101.00,273.00,1106.00,2465.00,624.00,1143.00,,,,,,,,,,,,1,0,3,,-736,15400,4344,-151,120,-166
39.646,39.40,3.82,3.83,3.36,-31.66,58.17,5.83,-1.32,10.29,-3.27,1189.00,1990.00,11.00,182.00,1280.00,2402.00,803.00,1093.00,,,,,,,,,,,,1,0,3,,-600,15608,4456,-84,133,-95
39.748,39.45,3.83,7.49,-0.40,26.02,-7.12,4.13,-0.03,6.19,-0.35,1364.00,1905.00,132.00,107.00,1231.00,2481.00,739.00,1189.00,,,,,,,,,,,,1,0,3,,-732,15416,4588,-51,63,-188
39.768,39.51,3.80,4.56,1.46,4.24,3.41,3.25,1.01,5.26,1.52,1301.00,2035.00,111.00,191.00,1182.00,2498.00,679.00,1173.00,,,,,,,,,,,,1,0,3,,-808,15440,4492,-64,119,-185
