Time_Host,Time_Arduino,easingdata,CH1_Oxy,CH1_Deoxy,CH2_Oxy,CH2_Deoxy,CH3_Oxy,CH3_Deoxy,CH4_Oxy,CH4_Deoxy,CH1_PD730,CH1_PD850,CH2_PD730,CH2_PD850,CH3_PD730,CH3_PD850,CH4_PD730,CH4_PD850,Answers,airplane_playstate,trail_times,frameRate,Airplane X,Airplane Y,Correct,Wrong,Slow,AnswerRate,CorrectRate,VFTstates,VFTchoose,VFTCount,Culfstates,ax,ay,az,gx,gy,gz
1.197,0.04,0.00,0.00,0.00,0.00,0.00,0.00,0.00,0.00,0.00,637.00,1516.00,421.00,1074.00,1776.00,3226.00,1008.00,1633.00,,,,,,,,,,,,0,0,0,,-120,14988,5972,-45,108,-110
1.217,0.10,0.00,0.00,0.00,0.00,0.00,0.00,0.00,0.00,0.00,823.00,1459.00,928.00,825.00,1619.00,3738.00,950.00,1763.00,,,,,,,,,,,,0,0,0,,0,14948,5688,-75,140,-99
1.238,0.15,0.00,0.00,0.00,0.00,0.00,0.00,0.00,0.00,0.00,751.00,1588.00,821.00,1098.00,1371.00,3761.00,866.00,1747.00,,,,,,,,,,,,0,0,0,,-24,14996,5804,-182,139,-141
1.259,0.21,0.00,0.00,0.00,0.00,0.00,0.00,0.00,0.00,0.00,668.00,1555.00,626.00,1165.00,1441.00,3566.00,941.00,1705.00,,,,,,,,,,,,0,0,0,,-64,15024,5900,-149,145,-96
1.28,0.26,0.00,0.00,0.00,0.00,0.00,0.00,0.00,0.00,0.00,749.00,1520.00,609.00,1035.00,1735.00,3356.00,973.00,1737.00,,,,,,,,,,,,0,0,0,,-24,14852,5932,-142,125,-178
1.301,0.32,0.00,0.00,0.00,0.00,0.00,0.00,0.00,0.00,0.00,763.00,1535.00,979.00,822.00,1533.00,4095.00,890.00,1813.00,,,,,,,,,,,,0,0,0,,-92,15152,6020,-152,107,-204
1.322,1.06,0.00,0.00,0.00,0.00,0.00,0.00,0.00,0.00,0.00,640.00,1535.00,466.00,1104.00,1733.00,3359.00,989.00,1680.00,,,,,,,,,,,,0,0,0,,-8,14980,6028,-100,94,-63
1.343,1.12,0.00,0.00,0.00,0.00,0.00,0.00,0.00,0.00,0.00,799.00,1475.00,865.00,860.00,1616.00,3758.00,947.00,1767.00,,,,,,,,,,,,0,0,0,,96,14920,5880,-90,208,-77
1.364,1.17,0.00,0.00,0.00,0.00,0.00,0.00,0.00,0.00,0.00,747.00,1583.00,844.00,1052.00,1419.00,3886.00,870.00,1751.00,,,,,,,,,,,,0,0,0,,-12,14856,5804,-188,70,-208
1.467,1.23,0.00,0.00,0.00,0.00,0.00,0.00,0.00,0.00,0.00,694.00,1525.00,693.00,1178.00,1386.00,3567.00,921.00,1680.00,,,,,,,,,,,,0,0,0,,48,15024,5696,-246,-27,-212
1.488,1.28,0.27,1.22,-0.53,-2.93,5.37,5.36,-4.11,1.10,-1.00,732.00,1478.00,572.00,993.00,1771.00,3280.00,968.00,1699.00,,,,,,,,,,,,0,0,0,,-20,14984,5944,-33,116,-260
1.529,1.34,0.04,2.30,-2.38,15.94,-12.11,-4.35,1.94,-1.82,1.74,793.00,1488.00,1045.00,752.00,1523.00,4095.00,880.00,1772.00,,,,,,,,,,,,0,0,0,,-16,14904,5648,-113,122,-266
1.591,1.39,-0.14,-0.82,0.61,-9.04,3.07,-3.55,6.07,0.54,0.80,714.00,1554.00,724.00,1345.00,1200.00,3551.00,887.00,1655.00,,,,,,,,,,,,0,0,0,,-76,14832,5988,-55,-44,-207
1.651,1.45,0.28,-0.10,1.54,-9.75,14.69,8.24,-6.10,2.86,-2.23,670.00,1473.00,391.00,1013.00,1872.00,3087.00,1002.00,1638.00,,,,,,,,,,,,0,0,0,,92,15044,5940,24,72,-236
1.733,1.50,0.07,5.65,-4.70,22.11,-15.48,-3.82,1.15,-1.75,1.24,846.00,1387.00,1121.00,645.00,1574.00,4095.00,903.00,1791.00,,,,,,,,,,,,0,0,0,,-20,15024,5716,-83,296,-124
1.754,1.56,-0.11,-1.67,0.77,-6.09,0.66,-3.65,5.10,-0.85,1.99,719.00,1600.00,782.00,1277.00,1267.00,3659.00,853.00,1694.00,,,,,,,,,,,,0,0,0,,-16,14936,5672,-166,253,-118
1.816,1.61,0.08,-1.42,2.32,-7.63,8.36,3.70,-2.15,2.06,-1.17,658.00,1520.00,530.00,1104.00,1641.00,3322.00,960.00,1643.00,,,,,,,,,,,,0,0,0,,-48,14848,5736,-117,75,-210
1.858,1.67,0.14,3.34,-2.30,7.75,-4.28,1.36,-1.15,0.16,-0.18,775.00,1425.00,794.00,843.00,1623.00,3549.00,942.00,1725.00,,,,,,,,,,,,0,0,0,,-60,14912,5788,-22,50,-174
1.922,1.72,0.00,0.14,-0.35,5.58,-4.89,-2.65,1.67,-0.91,1.23,739.00,1535.00,854.00,934.00,1498.00,3855.00,890.00,1733.00,,,,,,,,,,,,0,0,0,,-68,14972,5788,-78,146,-152
1.963,1.78,-0.10,-0.35,0.74,-5.69,2.05,-2.00,3.47,0.72,0.25,703.00,1520.00,720.00,1211.00,1343.00,3581.00,911.00,1668.00,,,,,,,,,,,,0,0,0,,-48,14952,5792,-125,162,-165
2.025,1.83,0.22,0.44,0.29,-5.28,8.31,6.21,-5.15,1.78,-1.70,710.00,1491.00,509.00,1007.00,1845.00,3261.00,993.00,1685.00,,,,,,,,,,,,0,0,0,,44,14944,5948,-122,93,-152
2.086,1.89,-0.01,2.67,-2.59,17.72,-13.06,-4.28,1.83,-1.90,1.77,797.00,1475.00,1065.00,719.00,1530.00,4095.00,880.00,1776.00,,,,,,,,,,,,0,0,0,,-76,14880,5840,-41,113,-176
2.168,1.94,-0.26,-1.78,0.93,-9.65,2.82,-5.06,6.89,-0.11,1.23,714.00,1600.00,742.00,1387.00,1180.00,3687.00,877.00,1679.00,,,,,,,,,,,,0,0,0,,-92,15160,5720,-49,156,-52
2.189,2.00,0.16,-1.33,2.60,-11.59,16.43,8.17,-6.33,3.44,-3.02,647.00,1503.00,368.00,1040.00,1897.00,3114.00,1035.00,1635.00,,,,,,,,,,,,0,0,0,,-52,15004,5816,-35,222,5
2.249,2.05,0.04,5.51,-4.63,19.71,-13.59,-2.25,0.72,-1.59,1.01,845.00,1392.00,1057.00,674.00,1566.00,3893.00,912.00,1791.00,,,,,,,,,,,,0,0,0,,52,14980,5764,-120,119,-190
2.311,2.11,-0.08,-0.77,-0.04,-3.30,-0.42,-2.38,4.00,-0.98,1.46,739.00,1578.00,788.00,1177.00,1314.00,3583.00,880.00,1727.00,,,,,,,,,,,,0,0,0,,-4,15032,5788,7,-2,-73
2.372,2.16,0.10,-0.93,2.21,-6.03,7.64,3.44,-0.61,1.76,-0.95,656.00,1495.00,535.00,1056.00,1517.00,3221.00,954.00,1653.00,,,,,,,,,,,,0,0,0,,84,15024,5948,-145,51,-164
2.413,2.22,0.29,3.20,-2.04,4.93,-1.09,3.94,-1.94,0.41,-0.42,766.00,1423.00,703.00,865.00,1616.00,3273.00,950.00,1719.00,,,,,,,,,,,,0,0,0,,104,14912,5904,-270,138,-216
2.475,2.27,0.20,1.11,-0.90,9.39,-6.44,-1.50,1.70,-1.25,1.22,748.00,1499.00,866.00,837.00,1465.00,3682.00,896.00,1757.00,,,,,,,,,,,,0,0,0,,-8,14892,5848,-167,202,-40
2.535,2.33,0.15,-0.24,0.57,-6.82,2.97,-0.83,4.66,0.45,0.34,708.00,1520.00,699.00,1235.00,1233.00,3312.00,911.00,1682.00,,,,,,,,,,,,0,0,0,,28,15032,5892,-58,237,-21
2.598,2.38,0.55,0.77,0.39,-5.48,10.74,8.29,-5.28,1.72,-1.73,702.00,1468.00,448.00,951.00,1789.00,3014.00,996.00,1691.00,,,,,,,,,,,,0,0,0,,84,15000,5784,-17,206,-128
2.639,2.44,0.35,3.60,-3.00,21.96,-14.38,-3.53,2.31,-3.61,2.03,801.00,1437.00,1059.00,630.00,1471.00,3925.00,895.00,1887.00,,,,,,,,,,,,0,0,0,,124,14872,5696,-39,95,-214
2.702,2.49,0.14,-1.42,0.66,-9.10,2.91,-3.88,7.67,-1.10,2.03,720.00,1589.00,731.00,1354.00,1107.00,3446.00,855.00,1709.00,,,,,,,,,,,,0,0,0,,84,14948,5756,-84,45,-199
2.764,2.55,0.52,-1.93,3.38,-11.57,16.32,7.86,-5.06,2.82,-2.51,627.00,1507.00,370.00,1042.00,1781.00,3047.00,1018.00,1653.00,,,,,,,,,,,,0,0,0,,-28,14984,5784,-213,106,-231
2.807,2.60,0.48,4.34,-3.90,14.58,-10.14,-0.45,0.08,-0.84,0.21,830.00,1430.00,963.00,753.00,1569.00,3689.00,939.00,1776.00,,,,,,,,,,,,0,0,0,,68,15036,5864,-99,199,-172
2.847,2.66,0.32,-0.72,-0.26,-0.94,-1.52,-2.63,4.05,-1.56,1.89,747.00,1584.00,801.00,1104.00,1317.00,3615.00,869.00,1747.00,,,,,,,,,,,,0,0,0,,-24,14808,5792,-48,228,-129
2.908,2.71,0.37,-1.75,2.43,-7.02,6.49,1.33,0.98,1.16,-0.56,658.00,1535.00,580.00,1133.00,1447.00,3356.00,944.00,1675.00,,,,,,,,,,,,0,0,0,,24,15104,5584,-42,84,-176
2.968,2.77,0.60,1.38,-0.84,-0.97,3.16,4.97,-2.64,0.56,-0.49,742.00,1481.00,622.00,975.00,1647.00,3202.00,951.00,1712.00,,,,,,,,,,,,0,0,0,,116,15020,5828,-146,22,-169
3.03,2.82,0.43,1.48,-1.12,12.47,-8.63,-2.74,2.22,-1.73,1.71,752.00,1486.00,922.00,786.00,1457.00,3813.00,880.00,1767.00,,,,,,,,,,,,0,0,0,,0,14924,5840,-101,85,-267
3.092,2.88,0.29,-1.26,0.99,-8.71,3.48,-2.48,5.85,0.52,0.56,705.00,1565.00,704.00,1313.00,1191.00,3424.00,899.00,1667.00,,,,,,,,,,,,0,0,0,,52,14984,5900,-86,209,-248
3.153,2.93,0.73,0.21,1.11,-8.22,13.89,9.04,-5.70,2.30,-1.86,682.00,1472.00,397.00,974.00,1805.00,2959.00,992.00,1658.00,,,,,,,,,,,,0,0,0,,-124,14932,5848,-149,283,-222
3.194,2.99,0.51,4.22,-3.21,24.00,-15.33,-3.67,2.23,-2.01,1.43,801.00,1410.00,1074.00,596.00,1481.00,3955.00,898.00,1800.00,,,,,,,,,,,,0,0,0,,-16,15032,5708,-220,144,-158
3.278,3.04,0.31,-1.82,0.69,-8.43,2.31,-3.32,6.91,-1.28,2.46,724.00,1613.00,746.00,1340.00,1142.00,3440.00,838.00,1701.00,,,,,,,,,,,,0,0,0,,-144,14976,6084,-194,-34,-143
3.299,3.10,0.59,-1.73,3.29,-8.92,12.27,5.76,-3.03,2.05,-1.60,628.00,1499.00,439.00,1046.00,1658.00,3136.00,983.00,1663.00,,,,,,,,,,,,0,0,0,,-72,15112,6060,-50,80,-220
3.361,3.15,0.63,3.53,-2.84,10.86,-6.58,1.44,-0.35,-0.29,0.03,795.00,1435.00,850.00,793.00,1552.00,3463.00,939.00,1746.00,,,,,,,,,,,,0,0,0,,-52,15044,5892,34,256,-241
3.403,3.21,0.51,0.02,-0.63,2.58,-2.91,-1.85,3.38,-1.67,2.27,752.00,1554.00,810.00,997.00,1346.00,3568.00,853.00,1737.00,,,,,,,,,,,,0,0,0,,-8,14852,5640,-37,226,-206
3.464,3.26,0.47,-0.47,0.99,-4.88,3.13,-0.23,3.07,0.55,0.18,695.00,1517.00,669.00,1139.00,1329.00,3375.00,917.00,1682.00,,,,,,,,,,,,0,0,0,,-40,15072,5724,-92,69,-143
3.506,3.32,0.76,1.00,-0.51,-2.75,6.13,6.25,-3.84,0.89,-0.78,734.00,1490.00,547.00,966.00,1717.00,3143.00,960.00,1703.00,,,,,,,,,,,,0,0,0,,-8,14980,5720,-189,-20,-188
3.568,3.37,0.53,2.10,-2.40,16.00,-12.04,-3.75,2.38,-2.12,1.88,797.00,1501.00,1040.00,749.00,1471.00,3952.00,878.00,1786.00,,,,,,,,,,,,0,0,0,,-32,15040,5896,-73,103,-178
3.67,3.43,0.32,-1.52,0.69,-9.49,3.33,-3.72,7.05,-0.13,1.22,720.00,1594.00,720.00,1360.00,1142.00,3483.00,878.00,1681.00,,,,,,,,,,,,0,0,0,,-60,14832,5988,-45,275,-227
3.691,3.48,0.72,-1.26,2.16,-9.52,14.94,8.40,-5.85,2.64,-2.14,662.00,1517.00,384.00,997.00,1841.00,3047.00,1001.00,1648.00,,,,,,,,,,,,0,0,0,,-72,15044,5948,-112,294,-174
3.732,3.54,0.52,5.21,-4.66,22.10,-15.53,-3.35,1.65,-1.53,0.66,851.00,1410.00,1124.00,646.00,1519.00,3966.00,928.00,1803.00,,,,,,,,,,,,0,0,0,,-24,15012,5616,-80,124,-118
3.794,3.59,0.35,-1.39,0.27,-5.47,0.45,-2.80,5.27,-1.31,2.26,735.00,1604.00,782.00,1253.00,1236.00,3521.00,848.00,1713.00,,,,,,,,,,,,0,0,0,,0,14912,5732,-66,-30,-207
3.857,3.65,0.56,-0.74,1.79,-6.43,7.68,4.46,-1.55,2.04,-0.91,669.00,1501.00,538.00,1072.00,1567.00,3173.00,947.00,1633.00,,,,,,,,,,,,0,0,0,,-40,14916,5980,-66,-37,-179
3.898,3.70,0.69,3.81,-2.60,7.93,-3.97,3.10,-1.30,0.23,-0.07,781.00,1410.00,778.00,830.00,1585.00,3326.00,935.00,1715.00,,,,,,,,,,,,0,0,0,,-28,15056,5984,-145,215,-153
3.961,3.76,0.59,1.09,-0.91,7.55,-5.71,-1.23,1.84,-0.83,1.41,749.00,1501.00,861.00,883.00,1447.00,3629.00,880.00,1719.00,,,,,,,,,,,,0,0,0,,-40,14932,5912,-131,364,-125
4.003,3.81,0.52,0.14,0.37,-5.88,2.63,-0.88,4.20,0.76,0.48,711.00,1506.00,700.00,1201.00,1265.00,3359.00,899.00,1655.00,,,,,,,,,,,,0,0,0,,-76,15052,5772,-94,166,-112
4.065,3.87,0.89,0.70,0.41,-5.11,9.41,7.94,-5.22,1.82,-1.62,702.00,1471.00,478.00,971.00,1794.00,3051.00,988.00,1679.00,,,,,,,,,,,,0,0,0,,96,14908,5776,-110,34,-108
4.128,3.92,0.66,3.42,-2.94,20.82,-14.15,-3.62,2.24,-1.86,1.90,801.00,1445.00,1068.00,655.00,1479.00,3946.00,873.00,1767.00,,,,,,,,,,,,0,0,0,,-28,14964,5912,-122,29,-72
4.189,3.98,0.44,-1.71,0.78,-8.78,2.63,-3.76,7.38,-0.39,1.90,719.00,1602.00,738.00,1347.00,1122.00,3456.00,850.00,1667.00,,,,,,,,,,,,0,0,0,,-96,15052,5824,-104,165,-128
4.251,4.03,0.85,-1.29,2.79,-10.87,16.33,8.58,-5.86,3.23,-2.48,640.00,1493.00,365.00,1013.00,1836.00,3026.00,1009.00,1625.00,,,,,,,,,,,,0,0,0,,-60,14956,5640,-75,244,-197
4.292,4.09,0.74,5.41,-4.66,17.24,-12.30,-1.30,0.46,-1.15,0.86,848.00,1399.00,1031.00,718.00,1561.00,3776.00,912.00,1767.00,,,,,,,,,,,,0,0,0,,48,14932,5776,-80,88,-220
4.375,4.14,0.57,-0.95,-0.06,-2.07,-1.21,-2.68,4.10,-1.05,1.86,742.00,1590.00,804.00,1145.00,1314.00,3616.00,862.00,1713.00,,,,,,,,,,,,0,0,0,,12,14932,5772,-195,111,-225
4.396,4.20,0.64,-1.45,2.33,-6.60,6.80,1.90,0.19,1.86,-0.73,658.00,1521.00,566.00,1105.00,1494.00,3351.00,941.00,1637.00,,,,,,,,,,,,0,0,0,,12,15040,5968,-200,166,-130
4.459,4.25,0.79,1.74,-1.55,0.28,1.31,3.79,-2.51,0.65,-0.39,766.00,1488.00,672.00,975.00,1671.00,3343.00,944.00,1701.00,,,,,,,,,,,,0,0,0,,-68,14976,5884,-173,158,-212
4.501,4.31,0.57,0.85,-1.05,10.44,-8.06,-3.61,1.98,-1.56,1.80,758.00,1521.00,928.00,839.00,1499.00,3971.00,873.00,1751.00,,,,,,,,,,,,0,0,0,,0,15140,5752,-2,139,-201
4.564,4.36,0.42,-1.67,1.03,-9.65,4.16,-2.57,5.20,0.76,0.50,709.00,1589.00,690.00,1338.00,1236.00,3497.00,898.00,1654.00,,,,,,,,,,,,0,0,0,,16,14912,5808,64,95,-140
4.627,4.42,0.82,0.25,0.64,-7.28,12.02,8.41,-5.75,2.23,-1.74,699.00,1488.00,432.00,987.00,1831.00,3038.00,987.00,1657.00,,,,,,,,,,,,0,0,0,,8,14916,5628,-114,192,-257
4.668,4.47,0.57,3.90,-3.10,22.21,-14.69,-4.06,1.99,-1.95,1.79,801.00,1424.00,1072.00,629.00,1511.00,4042.00,880.00,1779.00,,,,,,,,,,,,0,0,0,,-108,14912,5828,-233,172,-124
4.752,4.53,0.35,-1.79,0.55,-9.37,2.63,-3.83,6.97,-0.85,2.43,729.00,1617.00,746.00,1379.00,1149.00,3505.00,833.00,1674.00,,,,,,,,,,,,0,0,0,,16,15016,5996,-184,110,-96
4.773,4.58,0.65,-1.61,3.40,-10.03,13.90,6.21,-3.83,2.61,-1.66,623.00,1488.00,410.00,1046.00,1717.00,3147.00,976.00,1629.00,,,,,,,,,,,,0,0,0,,16,14992,5784,-52,124,-148
4.837,4.64,0.66,3.81,-3.05,11.36,-7.41,1.00,-0.62,-0.35,0.53,800.00,1427.00,881.00,795.00,1587.00,3549.00,915.00,1727.00,,,,,,,,,,,,0,0,0,,0,14868,5740,-75,149,-178
4.942,4.69,0.52,-0.33,-0.11,1.80,-2.72,-2.17,3.32,-1.51,2.41,736.00,1554.00,813.00,1023.00,1358.00,3619.00,844.00,1719.00,,,,,,,,,,,,0,0,0,,60,14956,5976,-140,173,-147
4.963,4.75,0.48,-0.90,1.59,-5.33,3.93,-0.26,2.61,0.72,0.29,678.00,1518.00,646.00,1135.00,1363.00,3420.00,909.00,1666.00,,,,,,,,,,,,0,0,0,,24,14916,5900,-149,98,-206
5.005,4.80,0.76,1.51,-0.88,-2.45,5.53,5.96,-3.76,1.26,-0.88,742.00,1475.00,562.00,970.00,1719.00,3173.00,959.00,1683.00,,,,,,,,,,,,0,0,0,,-96,14948,5996,-81,49,-261
5.068,4.86,0.51,2.33,-2.31,16.01,-11.70,-4.18,2.42,-2.19,2.06,790.00,1484.00,1021.00,742.00,1479.00,4014.00,871.00,1783.00,,,,,,,,,,,,0,0,0,,12,14916,5976,-53,47,-215
5.129,4.91,0.31,-1.41,0.81,-9.21,3.10,-3.50,6.52,-0.13,1.34,714.00,1582.00,725.00,1353.00,1170.00,3501.00,872.00,1675.00,,,,,,,,,,,,0,0,0,,-68,14844,5836,-113,91,-129
5.171,4.97,0.72,-0.64,1.62,-10.33,15.22,8.43,-6.01,2.48,-1.97,674.00,1502.00,384.00,1022.00,1856.00,3056.00,995.00,1651.00,,,,,,,,,,,,0,0,0,,-60,15036,5932,-118,120,-150
5.234,5.02,0.47,5.10,-4.84,22.21,-15.74,-4.23,1.75,-2.21,1.29,861.00,1423.00,1135.00,647.00,1535.00,4095.00,908.00,1821.00,,,,,,,,,,,,0,0,0,,92,14916,5812,-72,119,-194
5.295,5.08,0.24,-1.64,0.10,-6.24,0.59,-4.06,5.51,-1.79,2.33,745.00,1627.00,787.00,1287.00,1249.00,3679.00,852.00,1742.00,,,,,,,,,,,,0,0,0,,8,14988,5724,88,56,-76
5.378,5.13,0.39,-1.76,1.77,-7.36,7.65,3.22,-1.60,1.38,-1.00,682.00,1563.00,548.00,1113.00,1607.00,3337.00,963.00,1680.00,,,,,,,,,,,,0,0,0,,12,14944,5708,16,73,-233
5.4,5.19,0.44,2.76,-2.55,6.40,-3.76,1.44,-1.31,-0.43,-0.08,794.00,1468.00,791.00,877.00,1634.00,3552.00,947.00,1761.00,,,,,,,,,,,,0,0,0,,52,15096,5572,-242,20,-241
5.482,5.24,0.29,0.04,-0.68,6.61,-5.78,-2.54,1.89,-1.66,1.42,754.00,1555.00,879.00,918.00,1478.00,3817.00,893.00,1776.00,,,,,,,,,,,,0,0,0,,12,15084,5960,-214,-1,-217
5.502,5.30,0.19,-0.52,0.69,-6.19,2.47,-1.75,4.21,-0.08,0.78,707.00,1532.00,710.00,1221.00,1285.00,3477.00,898.00,1697.00,,,,,,,,,,,,0,0,0,,-104,14940,6036,-40,96,-296
5.565,5.35,0.56,0.69,0.08,-5.34,9.53,7.47,-5.23,1.45,-1.51,715.00,1485.00,477.00,977.00,1811.00,3109.00,989.00,1699.00,,,,,,,,,,,,0,0,0,,-8,14920,5900,40,129,-294
5.625,5.41,0.33,3.58,-3.01,20.78,-14.16,-4.00,2.11,-2.12,2.16,802.00,1439.00,1069.00,656.00,1500.00,4021.00,865.00,1773.00,,,,,,,,,,,,0,0,0,,-212,14936,5864,-64,123,-153
5.668,5.46,0.11,-1.41,0.78,-9.03,3.15,-3.97,7.31,-0.58,2.01,715.00,1583.00,721.00,1342.00,1131.00,3492.00,848.00,1675.00,,,,,,,,,,,,0,0,0,,-88,14960,5800,-200,202,-47
5.728,5.52,0.52,-1.33,2.77,-11.02,16.49,8.28,-5.57,3.00,-2.37,641.00,1496.00,363.00,1015.00,1817.00,3038.00,1007.00,1635.00,,,,,,,,,,,,0,0,0,,-60,14964,5896,-281,102,-40
5.789,5.57,0.44,5.27,-4.57,17.58,-11.90,-1.02,0.41,-1.07,0.55,846.00,1403.00,1003.00,701.00,1557.00,3739.00,926.00,1776.00,,,,,,,,,,,,0,0,0,,36,15008,6004,-149,43,-68
5.851,5.63,0.31,-0.21,-0.75,-0.96,-1.72,-2.25,3.83,-1.33,1.94,760.00,1573.00,810.00,1111.00,1323.00,3581.00,863.00,1729.00,,,,,,,,,,,,0,0,0,,0,14960,5968,-17,78,-192
5.871,5.68,0.38,-1.49,2.40,-6.18,6.69,1.65,0.64,1.38,-0.29,656.00,1521.00,565.00,1090.00,1465.00,3344.00,927.00,1649.00,,,,,,,,,,,,0,0,0,,-92,14976,5844,-49,127,-225
5.934,5.74,0.58,1.61,-1.31,-0.14,2.35,4.47,-2.67,0.53,-0.44,758.00,1486.00,640.00,964.00,1665.00,3269.00,949.00,1712.00,,,,,,,,,,,,0,0,0,,-8,14960,5888,-107,91,-191
5.994,5.79,0.37,1.02,-0.92,11.87,-8.55,-3.62,2.16,-1.90,1.91,750.00,1505.00,928.00,803.00,1485.00,3954.00,873.00,1769.00,,,,,,,,,,,,0,0,0,,44,15048,5868,-81,170,-146
6.056,5.85,0.19,-0.81,-0.40,-9.02,3.35,-3.32,5.90,0.03,0.99,754.00,1596.00,713.00,1334.00,1206.00,3534.00,886.00,1680.00,,,,,,,,,,,,0,0,0,,12,14968,5784,-132,130,-89
6.119,5.90,0.57,-0.66,1.21,-8.77,13.39,7.81,-5.71,1.75,-1.56,689.00,1519.00,412.00,1009.00,1847.00,3107.00,986.00,1681.00,,,,,,,,,,,,0,0,0,,-32,14992,5944,-67,118,-115
6.242,5.96,0.32,3.46,-3.41,21.30,-14.69,-4.32,1.90,-2.53,1.84,821.00,1461.00,1090.00,652.00,1526.00,4095.00,887.00,1818.00,,,,,,,,,,,,0,0,0,,-96,14944,5872,-56,154,-147
6.284,6.01,0.07,-2.55,0.61,-9.29,2.21,-4.83,6.66,-1.77,2.67,737.00,1664.00,762.00,1390.00,1190.00,3677.00,836.00,1725.00,,,,,,,,,,,,0,0,0,,-148,14984,5724,-77,151,-60
6.303,6.07,0.28,-2.74,3.14,-9.86,11.64,4.24,-3.08,1.68,-1.44,645.00,1567.00,462.00,1104.00,1709.00,3334.00,981.00,1680.00,,,,,,,,,,,,0,0,0,,-44,14880,5920,-76,110,-161
6.323,6.12,0.27,3.04,-3.02,9.38,-6.20,0.21,-0.33,-0.71,0.33,810.00,1470.00,855.00,832.00,1585.00,3633.00,931.00,1761.00,,,,,,,,,,,,0,0,0,,-12,14944,5776,-127,141,-306
6.384,6.18,0.13,-0.38,-0.37,2.77,-3.27,-2.62,2.89,-1.94,2.40,747.00,1568.00,823.00,999.00,1402.00,3728.00,851.00,1749.00,,,,,,,,,,,,0,0,0,,-60,14908,5772,-80,25,-230
6.426,6.23,0.06,-0.60,0.75,-4.77,2.58,-1.26,3.18,0.43,0.35,706.00,1535.00,688.00,1151.00,1346.00,3504.00,911.00,1683.00,,,,,,,,,,,,0,0,0,,-56,14856,5808,-80,0,-149
6.487,6.29,0.35,0.74,-0.25,-3.36,6.64,5.95,-4.24,0.77,-0.79,727.00,1495.00,538.00,976.00,1764.00,3215.00,963.00,1712.00,,,,,,,,,,,,0,0,0,,0,15032,5760,-101,195,-125
6.589,6.34,0.11,2.53,-2.64,16.77,-12.37,-4.55,2.23,-2.45,2.14,801.00,1485.00,1044.00,733.00,1505.00,4095.00,871.00,1797.00,,,,,,,,,,,,0,0,0,,92,14924,5852,-115,163,-140
6.61,6.40,-0.10,-1.42,0.66,-9.28,3.25,-4.07,6.73,-0.33,1.28,720.00,1589.00,720.00,1351.00,1169.00,3561.00,878.00,1691.00,,,,,,,,,,,,0,0,0,,48,15076,5824,-52,67,-112
6.671,6.45,0.31,-1.19,2.30,-10.84,16.22,8.11,-6.06,2.40,-2.19,656.00,1507.00,367.00,1015.00,1872.00,3099.00,1008.00,1666.00,,,,,,,,,,,,0,0,0,,-28,15020,5928,-64,160,-167
6.692,6.51,0.10,5.05,-4.69,21.11,-14.86,-3.79,1.33,-2.24,1.22,855.00,1420.00,1104.00,660.00,1558.00,4070.00,912.00,1827.00,,,,,,,,,,,,0,0,0,,4,14948,5756,-125,68,-225
6.753,6.56,-0.08,-1.48,0.05,-4.87,0.13,-3.51,4.30,-1.62,1.65,745.00,1619.00,787.00,1234.00,1320.00,3718.00,881.00,1762.00,,,,,,,,,,,,0,0,0,,-116,15116,5852,-58,34,-186
6.837,6.62,0.06,-1.36,1.86,-6.37,7.25,2.60,-1.12,1.18,-0.70,674.00,1535.00,550.00,1082.00,1584.00,3376.00,951.00,1680.00,,,,,,,,,,,,0,0,0,,40,14964,5860,-102,124,-191
6.858,6.67,0.16,2.69,-2.27,4.37,-1.69,2.07,-1.70,-0.27,-0.19,783.00,1461.00,734.00,899.00,1650.00,3501.00,950.00,1755.00,,,,,,,,,,,,0,0,0,,104,15044,5840,-352,249,-375
6.984,6.73,-0.04,0.42,-0.76,7.59,-6.40,-3.75,2.03,-1.93,1.57,752.00,1535.00,893.00,898.00,1499.00,3988.00,890.00,1788.00,,,,,,,,,,,,0,0,0,,-80,14868,5852,-331,394,-377
7.004,6.78,-0.20,-1.76,1.22,-7.86,2.85,-3.23,4.60,-0.22,0.67,703.00,1587.00,717.00,1291.00,1292.00,3647.00,906.00,1712.00,,,,,,,,,,,,0,0,0,,-124,14880,5788,-223,123,-237
7.067,6.84,0.14,-0.31,0.31,-7.60,10.56,6.59,-5.39,1.33,-1.99,719.00,1535.00,470.00,1039.00,1856.00,3233.00,1017.00,1729.00,,,,,,,,,,,,0,0,0,,76,14928,5952,-124,-49,-34
7.088,6.89,-0.04,2.52,-3.04,19.33,-14.06,-3.48,0.66,-2.78,1.96,819.00,1502.00,1092.00,693.00,1607.00,4095.00,885.00,1830.00,,,,,,,,,,,,0,0,0,,-28,14980,6056,-136,137,-185
7.151,6.95,-0.29,-2.10,0.53,-10.04,2.76,-5.16,7.13,-1.60,2.33,734.00,1638.00,750.00,1411.00,1167.00,3678.00,849.00,1729.00,,,,,,,,,,,,0,0,0,,-44,14968,5708,-114,123,-282
7.193,7.00,0.05,-2.07,3.11,-11.62,15.50,6.52,-4.87,2.41,-2.15,638.00,1527.00,387.00,1067.00,1807.00,3197.00,1006.00,1664.00,,,,,,,,,,,,0,0,0,,-128,14796,5976,-157,73,-258
7.256,7.06,0.01,3.60,-3.59,11.84,-8.87,-0.77,-0.20,-0.86,0.24,827.00,1460.00,945.00,811.00,1602.00,3763.00,938.00,1776.00,,,,,,,,,,,,0,0,0,,-136,14968,5964,-149,102,-195
7.319,7.11,-0.14,-0.52,-0.52,-0.04,-2.23,-2.97,3.57,-1.99,2.29,755.00,1583.00,819.00,1086.00,1360.00,3711.00,857.00,1758.00,,,,,,,,,,,,0,0,0,,-4,14788,6064,-123,70,-193
7.382,7.17,-0.16,-1.48,2.06,-6.58,5.32,-0.54,2.00,0.46,0.03,668.00,1534.00,613.00,1149.00,1416.00,3515.00,926.00,1695.00,,,,,,,,,,,,0,0,0,,-132,15092,6016,-50,82,-243
7.443,7.22,0.08,0.85,-0.59,-2.21,4.65,4.59,-3.23,0.22,-0.34,739.00,1502.00,587.00,984.00,1712.00,3302.00,949.00,1728.00,,,,,,,,,,,,0,0,0,,-112,14864,5936,-37,75,-177
7.485,7.28,-0.16,1.30,-1.45,13.58,-9.84,-4.60,2.31,-2.44,1.87,768.00,1510.00,965.00,777.00,1500.00,4095.00,884.00,1810.00,,,,,,,,,,,,0,0,0,,-32,14976,5800,-69,137,-205
7.547,7.33,-0.34,-1.73,0.87,-9.39,3.37,-3.85,6.17,-0.43,1.21,716.00,1600.00,717.00,1353.00,1200.00,3583.00,883.00,1701.00,,,,,,,,,,,,0,0,0,,-32,14944,6012,-78,124,-188
7.608,7.39,0.05,-0.87,1.50,-10.05,14.83,7.60,-5.74,1.76,-1.58,681.00,1520.00,390.00,1021.00,1857.00,3136.00,987.00,1681.00,,,,,,,,,,,,0,0,0,,-32,14840,5944,-2,55,-178
7.69,7.44,-0.16,4.10,-4.07,21.60,-15.19,-4.23,1.75,-2.80,1.51,841.00,1450.00,1114.00,653.00,1535.00,4095.00,907.00,1853.00,,,,,,,,,,,,0,0,0,,-88,14912,6108,8,118,-145
7.71,7.50,-0.40,-2.27,0.21,-7.42,1.15,-4.99,5.85,-2.13,2.53,749.00,1663.00,780.00,1328.00,1247.00,3782.00,848.00,1756.00,,,,,,,,,,,,0,0,0,,-112,14920,5864,-85,140,-127
7.752,7.55,-0.25,-1.97,1.93,-8.36,8.36,2.65,-1.69,0.81,-0.79,679.00,1570.00,537.00,1136.00,1632.00,3421.00,962.00,1709.00,,,,,,,,,,,,0,0,0,,-140,15000,5712,-154,146,-147
7.815,7.61,-0.19,2.63,-2.81,6.36,-4.04,0.86,-1.21,-0.97,0.26,807.00,1486.00,804.00,885.00,1643.00,3626.00,939.00,1783.00,,,,,,,,,,,,0,0,0,,-116,14980,5792,-111,86,-134
7.875,7.66,-0.38,-0.54,-0.66,4.88,-5.23,-3.96,2.05,-2.12,1.53,761.00,1590.00,881.00,969.00,1503.00,4019.00,895.00,1803.00,,,,,,,,,,,,0,0,0,,-116,14952,5868,-91,127,-174
7.957,7.72,-0.57,-1.21,0.31,-7.11,2.42,-4.24,5.11,-0.59,0.65,731.00,1591.00,724.00,1268.00,1280.00,3744.00,913.00,1738.00,,,,,,,,,,,,0,0,0,,-64,15092,5772,-140,109,-116
7.978,7.77,-0.26,-0.04,-0.09,-6.43,8.63,5.74,-5.05,0.75,-1.39,731.00,1535.00,511.00,1045.00,1851.00,3314.00,995.00,1741.00,,,,,,,,,,,,0,0,0,,-140,14840,5800,-61,119,-126
8.06,7.83,-0.46,2.42,-2.83,18.04,-13.37,-4.28,1.83,-2.92,2.22,811.00,1499.00,1077.00,716.00,1530.00,4095.00,875.00,1827.00,,,,,,,,,,,,0,0,0,,-124,14880,5964,-97,89,-235
8.08,7.88,-0.68,-2.02,0.81,-9.40,2.61,-4.93,7.11,-1.32,1.95,722.00,1621.00,747.00,1381.00,1163.00,3646.00,862.00,1727.00,,,,,,,,,,,,0,0,0,,-108,14916,5836,-106,94,-145
8.141,7.94,-0.28,-1.91,2.91,-11.80,16.20,7.38,-5.72,2.50,-2.31,643.00,1525.00,374.00,1055.00,1862.00,3161.00,1013.00,1665.00,,,,,,,,,,,,0,0,0,,-156,14888,6020,-83,119,-161
8.183,7.99,-0.39,4.78,-4.43,16.03,-11.58,-2.44,0.88,-1.68,1.02,847.00,1425.00,1014.00,739.00,1558.00,3906.00,913.00,1797.00,,,,,,,,,,,,0,0,0,,-88,14828,5864,-180,170,-130
8.244,8.05,-0.54,-0.69,-0.56,-1.78,-1.53,-3.47,3.96,-1.82,2.21,759.00,1595.00,814.00,1142.00,1344.00,3747.00,858.00,1750.00,,,,,,,,,,,,0,0,0,,-100,14960,5796,-180,120,-234
8.326,8.10,-0.49,-1.62,2.25,-6.93,6.74,0.49,0.62,1.04,-0.20,663.00,1535.00,571.00,1121.00,1498.00,3503.00,928.00,1667.00,,,,,,,,,,,,0,0,0,,-32,14884,5896,-155,80,-105
8.346,8.16,-0.31,1.15,-1.25,-0.93,2.68,3.19,-2.62,0.31,-0.47,762.00,1511.00,638.00,986.00,1699.00,3433.00,954.00,1728.00,,,,,,,,,,,,0,0,0,,-196,15076,5952,-20,129,-167
8.427,8.21,-0.51,0.83,-1.07,10.99,-8.56,-4.38,1.97,-2.24,1.91,759.00,1523.00,944.00,832.00,1521.00,4095.00,879.00,1794.00,,,,,,,,,,,,0,0,0,,-48,14856,5824,-80,116,-221
8.469,8.27,-0.70,-1.94,0.96,-9.51,3.46,-4.39,5.84,-0.32,1.09,715.00,1609.00,715.00,1356.00,1234.00,3694.00,887.00,1699.00,,,,,,,,,,,,0,0,0,,-120,14928,5720,-106,77,-201
8.531,8.32,-0.33,-0.83,1.30,-9.96,14.02,6.85,-5.71,1.57,-1.67,688.00,1526.00,407.00,1040.00,1879.00,3227.00,995.00,1698.00,,,,,,,,,,,,0,0,0,,-164,14836,5992,-128,118,-173
8.571,8.38,-0.51,3.49,-3.35,20.62,-14.60,-3.90,1.28,-2.94,1.79,818.00,1457.00,1098.00,668.00,1566.00,4095.00,896.00,1850.00,,,,,,,,,,,,0,0,0,,-140,14964,5968,-169,164,-124
8.632,8.43,-0.77,-2.56,0.26,-9.31,2.00,-5.85,6.50,-1.96,2.54,751.00,1680.00,771.00,1399.00,1223.00,3845.00,845.00,1744.00,,,,,,,,,,,,0,0,0,,-40,15060,6008,-119,152,-142
8.693,8.49,-0.60,-3.04,3.38,-10.45,11.49,2.75,-2.73,1.23,-1.20,640.00,1575.00,471.00,1135.00,1723.00,3504.00,976.00,1699.00,,,,,,,,,,,,0,0,0,,-144,14972,5984,-145,79,-215
8.815,8.54,-0.63,2.63,-3.01,7.85,-6.11,-1.33,-0.41,-1.05,0.28,816.00,1494.00,875.00,882.00,1637.00,3870.00,939.00,1787.00,,,,,,,,,,,,0,0,0,,-84,14888,5836,-64,81,-231
8.836,8.60,-0.84,-1.16,-0.36,2.12,-3.95,-4.86,2.69,-2.34,2.11,757.00,1616.00,864.00,1044.00,1476.00,4095.00,871.00,1791.00,,,,,,,,,,,,0,0,0,,-152,15056,5760,-74,117,-114
8.856,8.65,-0.97,-1.22,0.41,-5.69,1.37,-3.37,3.15,-0.14,0.48,727.00,1587.00,747.00,1233.00,1401.00,3813.00,914.00,1715.00,,,,,,,,,,,,0,0,0,,-76,14912,6020,-134,122,-174
8.916,8.71,-0.67,0.28,-0.30,-5.31,7.30,5.14,-4.65,0.82,-1.15,735.00,1524.00,538.00,1036.00,1831.00,3357.00,981.00,1725.00,,,,,,,,,,,,0,0,0,,-148,15016,6048,-63,186,-276
8.98,8.76,-0.84,2.29,-2.79,17.66,-13.07,-4.23,1.75,-2.72,2.17,811.00,1505.00,1067.00,721.00,1535.00,4095.00,874.00,1815.00,,,,,,,,,,,,0,0,0,,-176,14952,5868,-110,148,-234
9.02,8.82,-1.06,-1.72,0.48,-9.57,2.87,-5.11,6.92,-0.74,1.65,731.00,1616.00,739.00,1381.00,1179.00,3691.00,867.00,1702.00,,,,,,,,,,,,0,0,0,,-112,14992,6008,-117,90,-187
9.062,8.87,-0.63,-1.73,2.65,-12.06,16.58,7.51,-6.18,2.59,-2.36,650.00,1525.00,368.00,1055.00,1905.00,3184.00,1014.00,1661.00,,,,,,,,,,,,0,0,0,,-60,14932,6064,-81,80,-174
9.162,8.93,-0.77,4.92,-4.62,18.10,-13.15,-3.51,0.88,-1.94,1.12,854.00,1425.00,1063.00,710.00,1589.00,4076.00,912.00,1810.00,,,,,,,,,,,,0,0,0,,-124,14936,5776,-77,91,-152
9.183,8.98,-0.93,-1.26,-0.22,-3.47,-0.99,-3.87,4.02,-1.62,1.99,753.00,1617.00,815.00,1203.00,1349.00,3799.00,865.00,1746.00,,,,,,,,,,,,0,0,0,,-88,14984,5928,-77,19,-5
9.267,9.04,-0.81,-1.53,2.11,-6.95,7.14,1.38,-0.36,1.25,-0.49,667.00,1535.00,559.00,1110.00,1554.00,3472.00,939.00,1666.00,,,,,,,,,,,,0,0,0,,32,14924,5996,-87,75,-4
9.288,9.09,-0.64,2.11,-2.10,1.44,0.30,2.62,-2.22,0.23,-0.30,784.00,1488.00,695.00,957.00,1680.00,3474.00,947.00,1726.00,,,,,,,,,,,,0,0,0,,12,14904,5956,-86,161,-56
9.352,9.15,-0.83,0.44,-0.79,9.22,-7.46,-4.49,2.15,-2.06,1.86,753.00,1535.00,918.00,866.00,1510.00,4095.00,878.00,1783.00,,,,,,,,,,,,0,0,0,,60,15024,5904,-13,228,-212
9.415,9.20,-1.00,-2.03,0.86,-9.47,3.27,-4.24,5.24,0.51,0.61,720.00,1619.00,722.00,1361.00,1271.00,3731.00,897.00,1666.00,,,,,,,,,,,,0,0,0,,-104,14836,5744,-96,155,-270
9.477,9.26,-0.63,-0.56,0.68,-8.25,11.14,6.52,-5.52,1.54,-1.68,708.00,1535.00,461.00,1050.00,1872.00,3254.00,996.00,1700.00,,,,,,,,,,,,0,0,0,,-124,14976,5804,-92,-51,-167
9.519,9.31,-0.79,2.88,-3.23,19.69,-14.32,-3.83,1.17,-2.57,1.66,822.00,1488.00,1100.00,688.00,1573.00,4095.00,896.00,1829.00,,,,,,,,,,,,0,0,0,,-120,14884,6048,-99,0,-132
9.581,9.37,-1.08,-2.84,0.46,-10.34,2.40,-6.55,7.08,-2.00,2.53,747.00,1690.00,769.00,1442.00,1200.00,3891.00,846.00,1747.00,,,,,,,,,,,,0,0,0,,-148,14964,6000,-73,134,-123
9.644,9.42,-0.87,-2.66,3.11,-10.79,12.77,3.14,-3.32,1.28,-1.27,645.00,1563.00,442.00,1111.00,1767.00,3506.00,979.00,1699.00,,,,,,,,,,,,0,0,0,,-56,14824,6016,-43,164,-116
9.665,9.48,-0.94,2.34,-3.03,8.21,-6.57,-2.28,-0.08,-1.17,0.33,821.00,1512.00,891.00,880.00,1636.00,3982.00,939.00,1794.00,,,,,,,,,,,,0,0,0,,-112,15056,5932,-105,173,-30
9.726,9.53,-1.15,-1.46,-0.25,0.53,-2.94,-5.26,3.28,-2.51,2.44,757.00,1631.00,842.00,1082.00,1440.00,4095.00,858.00,1787.00,,,,,,,,,,,,0,0,0,,28,14908,6024,-134,196,-149
9.789,9.59,-1.23,-1.63,1.07,-6.23,2.77,-2.70,3.01,-0.08,0.44,707.00,1585.00,699.00,1213.00,1395.00,3728.00,915.00,1713.00,,,,,,,,,,,,0,0,0,,-144,14924,5832,-116,134,-270
9.892,9.64,-0.97,0.44,-0.45,-3.96,6.07,4.03,-3.83,0.50,-0.72,739.00,1521.00,561.00,1015.00,1787.00,3431.00,964.00,1727.00,,,,,,,,,,,,0,0,0,,-20,14904,5840,-77,-3,-271
9.914,9.70,-1.13,2.15,-2.83,15.11,-12.01,-4.24,1.77,-2.81,2.33,815.00,1515.00,1055.00,775.00,1534.00,4095.00,868.00,1814.00,,,,,,,,,,,,0,0,0,,-120,14912,6008,-115,9,-289
9.975,9.75,-1.32,-1.92,0.75,-8.10,2.50,-4.93,6.61,-0.50,1.40,723.00,1617.00,734.00,1316.00,1195.00,3696.00,875.00,1697.00,,,,,,,,,,,,0,0,0,,-112,14716,5916,-121,63,-235
10.036,9.81,-0.88,-1.72,2.39,-11.56,16.17,7.49,-6.08,2.34,-2.18,659.00,1535.00,373.00,1046.00,1895.00,3178.00,1009.00,1670.00,,,,,,,,,,,,0,0,0,,-172,14964,5996,-130,223,-154
10.056,9.86,-1.02,4.82,-4.63,19.30,-14.02,-3.74,1.03,-2.26,1.37,856.00,1431.00,1090.00,693.00,1582.00,4095.00,905.00,1821.00,,,,,,,,,,,,0,0,0,,-120,14892,5752,-58,239,-131
10.119,9.92,-1.18,-1.60,-0.11,-4.67,-0.31,-4.10,4.23,-1.80,1.99,753.00,1634.00,803.00,1239.00,1339.00,3812.00,868.00,1759.00,,,,,,,,,,,,0,0,0,,-112,14968,5776,-27,93,-155
10.18,9.97,-1.02,-1.95,2.08,-7.30,7.26,1.92,-0.89,1.27,-0.62,673.00,1562.00,559.00,1122.00,1584.00,3447.00,945.00,1670.00,,,,,,,,,,,,0,0,0,,-100,15020,5916,-76,17,-227
10.282,10.03,-0.86,2.36,-2.21,2.84,-0.90,2.12,-1.87,-0.14,-0.12,785.00,1478.00,723.00,935.00,1664.00,3511.00,944.00,1743.00,,,,,,,,,,,,0,0,0,,-200,14908,5772,-126,4,-248
10.324,10.08,-1.03,0.08,-0.92,8.39,-6.83,-4.27,1.95,-1.90,1.70,763.00,1562.00,901.00,880.00,1520.00,4080.00,883.00,1779.00,,,,,,,,,,,,0,0,0,,-220,14872,5940,-79,99,-225
10.345,10.14,-1.17,-1.53,0.62,-8.51,3.05,-3.83,4.92,-0.23,0.87,723.00,1598.00,718.00,1318.00,1284.00,3703.00,896.00,1703.00,,,,,,,,,,,,0,0,0,,-188,14848,5936,-143,180,-137
10.406,10.19,-0.79,-0.22,0.18,-8.04,10.83,6.44,-5.41,1.35,-1.52,723.00,1535.00,467.00,1050.00,1863.00,3254.00,991.00,1706.00,,,,,,,,,,,,0,0,0,,-168,15044,5960,-83,124,-116
10.466,10.25,-0.95,2.51,-3.13,18.75,-13.95,-3.99,1.40,-2.69,1.85,823.00,1506.00,1097.00,707.00,1558.00,4095.00,889.00,1829.00,,,,,,,,,,,,0,0,0,,-224,14832,5832,-93,129,-144
10.548,10.30,-1.22,-3.14,0.66,-10.82,2.82,-6.33,7.15,-1.66,2.28,743.00,1701.00,758.00,1453.00,1191.00,3851.00,852.00,1735.00,,,,,,,,,,,,0,0,0,,-140,15020,5944,-67,242,-31
10.568,10.36,-0.94,-3.08,3.39,-11.71,14.07,4.40,-3.96,1.95,-1.83,640.00,1577.00,419.00,1113.00,1787.00,3392.00,997.00,1680.00,,,,,,,,,,,,0,0,0,,-48,15032,5912,-162,291,-8
10.628,10.41,-0.95,2.95,-3.42,9.81,-7.67,-1.08,-0.18,-0.84,0.31,829.00,1491.00,919.00,851.00,1610.00,3809.00,934.00,1771.00,,,,,,,,,,,,0,0,0,,60,15004,5936,-112,72,-246
10.69,10.47,-1.09,-0.98,-0.37,0.29,-2.30,-3.84,3.43,-2.14,2.47,755.00,1605.00,817.00,1074.00,1392.00,3856.00,851.00,1760.00,,,,,,,,,,,,0,0,0,,-132,14920,5812,-84,-114,-302
10.711,10.52,-1.13,-1.53,1.54,-5.90,3.70,-1.82,2.76,0.19,0.43,688.00,1559.00,661.00,1168.00,1391.00,3623.00,911.00,1695.00,,,,,,,,,,,,0,0,0,,-160,14932,6096,-88,-39,-199
10.772,10.58,-0.83,0.72,-0.62,-3.85,5.84,4.93,-3.71,0.63,-0.63,742.00,1511.00,567.00,1017.00,1747.00,3301.00,957.00,1714.00,,,,,,,,,,,,0,0,0,,-192,14932,5860,-133,178,-114
10.833,10.63,-1.01,1.67,-2.49,15.00,-11.93,-4.44,2.07,-2.54,2.26,807.00,1530.00,1053.00,777.00,1515.00,4095.00,867.00,1798.00,,,,,,,,,,,,0,0,0,,-192,14988,5756,-111,200,-142
10.896,10.69,-1.20,-1.86,0.68,-9.77,3.21,-4.83,6.84,-0.27,1.32,725.00,1616.00,728.00,1379.00,1178.00,3658.00,875.00,1685.00,,,,,,,,,,,,0,0,0,,-184,14964,5816,-121,123,-95
10.978,10.74,-0.76,-1.65,2.32,-11.76,16.53,7.47,-5.84,2.36,-2.06,661.00,1534.00,367.00,1044.00,1872.00,3161.00,1002.00,1663.00,,,,,,,,,,,,0,0,0,,-124,14956,5972,-127,146,-145
10.999,10.80,-0.92,4.89,-5.13,20.38,-14.73,-3.82,1.15,-2.06,1.37,878.00,1446.00,1111.00,677.00,1574.00,4095.00,902.00,1807.00,,,,,,,,,,,,0,0,0,,-76,15012,5852,-117,147,-185
11.061,10.85,-1.10,-2.04,0.21,-5.57,0.18,-4.56,4.70,-1.73,1.92,746.00,1648.00,795.00,1267.00,1317.00,3835.00,870.00,1757.00,,,,,,,,,,,,0,0,0,,-192,14860,5876,-94,134,-169
11.103,10.91,-0.93,-2.04,1.95,-7.85,7.85,2.21,-0.95,0.79,-0.63,679.00,1573.00,547.00,1129.00,1581.00,3414.00,954.00,1703.00,,,,,,,,,,,,0,0,0,,16,14836,5720,-56,139,-124
11.164,10.96,-0.80,2.15,-2.26,3.84,-1.49,1.69,-1.49,-0.82,-0.30,790.00,1492.00,733.00,913.00,1643.00,3535.00,965.00,1799.00,,,,,,,,,,,,0,0,0,,-64,14976,5852,-164,60,-245
11.227,11.02,-0.97,-0.02,-0.98,7.08,-6.02,-4.09,2.09,-2.46,1.42,767.00,1571.00,883.00,907.00,1504.00,4037.00,906.00,1833.00,,,,,,,,,,,,0,0,0,,-244,14936,5948,-141,66,-193
11.288,11.07,-1.11,-1.95,0.84,-8.60,3.21,-3.82,4.97,-0.56,0.46,720.00,1615.00,713.00,1317.00,1280.00,3696.00,922.00,1745.00,,,,,,,,,,,,0,0,0,,-124,14820,6120,-119,166,-209
11.369,11.13,-0.74,-0.76,0.31,-8.01,10.39,6.23,-5.23,0.70,-1.61,725.00,1563.00,478.00,1061.00,1852.00,3265.00,1008.00,1755.00,,,,,,,,,,,,0,0,0,,-104,15036,5960,-142,160,-217
11.389,11.18,-0.92,2.57,-3.15,18.97,-13.96,-4.23,1.75,-2.76,1.77,823.00,1503.00,1093.00,701.00,1535.00,4095.00,894.00,1838.00,,,,,,,,,,,,0,0,0,,-156,15032,5760,-98,149,-135
11.43,11.24,-1.13,-2.48,0.51,-10.58,3.16,-5.20,7.24,-1.54,2.14,740.00,1664.00,741.00,1426.00,1161.00,3674.00,857.00,1734.00,,,,,,,,,,,,0,0,0,,-36,14836,5720,-98,116,-253
11.492,11.29,-0.77,-2.20,3.09,-11.53,14.96,6.03,-4.36,2.08,-2.00,640.00,1535.00,398.00,1079.00,1773.00,3215.00,1004.00,1679.00,,,,,,,,,,,,0,0,0,,-176,14920,5920,-66,95,-198
11.553,11.35,-0.75,3.65,-3.72,11.23,-8.33,-0.37,-0.12,-0.92,0.20,832.00,1462.00,928.00,819.00,1584.00,3697.00,941.00,1782.00,,,,,,,,,,,,0,0,0,,-8,14924,5956,-121,108,-154
11.635,11.40,-0.87,-0.73,-0.33,0.05,-1.94,-3.04,3.67,-2.05,2.35,750.00,1588.00,805.00,1074.00,1354.00,3711.00,855.00,1759.00,,,,,,,,,,,,0,0,0,,-144,15068,5916,-103,173,-146
11.656,11.46,-0.87,-1.57,1.74,-6.62,4.85,-0.92,2.71,-0.10,0.50,681.00,1553.00,629.00,1165.00,1372.00,3501.00,912.00,1711.00,,,,,,,,,,,,0,0,0,,-8,14916,5896,-143,118,-175
11.737,11.51,-0.57,0.68,-0.63,-2.83,5.11,5.19,-3.48,0.61,-0.64,743.00,1514.00,579.00,996.00,1717.00,3247.00,958.00,1716.00,,,,,,,,,,,,0,0,0,,-124,14944,5928,-104,132,-137
11.758,11.57,-0.77,1.95,-2.21,15.17,-11.46,-4.62,2.48,-2.50,1.99,791.00,1502.00,1023.00,762.00,1486.00,4078.00,879.00,1808.00,,,,,,,,,,,,0,0,0,,-116,14928,5756,-65,84,-162
11.84,11.62,-0.94,-1.95,0.84,-9.52,3.33,-4.16,7.10,-0.46,1.31,720.00,1615.00,720.00,1361.00,1148.00,3539.00,879.00,1699.00,,,,,,,,,,,,0,0,0,,-156,14964,5920,-67,102,-170
11.881,11.68,-0.49,-1.38,1.89,-10.94,15.56,8.07,-5.82,2.28,-2.07,673.00,1535.00,381.00,1037.00,1849.00,3084.00,1004.00,1669.00,,,,,,,,,,,,0,0,0,,-132,14892,5864,-104,145,-196
11.923,11.73,-0.68,4.69,-4.80,20.17,-14.86,-4.23,1.75,-2.42,1.37,866.00,1445.00,1123.00,685.00,1535.00,4095.00,908.00,1833.00,,,,,,,,,,,,0,0,0,,-116,14972,5884,-168,167,-153
11.986,11.79,-0.85,-2.01,0.13,-5.59,-0.45,-4.11,4.97,-1.77,2.02,749.00,1650.00,823.00,1290.00,1287.00,3739.00,866.00,1755.00,,,,,,,,,,,,0,0,0,,-144,14912,6032,-125,127,-148
12.046,11.84,-0.68,-2.23,2.04,-7.68,7.72,2.49,-1.00,1.34,-0.91,678.00,1581.00,549.00,1125.00,1577.00,3380.00,959.00,1679.00,,,,,,,,,,,,0,0,0,,-128,14920,6092,-138,106,-158
12.108,11.90,-0.57,2.28,-2.35,4.29,-2.11,1.57,-1.32,-0.47,-0.14,792.00,1488.00,752.00,912.00,1631.00,3535.00,951.00,1767.00,,,,,,,,,,,,0,0,0,,4,14988,6000,-68,161,-177
12.171,11.95,-0.74,-0.37,-0.76,6.84,-5.87,-3.93,2.17,-1.86,1.40,763.00,1584.00,880.00,912.00,1493.00,4003.00,897.00,1791.00,,,,,,,,,,,,0,0,0,,-52,15008,5736,-92,189,-83
12.193,12.01,-0.87,-1.64,0.71,-7.76,2.74,-3.33,5.01,0.04,0.48,721.00,1601.00,720.00,1290.00,1266.00,3622.00,911.00,1703.00,,,,,,,,,,,,0,0,0,,-180,14844,5804,-69,98,-186
12.273,12.06,-0.45,0.01,0.23,-7.13,10.61,7.35,-5.35,1.36,-1.33,718.00,1519.00,465.00,1019.00,1826.00,3133.00,981.00,1697.00,,,,,,,,,,,,0,0,0,,-148,14952,5848,-61,121,-264
12.335,12.12,-0.66,3.18,-3.20,20.05,-14.03,-4.56,2.24,-2.35,1.84,816.00,1469.00,1076.00,673.00,1504.00,4095.00,884.00,1805.00,,,,,,,,,,,,0,0,0,,-172,14964,5876,-80,142,-166
12.376,12.17,-0.85,-2.01,0.60,-9.95,3.05,-4.38,7.45,-1.18,2.21,730.00,1629.00,737.00,1395.00,1131.00,3537.00,848.00,1706.00,,,,,,,,,,,,0,0,0,,-164,14908,6008,-43,158,-118
12.46,12.23,-0.46,-2.04,3.16,-11.26,15.58,6.83,-4.53,3.61,-3.54,636.00,1523.00,383.00,1050.00,1764.00,3130.00,1061.00,1647.00,,,,,,,,,,,,0,0,0,,-128,14884,5944,-97,181,-151
12.482,12.28,-0.43,3.71,-3.67,11.87,-8.55,0.14,-0.22,-0.54,0.19,829.00,1457.00,928.00,803.00,1578.00,3633.00,935.00,1756.00,,,,,,,,,,,,0,0,0,,-48,15000,5784,-104,167,-179
12.542,12.34,-0.54,-0.81,-0.08,-0.09,-1.57,-2.66,3.82,-1.85,2.43,741.00,1582.00,791.00,1069.00,1334.00,3641.00,848.00,1741.00,,,,,,,,,,,,0,0,0,,-216,14968,5788,-119,118,-139
12.604,12.39,-0.53,-1.53,2.11,-6.26,5.27,-0.34,2.44,0.33,0.44,667.00,1535.00,611.00,1136.00,1378.00,3447.00,908.00,1685.00,,,,,,,,,,,,0,0,0,,-68,14924,5768,-105,96,-193
12.667,12.45,-0.23,0.96,-0.77,-2.86,5.57,5.44,-3.41,0.64,-0.50,745.00,1503.00,565.00,985.00,1703.00,3209.00,950.00,1707.00,,,,,,,,,,,,0,0,0,,-100,14920,5792,-94,85,-211
12.729,12.50,-0.44,1.43,-1.63,15.14,-11.17,-4.38,2.61,-2.21,2.02,774.00,1510.00,1008.00,757.00,1470.00,4027.00,873.00,1786.00,,,,,,,,,,,,0,0,0,,-120,14916,5788,-81,81,-186
12.749,12.56,-0.62,-1.83,0.80,-9.35,3.20,-3.96,6.96,-0.23,1.31,720.00,1609.00,723.00,1357.00,1152.00,3523.00,875.00,1683.00,,,,,,,,,,,,0,0,0,,-172,14916,5924,-138,113,-150
12.831,12.61,-0.18,-1.27,1.77,-10.86,15.49,8.19,-5.78,2.22,-1.81,676.00,1533.00,382.00,1036.00,1841.00,3066.00,991.00,1661.00,,,,,,,,,,,,0,0,0,,-148,14904,5956,-120,151,-118
12.872,12.67,-0.38,4.96,-5.15,20.77,-15.10,-4.23,1.75,-2.23,1.44,878.00,1443.00,1125.00,673.00,1535.00,4095.00,901.00,1815.00,,,,,,,,,,,,0,0,0,,-28,14988,5908,-133,146,-138
12.913,12.72,-0.57,-1.97,0.11,-6.38,0.73,-4.15,5.23,-1.71,2.17,749.00,1648.00,783.00,1289.00,1270.00,3719.00,858.00,1744.00,,,,,,,,,,,,0,0,0,,-156,14972,5964,-100,132,-150
12.996,12.78,-0.40,-1.99,1.75,-7.53,7.67,2.88,-1.23,1.35,-0.83,686.00,1579.00,549.00,1120.00,1585.00,3349.00,955.00,1675.00,,,,,,,,,,,,0,0,0,,-92,14884,5960,-54,142,-175
13.037,12.83,-0.29,2.45,-2.47,4.98,-2.76,1.70,-1.37,-0.19,-0.22,795.00,1483.00,769.00,903.00,1632.00,3522.00,950.00,1751.00,,,,,,,,,,,,0,0,0,,-92,15024,5936,-81,143,-134
13.078,12.89,-0.42,0.17,-1.00,6.65,-5.79,-2.87,1.88,-1.49,1.44,765.00,1560.00,879.00,917.00,1487.00,3867.00,889.00,1763.00,,,,,,,,,,,,0,0,0,,-64,14824,5852,-22,76,-179
13.138,12.94,-0.51,-1.08,0.78,-7.33,3.04,-2.15,4.63,0.27,0.68,711.00,1563.00,703.00,1258.00,1265.00,3492.00,897.00,1678.00,,,,,,,,,,,,0,0,0,,-244,14868,5892,-127,76,-184
13.198,13.00,-0.10,0.11,0.43,-6.35,10.38,7.59,-5.26,1.58,-1.56,709.00,1505.00,464.00,994.00,1810.00,3097.00,989.00,1692.00,,,,,,,,,,,,0,0,0,,-108,14964,5880,-87,88,-122
13.239,13.05,-0.30,3.38,-3.27,21.04,-14.14,-4.04,2.26,-2.19,1.89,816.00,1460.00,1063.00,649.00,1488.00,4009.00,879.00,1791.00,,,,,,,,,,,,0,0,0,,-8,14940,5856,-12,118,-122
13.301,13.11,-0.48,-1.86,0.68,-9.79,3.25,-3.91,7.42,-0.81,2.09,725.00,1616.00,727.00,1379.00,1123.00,3474.00,848.00,1687.00,,,,,,,,,,,,0,0,0,,-196,14872,5808,-34,118,-133
13.362,13.16,-0.09,-2.06,3.31,-11.16,15.79,7.23,-4.66,2.89,-2.35,631.00,1518.00,378.00,1040.00,1763.00,3091.00,1008.00,1641.00,,,,,,,,,,,,0,0,0,,-112,15004,5804,-46,78,-170
13.425,13.22,-0.07,3.67,-3.45,10.83,-8.16,0.30,-0.15,-0.39,-0.02,820.00,1451.00,926.00,828.00,1567.00,3603.00,943.00,1755.00,,,,,,,,,,,,0,0,0,,-116,15036,5760,-64,59,-90
13.487,13.27,-0.17,-0.94,0.17,-0.28,-1.39,-2.07,3.74,-1.71,2.37,733.00,1580.00,786.00,1072.00,1325.00,3564.00,849.00,1735.00,,,,,,,,,,,,0,0,0,,-44,14924,5852,-101,65,-173
13.589,13.33,-0.16,-1.53,2.13,-5.72,5.03,0.00,2.39,0.51,0.16,666.00,1534.00,613.00,1119.00,1373.00,3405.00,919.00,1686.00,,,,,,,,,,,,0,0,0,,20,15056,6060,-67,73,-155
13.63,13.38,0.11,0.69,-0.38,-2.32,5.03,5.40,-3.15,0.84,-0.66,733.00,1503.00,576.00,978.00,1680.00,3191.00,955.00,1701.00,,,,,,,,,,,,0,0,0,,-56,14780,5880,-63,63,-157
13.651,13.44,-0.09,1.45,-1.50,14.07,-10.27,-3.93,2.54,-2.27,2.19,768.00,1503.00,979.00,771.00,1463.00,3962.00,866.00,1782.00,,,,,,,,,,,,0,0,0,,-32,15096,5848,2,102,-140
13.692,13.49,-0.26,-2.03,1.10,-9.48,3.50,-3.56,6.97,-0.09,1.24,711.00,1609.00,713.00,1353.00,1143.00,3467.00,876.00,1677.00,,,,,,,,,,,,0,0,0,,-56,14968,5916,-38,125,-241
13.753,13.55,0.19,-1.58,2.21,-10.36,15.23,8.68,-5.90,2.56,-2.02,664.00,1534.00,384.00,1023.00,1837.00,3018.00,996.00,1648.00,,,,,,,,,,,,0,0,0,,-96,14888,6048,-101,412,-88
13.815,13.60,-0.02,4.23,-4.02,21.51,-15.23,-3.99,1.83,-2.26,1.52,837.00,1441.00,1118.00,656.00,1522.00,4048.00,898.00,1814.00,,,,,,,,,,,,0,0,0,,-144,14944,5708,-82,320,36
13.939,13.66,-0.22,-2.56,0.76,-6.13,0.60,-3.88,5.64,-1.51,2.32,731.00,1658.00,785.00,1281.00,1236.00,3639.00,848.00,1723.00,,,,,,,,,,,,0,0,0,,96,14868,5644,-41,-204,129
13.96,13.71,-0.03,-2.41,2.40,-7.65,7.99,3.52,-1.42,1.59,-0.70,667.00,1577.00,541.00,1116.00,1583.00,3282.00,944.00,1653.00,,,,,,,,,,,,0,0,0,,40,15112,6028,-79,-237,-211
13.98,13.77,0.11,2.64,-2.30,6.27,-3.14,2.84,-1.47,0.04,0.03,785.00,1465.00,767.00,867.00,1607.00,3376.00,933.00,1723.00,,,,,,,,,,,,0,0,0,,84,15208,5704,-44,195,-434
14.021,13.82,0.02,0.36,-0.67,7.66,-5.87,-1.79,1.99,-1.17,1.56,749.00,1535.00,867.00,883.00,1450.00,3695.00,878.00,1735.00,,,,,,,,,,,,0,0,0,,88,14936,5680,83,77,-495
14.084,13.88,-0.05,-0.72,0.92,-8.14,5.05,-1.26,4.58,0.72,0.49,701.00,1535.00,640.00,1231.00,1248.00,3376.00,899.00,1657.00,,,,,,,,,,,,0,0,0,,4,14976,5828,-69,115,-405
14.147,13.93,0.37,0.08,0.70,-5.49,10.05,8.21,-5.17,1.87,-1.47,699.00,1496.00,465.00,969.00,1781.00,3015.00,979.00,1669.00,,,,,,,,,,,,0,0,0,,-32,15104,5812,-42,72,-608
14.189,13.99,0.17,3.33,-3.09,20.55,-13.87,-3.65,2.47,-2.08,2.06,809.00,1456.00,1057.00,657.00,1461.00,3926.00,869.00,1775.00,,,,,,,,,,,,0,0,0,,-308,15184,5936,0,286,-707
14.313,14.04,-0.02,-1.95,0.81,-9.27,3.00,-3.62,7.59,-0.71,2.32,721.00,1616.00,730.00,1360.00,1107.00,3419.00,836.00,1670.00,,,,,,,,,,,,0,0,0,,-460,14820,5672,-58,248,-460
14.355,14.10,0.37,-2.27,3.62,-11.10,16.31,7.78,-4.72,3.09,-2.23,623.00,1518.00,367.00,1023.00,1751.00,3029.00,998.00,1623.00,,,,,,,,,,,,0,0,0,,-500,14968,5876,74,358,-154
14.376,14.15,0.38,3.74,-3.43,12.74,-8.94,0.69,-0.22,-0.48,0.31,818.00,1446.00,933.00,784.00,1562.00,3554.00,928.00,1746.00,,,,,,,,,,,,0,0,0,,-488,15192,5588,9,563,-375
14.418,14.21,0.26,-1.06,0.03,-0.32,-1.33,-2.00,3.94,-1.54,2.38,740.00,1593.00,784.00,1072.00,1309.00,3535.00,846.00,1723.00,,,,,,,,,,,,0,0,0,,-532,14824,5308,-96,-106,-371
14.459,14.26,0.28,-1.70,2.36,-6.31,5.87,0.49,2.17,0.61,0.16,660.00,1535.00,592.00,1120.00,1377.00,3360.00,917.00,1679.00,,,,,,,,,,,,0,0,0,,-540,14720,5828,-206,-145,93
14.523,14.32,0.53,0.26,-0.14,-2.18,5.02,5.37,-2.92,0.83,-0.43,729.00,1519.00,575.00,973.00,1660.00,3175.00,943.00,1691.00,,,,,,,,,,,,0,0,0,,-8,15116,5716,-357,104,105
14.583,14.37,0.31,1.10,-1.36,13.95,-9.95,-3.80,2.59,-2.27,2.12,767.00,1518.00,964.00,768.00,1456.00,3937.00,869.00,1785.00,,,,,,,,,,,,0,0,0,,-188,15140,5732,-270,23,-22
14.645,14.43,0.13,-2.28,1.23,-9.46,3.55,-3.37,6.83,0.02,1.16,709.00,1619.00,711.00,1350.00,1148.00,3455.00,878.00,1673.00,,,,,,,,,,,,0,0,0,,-36,14968,5812,-204,39,-53
14.686,14.48,0.55,-1.54,2.25,-10.84,15.92,8.46,-5.70,2.30,-1.84,662.00,1530.00,373.00,1023.00,1824.00,3027.00,991.00,1657.00,,,,,,,,,,,,0,0,0,,-88,15032,5700,-324,142,210
14.726,14.54,0.35,4.57,-4.38,21.35,-14.99,-3.42,1.70,-2.30,1.67,848.00,1435.00,1107.00,656.00,1517.00,3972.00,891.00,1809.00,,,,,,,,,,,,0,0,0,,276,14976,5908,-714,-56,206
14.788,14.59,0.19,-2.54,0.96,-6.50,1.18,-2.85,5.67,-1.60,2.64,723.00,1648.00,766.00,1280.00,1211.00,3491.00,835.00,1715.00,,,,,,,,,,,,0,0,0,,92,15168,6328,-320,133,-343
14.85,14.65,0.41,-1.59,2.32,-6.76,8.17,4.56,-1.54,1.86,-0.85,660.00,1530.00,527.00,1072.00,1563.00,3159.00,947.00,1642.00,,,,,,,,,,,,0,0,0,,32,15064,5900,-223,-125,-542
14.931,14.70,0.55,3.48,-2.56,7.72,-3.66,3.32,-1.35,0.15,-0.12,784.00,1427.00,768.00,830.00,1583.00,3302.00,939.00,1723.00,,,,,,,,,,,,0,0,0,,-32,14872,5688,-162,-645,-464
14.951,14.76,0.47,0.59,-0.65,7.79,-5.73,-1.07,1.91,-1.21,1.54,745.00,1520.00,858.00,875.00,1437.00,3599.00,880.00,1739.00,,,,,,,,,,,,0,0,0,,-144,14908,6168,-433,-784,-442
15.033,14.81,0.40,-0.74,0.95,-6.16,3.04,-0.92,4.54,0.40,0.81,700.00,1535.00,688.00,1201.00,1243.00,3334.00,889.00,1664.00,,,,,,,,,,,,0,0,0,,-60,15048,6244,-353,-515,-569
15.053,14.87,0.80,0.27,0.64,-5.04,9.98,8.29,-5.15,1.54,-1.30,699.00,1487.00,463.00,954.00,1776.00,3003.00,976.00,1683.00,,,,,,,,,,,,0,0,0,,-296,14748,6044,110,-191,-491
15.116,14.92,0.60,3.05,-2.72,20.71,-13.87,-3.21,2.38,-2.16,2.15,797.00,1458.00,1054.00,653.00,1457.00,3869.00,866.00,1776.00,,,,,,,,,,,,0,0,0,,-436,14824,6208,-241,-175,-724
15.177,14.98,0.40,-1.59,0.62,-9.23,3.24,-3.35,7.58,-0.81,2.22,724.00,1602.00,720.00,1349.00,1102.00,3383.00,842.00,1681.00,,,,,,,,,,,,0,0,0,,-440,14576,6076,-295,-100,-224
15.239,15.03,0.78,-2.06,3.31,-12.08,17.26,8.10,-5.08,2.99,-2.39,631.00,1518.00,355.00,1037.00,1776.00,3021.00,1008.00,1636.00,,,,,,,,,,,,0,0,0,,-336,14848,6304,-142,-4,75
15.28,15.09,0.74,4.12,-3.92,14.16,-9.83,-0.07,0.36,-1.05,0.62,834.00,1443.00,954.00,759.00,1535.00,3607.00,922.00,1771.00,,,,,,,,,,,,0,0,0,,-20,14864,5928,-181,82,-12
15.34,15.14,0.60,-0.99,-0.14,-1.07,-1.29,-2.13,4.17,-1.69,2.36,746.00,1596.00,793.00,1103.00,1296.00,3532.00,849.00,1734.00,,,,,,,,,,,,0,0,0,,96,15060,5808,148,-909,-450
15.402,15.20,0.61,-1.79,2.50,-6.88,6.34,0.91,1.69,0.72,-0.11,656.00,1535.00,583.00,1131.00,1403.00,3348.00,929.00,1684.00,,,,,,,,,,,,0,0,0,,-356,15152,6276,-88,-340,-540
15.465,15.25,0.83,0.66,-0.77,-1.63,3.86,5.01,-2.79,0.30,-0.58,749.00,1521.00,606.00,982.00,1659.00,3209.00,960.00,1734.00,,,,,,,,,,,,0,0,0,,-500,14472,6240,-13,131,-649
15.526,15.31,0.60,0.82,-1.34,12.42,-9.36,-3.80,2.55,-2.50,1.97,770.00,1534.00,960.00,803.00,1459.00,3942.00,880.00,1809.00,,,,,,,,,,,,0,0,0,,-200,14728,5612,-170,376,-195
15.567,15.36,0.43,-1.62,0.70,-9.31,3.55,-2.85,6.59,-0.37,1.21,721.00,1600.00,709.00,1342.00,1152.00,3406.00,882.00,1697.00,,,,,,,,,,,,0,0,0,,-132,14988,5688,-326,26,123
15.629,15.42,0.87,-0.90,1.70,-9.82,15.38,9.25,-5.73,2.08,-1.80,674.00,1514.00,377.00,997.00,1801.00,2937.00,993.00,1670.00,,,,,,,,,,,,0,0,0,,-16,15048,6268,-534,-38,-42
15.669,15.47,0.68,4.69,-4.00,23.91,-15.57,-2.99,2.02,-2.62,1.64,829.00,1414.00,1090.00,602.00,1479.00,3871.00,898.00,1834.00,,,,,,,,,,,,0,0,0,,-148,14756,6268,-257,223,-392
15.73,15.53,0.51,-1.92,0.47,-6.97,1.75,-2.65,6.27,-1.73,2.55,734.00,1629.00,749.00,1284.00,1168.00,3408.00,841.00,1728.00,,,,,,,,,,,,0,0,0,,-328,14632,6212,-183,128,-273
15.812,15.58,0.74,-1.35,2.05,-8.11,10.58,5.18,-1.81,1.82,-1.39,667.00,1527.00,474.00,1060.00,1569.00,3106.00,976.00,1669.00,,,,,,,,,,,,0,0,0,,-144,14952,6020,-102,157,-145
15.833,15.64,0.85,3.82,-3.00,8.56,-4.04,2.83,-0.62,-0.18,-0.09,798.00,1425.00,772.00,811.00,1535.00,3301.00,943.00,1744.00,,,,,,,,,,,,0,0,0,,-296,14788,6508,-271,428,-243
15.895,15.69,0.77,0.36,-0.67,6.26,-4.93,-0.65,1.95,-1.51,1.64,749.00,1535.00,845.00,910.00,1423.00,3536.00,880.00,1755.00,,,,,,,,,,,,0,0,0,,-300,14792,6036,-154,532,-177
15.937,15.75,0.70,-0.45,0.64,-6.11,3.16,-0.65,4.42,0.15,0.68,708.00,1530.00,683.00,1195.00,1245.00,3309.00,899.00,1686.00,,,,,,,,,,,,0,0,0,,-304,14804,6016,-112,95,-70
15.997,15.80,1.08,0.73,-0.07,-5.07,9.56,8.33,-5.15,1.33,-1.51,720.00,1488.00,474.00,966.00,1775.00,2999.00,991.00,1707.00,,,,,,,,,,,,0,0,0,,-176,14892,6252,3,131,-113
16.059,15.86,0.87,2.69,-2.55,20.88,-13.79,-3.14,2.30,-2.34,1.92,795.00,1472.00,1046.00,647.00,1461.00,3865.00,880.00,1800.00,,,,,,,,,,,,0,0,0,,-276,14812,6008,-139,373,89
16.141,15.91,0.65,-1.33,0.22,-9.23,3.24,-3.53,7.71,-0.95,1.98,736.00,1602.00,720.00,1349.00,1098.00,3396.00,855.00,1701.00,,,,,,,,,,,,0,0,0,,-176,14920,5968,-274,139,-3
16.161,15.97,1.05,-1.80,2.76,-11.53,17.02,8.57,-5.46,2.75,-2.41,647.00,1525.00,356.00,1021.00,1797.00,2995.00,1014.00,1653.00,,,,,,,,,,,,0,0,0,,-124,15016,6336,-124,175,-273
16.243,16.02,0.96,5.02,-4.94,15.82,-11.07,-0.67,0.56,-1.40,0.56,867.00,1431.00,990.00,735.00,1535.00,3673.00,931.00,1799.00,,,,,,,,,,,,0,0,0,,-336,14760,6164,-80,252,-245
16.284,16.08,0.81,-0.91,-0.59,-1.65,-1.23,-2.07,4.14,-1.86,2.22,763.00,1610.00,799.00,1127.00,1297.00,3527.00,858.00,1752.00,,,,,,,,,,,,0,0,0,,-272,14640,6260,18,116,-72
16.345,16.13,0.85,-1.88,2.14,-6.84,6.75,1.66,1.01,1.00,-0.56,670.00,1555.00,570.00,1117.00,1436.00,3310.00,947.00,1686.00,,,,,,,,,,,,0,0,0,,-96,14888,6000,9,174,-214
16.387,16.19,1.07,0.72,-0.34,-0.93,3.06,5.25,-2.68,0.22,-0.38,731.00,1500.00,625.00,976.00,1642.00,3170.00,951.00,1730.00,,,,,,,,,,,,0,0,0,,-288,14684,6168,-193,239,-279
16.449,16.24,0.89,1.21,-1.30,12.23,-8.47,-2.65,2.37,-2.08,1.83,763.00,1509.00,918.00,790.00,1443.00,3785.00,880.00,1786.00,,,,,,,,,,,,0,0,0,,-280,14708,6000,-205,298,-94
16.51,16.30,0.75,-1.26,0.71,-8.66,3.70,-1.83,5.95,0.12,0.82,716.00,1577.00,695.00,1303.00,1171.00,3328.00,893.00,1682.00,,,,,,,,,,,,0,0,0,,-192,14948,6120,-158,239,-158
16.573,16.35,1.18,-0.32,1.51,-8.71,14.57,9.26,-5.64,2.08,-1.77,674.00,1487.00,386.00,975.00,1792.00,2928.00,991.00,1668.00,,,,,,,,,,,,0,0,0,,-268,14888,5996,-273,185,-107
16.632,16.41,0.96,4.41,-3.61,23.07,-14.87,-3.22,2.20,-2.62,1.78,816.00,1415.00,1066.00,611.00,1471.00,3888.00,891.00,1827.00,,,,,,,,,,,,0,0,0,,-20,14888,6212,-434,294,-77
16.653,16.46,0.76,-1.87,0.41,-7.59,2.03,-3.00,6.80,-1.60,2.57,736.00,1629.00,746.00,1306.00,1142.00,3407.00,838.00,1718.00,,,,,,,,,,,,0,0,0,,-56,14932,6228,-511,-39,-347
16.715,16.52,0.99,-1.96,2.99,-8.61,11.38,5.48,-2.39,1.54,-1.19,641.00,1525.00,458.00,1058.00,1610.00,3117.00,970.00,1678.00,,,,,,,,,,,,0,0,0,,-212,14832,6376,-205,-332,-421
16.775,16.57,1.05,3.54,-2.93,9.71,-5.31,2.15,-0.38,-0.60,0.25,799.00,1438.00,810.00,802.00,1534.00,3369.00,933.00,1757.00,,,,,,,,,,,,0,0,0,,-236,14676,6344,-131,226,-286
16.856,16.63,0.95,-0.11,-0.59,4.13,-3.59,-1.00,2.47,-1.71,1.83,752.00,1560.00,817.00,955.00,1392.00,3535.00,874.00,1760.00,,,,,,,,,,,,0,0,0,,-368,14748,6344,-182,215,-414
16.876,16.68,0.89,-0.42,0.48,-5.27,2.77,-0.30,3.73,0.06,0.45,714.00,1535.00,687.00,1168.00,1284.00,3325.00,912.00,1703.00,,,,,,,,,,,,0,0,0,,-312,14900,6444,-155,164,-379
16.938,16.74,1.22,0.72,-0.44,-3.75,7.30,7.59,-4.81,0.93,-1.38,735.00,1504.00,523.00,974.00,1766.00,3059.00,991.00,1728.00,,,,,,,,,,,,0,0,0,,-412,14748,6512,-178,440,-355
17.019,16.79,0.99,2.31,-2.84,17.83,-12.64,-3.53,2.61,-2.54,1.98,813.00,1506.00,1039.00,708.00,1447.00,3893.00,880.00,1811.00,,,,,,,,,,,,0,0,0,,-308,14868,6176,-85,-79,-357
17.039,16.85,0.75,-1.64,0.40,-9.15,3.21,-3.63,7.66,-1.14,1.87,733.00,1614.00,720.00,1346.00,1103.00,3414.00,863.00,1719.00,,,,,,,,,,,,0,0,0,,-536,14804,6456,90,-111,-327
17.102,16.90,1.15,-1.87,2.61,-11.14,16.47,8.72,-5.81,2.77,-2.80,653.00,1535.00,364.00,1020.00,1826.00,3005.00,1035.00,1669.00,,,,,,,,,,,,0,0,0,,-368,14676,5944,226,223,-275
17.164,16.96,1.02,4.55,-4.65,18.29,-13.00,-1.57,0.87,-1.58,0.82,861.00,1447.00,1051.00,702.00,1534.00,3775.00,921.00,1799.00,,,,,,,,,,,,0,0,0,,-444,14776,6128,-19,-110,-392
17.246,17.01,0.87,-0.86,-0.79,-2.63,-1.16,-1.98,4.19,-1.82,1.95,771.00,1616.00,810.00,1169.00,1291.00,3509.00,870.00,1762.00,,,,,,,,,,,,0,0,0,,-672,14508,6448,-278,416,-51
17.266,17.07,0.96,-1.62,2.25,-6.70,7.46,2.81,0.27,1.12,-0.54,663.00,1535.00,547.00,1090.00,1463.00,3225.00,944.00,1677.00,,,,,,,,,,,,0,0,0,,-448,14696,6376,-317,574,230
17.327,17.12,1.16,2.42,-2.32,1.35,1.34,4.80,-2.23,0.15,-0.28,789.00,1479.00,658.00,934.00,1616.00,3188.00,947.00,1730.00,,,,,,,,,,,,0,0,0,,-340,14920,6440,126,814,101
17.368,17.18,0.99,1.00,-1.01,11.01,-7.47,-2.07,2.35,-2.04,1.77,754.00,1510.00,889.00,807.00,1429.00,3700.00,882.00,1786.00,,,,,,,,,,,,0,0,0,,-320,14984,6088,-354,532,-233
17.431,17.23,0.86,-1.33,0.78,-8.68,3.92,-1.68,5.49,0.09,0.66,714.00,1578.00,687.00,1296.00,1197.00,3349.00,901.00,1691.00,,,,,,,,,,,,0,0,0,,-356,14912,6252,-85,290,-122
17.513,17.29,1.27,0.09,0.86,-8.33,13.79,8.99,-5.57,1.62,-1.68,693.00,1489.00,400.00,981.00,1794.00,2954.00,995.00,1695.00,,,,,,,,,,,,0,0,0,,-296,14476,6152,-86,325,-133
17.533,17.34,1.03,3.82,-3.35,22.29,-14.46,-3.43,2.07,-2.64,1.77,813.00,1438.00,1057.00,623.00,1487.00,3934.00,892.00,1829.00,,,,,,,,,,,,0,0,0,,-384,14692,6280,-353,130,-279
17.614,17.40,0.79,-1.97,0.17,-9.11,2.82,-3.92,7.42,-1.85,2.43,747.00,1646.00,735.00,1358.00,1123.00,3475.00,848.00,1741.00,,,,,,,,,,,,0,0,0,,-236,14980,6372,-521,41,-11
17.655,17.45,1.04,-2.32,3.28,-10.07,13.65,5.91,-3.22,1.49,-1.62,635.00,1535.00,416.00,1055.00,1671.00,3134.00,994.00,1701.00,,,,,,,,,,,,0,0,0,,-500,14836,6724,-88,264,-405
17.716,17.51,1.06,3.39,-3.20,10.32,-6.45,1.36,-0.34,-0.96,0.16,813.00,1457.00,852.00,807.00,1553.00,3472.00,944.00,1787.00,,,,,,,,,,,,0,0,0,,-608,14572,6200,-132,64,48
17.758,17.56,0.90,-0.36,-0.57,2.18,-2.55,-2.14,3.34,-2.41,2.22,755.00,1575.00,800.00,1003.00,1356.00,3613.00,867.00,1791.00,,,,,,,,,,,,0,0,0,,-432,14608,6556,415,-61,-169
17.82,17.62,0.82,-0.78,0.57,-5.21,2.97,-0.75,3.47,-0.31,0.47,715.00,1553.00,679.00,1159.00,1313.00,3408.00,917.00,1727.00,,,,,,,,,,,,0,0,0,,-428,14708,6228,75,394,82
17.861,17.67,1.08,0.27,-0.54,-3.30,6.25,6.07,-3.76,0.40,-0.92,745.00,1535.00,549.00,984.00,1715.00,3159.00,976.00,1743.00,,,,,,,,,,,,0,0,0,,-368,15028,5976,-209,118,-203
17.923,17.73,0.81,2.07,-2.82,15.92,-11.92,-4.30,2.56,-2.96,1.98,816.00,1520.00,1035.00,749.00,1471.00,4018.00,887.00,1842.00,,,,,,,,,,,,0,0,0,,-484,14928,6320,-116,92,-333
17.985,17.78,0.57,-2.01,0.60,-9.45,3.26,-4.06,7.14,-1.15,1.37,730.00,1629.00,722.00,1360.00,1143.00,3520.00,887.00,1743.00,,,,,,,,,,,,0,0,0,,-520,14408,6296,-142,83,-383
18.027,17.84,0.95,-1.67,2.32,-11.92,16.59,8.28,-5.97,2.19,-2.69,661.00,1535.00,367.00,1049.00,1857.00,3071.00,1040.00,1703.00,,,,,,,,,,,,0,0,0,,-400,14564,6224,-40,-257,94
18.089,17.89,0.77,4.90,-4.83,19.81,-14.00,-2.63,1.22,-2.69,1.19,864.00,1434.00,1079.00,679.00,1535.00,3900.00,921.00,1861.00,,,,,,,,,,,,0,0,0,,-556,14824,6704,150,-755,368
18.148,17.95,0.61,-1.57,0.25,-4.53,0.18,-2.40,4.48,-2.17,1.80,738.00,1616.00,780.00,1216.00,1281.00,3541.00,883.00,1794.00,,,,,,,,,,,,0,0,0,,-488,14864,6592,656,-212,-31
18.21,18.00,0.75,-1.51,2.13,-6.28,7.45,3.39,-0.55,1.13,-0.95,666.00,1533.00,543.00,1072.00,1514.00,3223.00,965.00,1695.00,,,,,,,,,,,,0,0,0,,-312,14704,5948,468,398,-134
18.291,18.06,0.89,2.84,-2.13,4.55,-1.17,3.43,-1.25,-0.27,-0.44,775.00,1447.00,711.00,880.00,1571.00,3278.00,963.00,1767.00,,,,,,,,,,,,0,0,0,,-308,14800,5748,301,481,-259
18.393,18.11,0.74,0.70,-0.81,9.15,-6.57,-1.98,2.20,-1.97,1.32,750.00,1520.00,876.00,848.00,1438.00,3702.00,903.00,1803.00,,,,,,,,,,,,0,0,0,,-392,14800,5856,60,361,-155
18.414,18.17,0.62,-0.98,0.85,-7.40,3.33,-1.79,5.07,-0.16,0.46,707.00,1554.00,693.00,1252.00,1227.00,3402.00,915.00,1717.00,,,,,,,,,,,,0,0,0,,-204,14924,5852,-48,227,-307
18.435,18.22,0.99,0.22,0.39,-6.57,10.82,8.13,-5.25,1.33,-1.86,709.00,1500.00,455.00,991.00,1791.00,3030.00,1010.00,1723.00,,,,,,,,,,,,0,0,0,,-300,14844,5912,-13,201,-262
18.475,18.28,0.75,3.25,-2.97,20.78,-14.03,-3.86,2.24,-2.76,1.73,805.00,1456.00,1062.00,654.00,1485.00,3984.00,896.00,1840.00,,,,,,,,,,,,0,0,0,,-172,15016,5992,-143,197,-273
18.538,18.33,0.50,-2.33,0.79,-8.95,2.66,-4.19,7.56,-1.71,2.19,727.00,1642.00,739.00,1355.00,1120.00,3499.00,857.00,1743.00,,,,,,,,,,,,0,0,0,,-288,14864,5880,82,86,-443
18.598,18.39,0.81,-2.67,3.84,-11.11,15.14,6.62,-4.15,1.99,-2.23,620.00,1533.00,391.00,1056.00,1734.00,3123.00,1018.00,1695.00,,,,,,,,,,,,0,0,0,,-376,14788,5968,109,21,-183
18.639,18.44,0.77,3.39,-3.56,11.15,-8.12,-0.04,0.06,-1.09,-0.11,829.00,1471.00,919.00,817.00,1559.00,3631.00,960.00,1809.00,,,,,,,,,,,,0,0,0,,-272,15012,5968,-117,-156,-339
18.722,18.50,0.58,-1.19,-0.07,-0.49,-1.53,-2.94,3.99,-2.54,2.22,746.00,1606.00,795.00,1085.00,1328.00,3664.00,869.00,1800.00,,,,,,,,,,,,0,0,0,,-428,14660,5884,201,-318,-313
18.742,18.55,0.51,-2.06,2.18,-6.61,4.94,-0.79,2.63,-0.37,0.14,671.00,1565.00,626.00,1162.00,1375.00,3491.00,935.00,1747.00,,,,,,,,,,,,0,0,0,,-264,14872,6108,-92,-266,96
18.824,18.61,0.72,0.61,-0.75,-3.23,5.18,4.73,-2.98,-0.60,-0.14,749.00,1523.00,581.00,1010.00,1685.00,3262.00,953.00,1776.00,,,,,,,,,,,,0,0,0,,-436,14920,6116,-256,214,-68
18.866,18.66,0.44,0.34,-1.46,13.08,-10.15,-4.91,2.76,-3.15,1.86,782.00,1569.00,990.00,799.00,1472.00,4095.00,896.00,1862.00,,,,,,,,,,,,0,0,0,,-396,15028,5860,-234,351,134
18.928,18.72,0.21,-2.11,0.64,-9.59,3.03,-4.12,6.91,-1.40,1.23,730.00,1634.00,733.00,1376.00,1159.00,3551.00,898.00,1767.00,,,,,,,,,,,,0,0,0,,-356,14976,5900,-81,-85,-184
19.01,18.77,0.61,-1.18,1.80,-10.81,15.38,8.19,-5.50,1.67,-2.12,674.00,1527.00,384.00,1037.00,1813.00,3043.00,1018.00,1712.00,,,,,,,,,,,,0,0,0,,-324,14568,6056,44,-35,-192
19.031,18.83,0.38,5.46,-5.40,21.63,-15.12,-4.03,2.04,-2.86,1.13,882.00,1424.00,1109.00,651.00,1506.00,4032.00,927.00,1877.00,,,,,,,,,,,,0,0,0,,-464,14824,5928,-222,73,-153
19.092,18.88,0.19,-1.94,0.23,-4.81,-1.29,-3.43,5.80,-2.08,2.23,744.00,1641.00,849.00,1279.00,1215.00,3559.00,861.00,1767.00,,,,,,,,,,,,0,0,0,,-320,15016,5952,-259,-60,-77
19.134,18.94,0.37,-1.89,2.23,-7.58,8.41,3.79,-1.23,1.08,-1.13,667.00,1552.00,528.00,1100.00,1559.00,3230.00,975.00,1706.00,,,,,,,,,,,,0,0,0,,-304,14884,6168,7,88,-232
19.195,18.99,0.46,3.23,-2.80,7.04,-3.45,2.08,-0.84,-0.52,-0.30,798.00,1451.00,769.00,848.00,1575.00,3421.00,960.00,1778.00,,,,,,,,,,,,0,0,0,,-208,14704,6128,-217,304,-99
19.257,19.05,0.32,0.44,-0.79,6.36,-5.16,-2.21,2.27,-1.37,1.05,753.00,1535.00,854.00,912.00,1439.00,3729.00,906.00,1773.00,,,,,,,,,,,,0,0,0,,-268,14868,5960,-352,232,91
19.318,19.10,0.22,-0.40,0.44,-6.53,2.80,-1.81,4.54,-0.27,0.50,715.00,1535.00,702.00,1227.00,1263.00,3453.00,915.00,1723.00,,,,,,,,,,,,0,0,0,,-200,14892,6164,-277,157,-97
19.379,19.16,0.57,-0.03,0.32,-5.51,9.40,7.30,-4.93,1.28,-1.81,715.00,1518.00,482.00,987.00,1787.00,3105.00,1008.00,1724.00,,,,,,,,,,,,0,0,0,,-268,14928,6276,-140,361,-70
19.44,19.21,0.31,2.78,-2.84,19.07,-13.41,-4.68,2.67,-2.73,1.78,806.00,1478.00,1059.00,688.00,1473.00,4068.00,893.00,1835.00,,,,,,,,,,,,0,0,0,,-264,14832,5832,-277,175,-109
19.462,19.27,0.06,-1.97,0.59,-9.69,2.91,-4.65,7.69,-1.43,1.93,730.00,1627.00,739.00,1386.00,1122.00,3552.00,865.00,1736.00,,,,,,,,,,,,0,0,0,,-264,14932,6252,-54,72,18
19.523,19.32,0.43,-2.12,2.98,-11.80,15.95,7.45,-5.21,2.51,-2.73,643.00,1535.00,379.00,1062.00,1809.00,3109.00,1036.00,1683.00,,,,,,,,,,,,0,0,0,,-216,14964,6280,-217,286,-110
19.606,19.38,0.31,4.69,-5.14,14.06,-10.55,-1.87,0.59,-1.61,0.34,882.00,1458.00,994.00,777.00,1566.00,3849.00,946.00,1825.00,,,,,,,,,,,,0,0,0,,-200,14952,6064,-52,93,-228
19.666,19.43,0.12,-1.18,-0.66,-2.19,-1.33,-3.55,4.33,-1.99,1.84,770.00,1631.00,811.00,1154.00,1319.00,3721.00,878.00,1779.00,,,,,,,,,,,,0,0,0,,-304,14884,6168,75,-77,-200
19.688,19.49,0.12,-2.45,2.25,-7.26,6.13,0.04,1.31,0.53,-0.48,673.00,1586.00,594.00,1155.00,1455.00,3501.00,951.00,1714.00,,,,,,,,,,,,0,0,0,,-208,14884,6052,204,174,-237
19.748,19.54,0.28,0.36,-1.11,-2.88,3.57,3.31,-2.19,-0.14,-0.53,767.00,1553.00,630.00,1040.00,1657.00,3378.00,965.00,1762.00,,,,,,,,,,,,0,0,0,,-224,14876,5712,162,83,-334
19.811,19.60,0.04,0.42,-0.76,11.02,-8.62,-4.42,2.51,-2.46,1.64,752.00,1535.00,946.00,832.00,1479.00,4044.00,895.00,1822.00,,,,,,,,,,,,0,0,0,,-216,14864,5784,39,-29,-280
19.852,19.65,-0.14,-1.75,0.77,-9.47,3.68,-3.55,6.43,-0.31,0.80,720.00,1605.00,706.00,1346.00,1177.00,3517.00,901.00,1712.00,,,,,,,,,,,,0,0,0,,-172,14880,6192,-318,123,-385
19.914,19.71,0.26,-0.83,1.57,-9.28,14.06,7.90,-5.35,1.90,-2.00,678.00,1515.00,401.00,1011.00,1808.00,3066.00,1007.00,1691.00,,,,,,,,,,,,0,0,0,,-372,14860,5952,-153,124,-284
19.956,19.76,0.02,3.95,-3.46,21.08,-14.53,-4.61,2.32,-2.73,1.53,816.00,1435.00,1085.00,655.00,1499.00,4095.00,905.00,1847.00,,,,,,,,,,,,0,0,0,,-380,14968,6092,31,149,-221
20.017,19.82,-0.19,-3.33,2.14,-8.47,2.18,-4.25,6.81,-1.79,2.42,688.00,1647.00,752.00,1347.00,1168.00,3579.00,848.00,1738.00,,,,,,,,,,,,0,0,0,,-452,14856,6136,-44,137,-232
20.08,19.87,0.03,-2.02,2.83,-8.83,10.63,4.35,-2.44,1.58,-1.48,647.00,1535.00,479.00,1089.00,1648.00,3264.00,985.00,1689.00,,,,,,,,,,,,0,0,0,,-428,14848,5856,-51,104,-99
20.204,19.93,0.07,2.88,-2.52,8.53,-5.16,0.74,-0.39,-0.70,0.07,791.00,1460.00,821.00,837.00,1575.00,3564.00,944.00,1773.00,,,,,,,,,,,,0,0,0,,-348,14892,5952,76,190,-137
20.224,19.98,-0.09,-0.61,-0.42,3.08,-3.57,-3.10,2.96,-1.82,1.76,752.00,1584.00,832.00,995.00,1409.00,3792.00,879.00,1771.00,,,,,,,,,,,,0,0,0,,-428,14844,6080,-42,414,-92
20.245,20.04,-0.19,-0.89,0.40,-5.85,2.46,-2.09,3.74,0.11,0.43,723.00,1567.00,706.00,1205.00,1326.00,3568.00,912.00,1700.00,,,,,,,,,,,,0,0,0,,-268,15120,5892,293,452,-285
20.287,20.09,0.11,0.65,-0.52,-4.85,7.49,5.88,-4.48,1.23,-1.48,739.00,1511.00,528.00,1012.00,1790.00,3245.00,991.00,1712.00,,,,,,,,,,,,0,0,0,,-444,14812,6024,149,237,-342
20.348,20.15,-0.12,2.26,-2.87,16.24,-12.30,-4.57,2.26,-2.68,1.95,815.00,1510.00,1050.00,747.00,1503.00,4095.00,884.00,1823.00,,,,,,,,,,,,0,0,0,,-484,14912,5760,-122,215,-294
20.409,20.20,-0.38,-2.07,0.60,-9.96,3.15,-5.38,7.44,-0.94,1.51,731.00,1633.00,733.00,1392.00,1152.00,3680.00,877.00,1722.00,,,,,,,,,,,,0,0,0,,-408,14824,5756,-147,98,-176
20.471,20.26,-0.01,-2.41,2.74,-12.74,16.81,7.01,-5.69,2.53,-2.81,655.00,1563.00,368.00,1077.00,1872.00,3205.00,1040.00,1685.00,,,,,,,,,,,,0,0,0,,-460,15020,5828,36,68,-161
20.553,20.31,-0.21,4.43,-4.74,16.52,-12.81,-3.93,1.32,-2.07,0.77,867.00,1457.00,1074.00,749.00,1563.00,4095.00,932.00,1837.00,,,,,,,,,,,,0,0,0,,-388,14944,5788,5,95,-137
20.575,20.37,-0.42,-1.82,-0.37,-4.58,-0.57,-4.37,4.41,-1.86,1.69,767.00,1660.00,813.00,1243.00,1333.00,3835.00,883.00,1777.00,,,,,,,,,,,,0,0,0,,-432,14972,5808,-317,128,-133
20.618,20.42,-0.32,-1.96,1.95,-7.22,6.91,1.44,-0.09,1.28,-0.91,678.00,1568.00,569.00,1129.00,1530.00,3439.00,960.00,1683.00,,,,,,,,,,,,0,0,0,,-400,14860,5940,-274,31,-59
20.678,20.48,-0.16,2.18,-2.19,1.37,0.24,2.92,-1.88,0.13,-0.52,787.00,1488.00,698.00,961.00,1641.00,3403.00,960.00,1743.00,,,,,,,,,,,,0,0,0,,-428,14896,6048,-3,43,-31
20.74,20.53,-0.33,0.70,-1.17,9.02,-6.94,-3.44,2.22,-1.86,1.48,765.00,1535.00,896.00,861.00,1475.00,3919.00,893.00,1787.00,,,,,,,,,,,,0,0,0,,-408,15028,5876,-101,23,-60
20.803,20.59,-0.45,-1.64,0.73,-8.76,3.13,-2.86,5.20,0.11,0.43,720.00,1600.00,718.00,1328.00,1242.00,3536.00,912.00,1700.00,,,,,,,,,,,,0,0,0,,-400,14900,5804,-161,-28,-39
20.863,20.64,-0.06,-0.43,0.95,-8.29,12.36,7.37,-5.18,1.73,-1.79,696.00,1516.00,432.00,1018.00,1809.00,3117.00,999.00,1693.00,,,,,,,,,,,,0,0,0,,-356,14948,5920,-41,27,23
20.968,20.70,-0.28,3.12,-3.18,20.53,-14.17,-4.42,2.04,-2.55,1.65,816.00,1472.00,1075.00,663.00,1517.00,4095.00,896.00,1828.00,,,,,,,,,,,,0,0,0,,-424,14912,5788,-97,62,9
20.988,20.75,-0.50,-2.53,0.58,-10.23,3.12,-4.75,7.15,-1.52,2.30,738.00,1664.00,738.00,1408.00,1157.00,3617.00,849.00,1725.00,,,,,,,,,,,,0,0,0,,-280,14960,6020,-107,92,17
21.029,20.81,-0.23,-2.32,3.28,-12.02,13.87,5.04,-3.38,1.85,-1.80,635.00,1535.00,426.00,1133.00,1712.00,3257.00,997.00,1685.00,,,,,,,,,,,,0,0,0,,-272,15024,5952,-36,89,-30
21.05,20.86,-0.24,3.20,-3.43,9.26,-6.73,-0.43,-0.06,-0.79,0.10,826.00,1477.00,882.00,848.00,1580.00,3699.00,944.00,1778.00,,,,,,,,,,,,0,0,0,,-344,14968,5756,-31,37,-70
21.111,20.92,-0.40,-0.98,-0.37,0.13,-2.38,-3.53,3.58,-2.27,2.27,755.00,1605.00,823.00,1083.00,1373.00,3793.00,862.00,1778.00,,,,,,,,,,,,0,0,0,,-420,15012,5788,-47,45,-67
21.171,20.97,-0.48,-1.58,1.18,-6.10,3.46,-2.03,3.21,-0.26,0.45,702.00,1577.00,672.00,1185.00,1363.00,3610.00,917.00,1724.00,,,,,,,,,,,,0,0,0,,-172,14888,5900,-179,81,-69
21.274,21.03,-0.24,0.29,-0.57,-3.82,5.57,4.46,-3.26,0.46,-1.01,746.00,1535.00,575.00,1023.00,1719.00,3322.00,980.00,1743.00,,,,,,,,,,,,0,0,0,,-256,15036,5924,-94,102,-92
21.294,21.08,-0.46,1.68,-2.63,13.97,-11.64,-4.70,2.45,-2.89,1.96,813.00,1535.00,1056.00,803.00,1491.00,4095.00,887.00,1838.00,,,,,,,,,,,,0,0,0,,-168,14976,5896,-103,167,-82
21.355,21.14,-0.70,-2.36,0.82,-10.01,2.84,-5.28,7.15,-0.51,1.03,726.00,1642.00,746.00,1406.00,1168.00,3693.00,893.00,1715.00,,,,,,,,,,,,0,0,0,,-264,14932,5968,-124,106,-184
21.396,21.19,-0.28,-1.09,1.47,-11.64,15.61,7.64,-5.64,2.31,-2.32,685.00,1535.00,385.00,1065.00,1846.00,3123.00,1017.00,1678.00,,,,,,,,,,,,0,0,0,,-116,14988,5800,-145,113,-182
21.457,21.25,-0.48,4.75,-4.83,20.10,-14.54,-4.15,1.79,-2.30,1.24,866.00,1442.00,1105.00,681.00,1530.00,4079.00,912.00,1830.00,,,,,,,,,,,,0,0,0,,-256,14924,6008,-38,149,-155
21.539,21.30,-0.64,-1.66,-0.09,-5.69,0.59,-3.72,5.16,-1.71,2.04,753.00,1637.00,779.00,1259.00,1265.00,3664.00,864.00,1750.00,,,,,,,,,,,,0,0,0,,-204,15012,5788,-87,142,-171
21.559,21.36,-0.46,-1.83,2.10,-7.09,7.66,2.86,-0.63,1.52,-0.89,671.00,1554.00,545.00,1101.00,1535.00,3298.00,955.00,1666.00,,,,,,,,,,,,0,0,0,,-168,14964,5888,-116,103,-160
21.66,21.41,-0.33,3.09,-2.74,5.03,-2.29,2.24,-1.29,-0.13,-0.20,797.00,1456.00,749.00,890.00,1609.00,3440.00,948.00,1746.00,,,,,,,,,,,,0,0,0,,-208,14984,5968,-161,137,-163
21.681,21.47,-0.45,0.70,-1.17,7.33,-5.85,-2.86,2.11,-1.68,1.42,765.00,1535.00,871.00,894.00,1469.00,3843.00,893.00,1777.00,,,,,,,,,,,,0,0,0,,-124,14952,5940,-74,178,-142
21.723,21.52,-0.57,-0.94,0.50,-7.46,3.06,-2.72,5.03,0.01,0.69,720.00,1566.00,704.00,1264.00,1251.00,3534.00,901.00,1695.00,,,,,,,,,,,,0,0,0,,-256,14956,5880,-110,149,-129
21.787,21.58,-0.19,-0.01,0.18,-6.49,9.88,6.98,-5.03,1.54,-1.84,720.00,1522.00,478.00,1013.00,1807.00,3153.00,1005.00,1708.00,,,,,,,,,,,,0,0,0,,-160,14960,5908,-81,146,-208
21.827,21.63,-0.41,2.83,-3.08,18.46,-13.31,-4.59,2.29,-2.57,1.95,816.00,1485.00,1065.00,703.00,1501.00,4095.00,882.00,1815.00,,,,,,,,,,,,0,0,0,,-240,14868,5808,-83,2,-211
21.888,21.69,-0.66,-2.07,0.42,-9.92,2.67,-5.31,7.71,-1.33,2.00,738.00,1641.00,752.00,1408.00,1134.00,3643.00,860.00,1726.00,,,,,,,,,,,,0,0,0,,-184,14896,5864,-130,-21,-139
21.952,21.74,-0.33,-2.59,3.14,-11.69,14.92,5.90,-4.47,2.12,-2.22,643.00,1557.00,400.00,1087.00,1788.00,3241.00,1015.00,1686.00,,,,,,,,,,,,0,0,0,,-120,14908,5996,-101,78,-121
22.033,21.80,-0.40,3.37,-3.91,10.68,-8.60,-1.75,0.34,-1.16,0.20,845.00,1486.00,951.00,843.00,1584.00,3856.00,945.00,1799.00,,,,,,,,,,,,0,0,0,,-184,14912,5952,-58,125,-176
22.053,21.85,-0.58,-1.38,-0.57,-1.91,-1.51,-4.03,4.14,-2.34,2.21,769.00,1640.00,815.00,1147.00,1344.00,3811.00,866.00,1786.00,,,,,,,,,,,,0,0,0,,-88,14972,5972,-91,107,-123
22.095,21.91,-0.61,-2.57,2.24,-8.63,5.98,-1.27,2.15,0.17,-0.05,675.00,1594.00,614.00,1224.00,1424.00,3605.00,935.00,1718.00,,,,,,,,,,,,0,0,0,,-192,14972,5988,-101,65,-190
22.156,21.96,-0.38,0.74,-1.04,-3.54,4.72,4.01,-2.68,0.21,-0.45,759.00,1527.00,599.00,1035.00,1680.00,3330.00,955.00,1734.00,,,,,,,,,,,,0,0,0,,-284,15044,5952,-75,108,-179
22.239,22.02,-0.61,1.02,-1.45,12.29,-9.49,-4.82,2.65,-2.71,2.00,772.00,1527.00,969.00,810.00,1478.00,4093.00,882.00,1823.00,,,,,,,,,,,,0,0,0,,-136,14848,5976,-101,150,-198
22.26,22.07,-0.77,-1.72,0.68,-9.18,3.15,-3.84,6.62,-0.29,1.19,723.00,1607.00,723.00,1350.00,1171.00,3539.00,882.00,1693.00,,,,,,,,,,,,0,0,0,,-244,14948,5796,-51,58,-172
22.321,22.13,-0.33,-1.16,1.93,-10.39,14.90,8.01,-5.45,2.01,-1.82,669.00,1520.00,391.00,1033.00,1815.00,3062.00,995.00,1675.00,,,,,,,,,,,,0,0,0,,-152,14764,6008,-71,131,-151
22.404,22.18,-0.54,4.34,-4.08,20.77,-14.53,-4.53,2.20,-2.64,1.56,838.00,1437.00,1091.00,663.00,1507.00,4095.00,902.00,1839.00,,,,,,,,,,,,0,0,0,,-148,14948,5932,-25,174,-220
22.425,22.24,-0.72,-2.18,0.28,-7.67,1.52,-4.26,6.30,-1.92,2.53,745.00,1654.00,768.00,1328.00,1201.00,3630.00,845.00,1742.00,,,,,,,,,,,,0,0,0,,-160,15004,5764,-40,104,-145
22.487,22.29,-0.51,-1.82,1.82,-7.51,8.14,3.60,-1.71,1.25,-0.80,681.00,1565.00,535.00,1105.00,1606.00,3297.00,955.00,1680.00,,,,,,,,,,,,0,0,0,,-260,15008,5928,-6,85,-220
22.549,22.35,-0.42,3.17,-2.92,7.06,-4.14,1.28,-0.76,-0.39,-0.02,804.00,1459.00,798.00,863.00,1591.00,3523.00,943.00,1755.00,,,,,,,,,,,,0,0,0,,-292,14984,5848,-29,72,-278
22.612,22.40,-0.54,-0.35,-0.70,4.20,-4.28,-2.83,2.20,-1.66,1.46,760.00,1580.00,847.00,970.00,1461.00,3829.00,891.00,1774.00,,,,,,,,,,,,0,0,0,,-332,14876,5972,-1,25,-235
22.653,22.46,-0.63,-1.54,0.96,-6.76,2.98,-2.33,4.29,0.00,0.53,710.00,1584.00,698.00,1232.00,1293.00,3550.00,909.00,1703.00,,,,,,,,,,,,0,0,0,,-276,14916,5880,-44,155,-154
22.756,22.51,-0.29,0.00,-0.15,-6.11,8.59,6.25,-4.79,1.06,-1.55,733.00,1535.00,509.00,1033.00,1808.00,3225.00,998.00,1727.00,,,,,,,,,,,,0,0,0,,-212,14856,5716,18,246,-191
22.777,22.57,-0.51,2.05,-2.77,17.45,-12.91,-4.70,2.45,-3.06,2.16,814.00,1519.00,1062.00,724.00,1491.00,4095.00,880.00,1840.00,,,,,,,,,,,,0,0,0,,-184,14936,5752,-6,170,-106
22.84,22.62,-0.75,-2.21,0.47,-10.32,3.08,-5.38,7.70,-1.14,1.90,738.00,1648.00,741.00,1415.00,1136.00,3654.00,862.00,1718.00,,,,,,,,,,,,0,0,0,,-192,15020,5696,47,45,-196
22.881,22.68,-0.34,-1.84,2.58,-11.86,15.83,7.49,-5.47,2.56,-2.51,654.00,1535.00,382.00,1068.00,1834.00,3127.00,1023.00,1670.00,,,,,,,,,,,,0,0,0,,-268,14952,5824,19,68,-203
22.921,22.73,-0.42,4.54,-4.41,15.83,-11.44,-2.02,0.74,-1.72,0.87,850.00,1438.00,1010.00,742.00,1558.00,3856.00,921.00,1807.00,,,,,,,,,,,,0,0,0,,-356,14952,5676,-16,105,-231
22.982,22.79,-0.55,-1.03,-0.49,-2.52,-1.13,-3.07,4.25,-1.82,2.23,761.00,1614.00,807.00,1163.00,1313.00,3659.00,857.00,1749.00,,,,,,,,,,,,0,0,0,,-248,15064,5720,-24,44,-227
23.044,22.84,-0.46,-1.67,2.32,-7.07,7.05,1.37,0.76,0.95,-0.23,661.00,1535.00,563.00,1118.00,1463.00,3370.00,931.00,1674.00,,,,,,,,,,,,0,0,0,,-224,15176,5864,-130,39,-239
23.127,22.90,-0.24,1.04,-1.05,-0.77,2.22,3.82,-2.24,0.22,-0.43,755.00,1509.00,652.00,992.00,1646.00,3315.00,954.00,1733.00,,,,,,,,,,,,0,0,0,,-280,14980,5660,-148,135,-205
23.148,22.95,-0.41,0.66,-1.09,10.16,-7.75,-3.64,2.42,-2.21,1.87,762.00,1534.00,917.00,841.00,1465.00,3930.00,880.00,1793.00,,,,,,,,,,,,0,0,0,,-348,14904,5916,-98,158,-98
23.211,23.01,-0.55,-1.81,0.79,-9.39,3.42,-3.14,5.72,-0.21,0.97,720.00,1608.00,715.00,1351.00,1214.00,3527.00,891.00,1697.00,,,,,,,,,,,,0,0,0,,-208,15028,5668,-37,139,-135
23.253,23.06,-0.14,-0.86,1.15,-9.80,13.96,7.63,-5.42,1.65,-1.67,694.00,1534.00,407.00,1035.00,1824.00,3105.00,994.00,1693.00,,,,,,,,,,,,0,0,0,,-276,14920,5612,-35,69,-186
23.314,23.12,-0.36,3.38,-3.51,20.40,-14.27,-4.50,2.16,-2.96,1.98,827.00,1470.00,1083.00,668.00,1509.00,4095.00,887.00,1842.00,,,,,,,,,,,,0,0,0,,-348,14900,5732,-104,58,-176
23.375,23.17,-0.59,-2.84,0.68,-9.58,2.48,-4.95,6.98,-2.15,2.84,738.00,1680.00,755.00,1396.00,1172.00,3663.00,834.00,1743.00,,,,,,,,,,,,0,0,0,,-204,14960,5732,-74,149,-159
23.436,23.23,-0.35,-3.18,3.51,-10.75,12.39,4.11,-2.84,1.22,-1.45,637.00,1578.00,451.00,1121.00,1691.00,3330.00,990.00,1712.00,,,,,,,,,,,,0,0,0,,-324,14728,5740,-157,133,-236
23.539,23.28,-0.35,2.58,-2.79,8.05,-5.60,-0.33,-0.07,-0.97,0.28,807.00,1488.00,848.00,863.00,1578.00,3686.00,938.00,1782.00,,,,,,,,,,,,0,0,0,,-280,15144,5780,-131,92,-227
23.559,23.34,-0.50,-0.93,-0.38,1.12,-2.82,-3.32,3.15,-2.38,2.38,755.00,1603.00,828.00,1054.00,1400.00,3805.00,859.00,1781.00,,,,,,,,,,,,0,0,0,,-236,15032,5852,-53,146,-110
23.6,23.39,-0.54,-0.77,0.44,-5.65,2.47,-1.30,3.35,-0.24,0.67,720.00,1558.00,703.00,1195.00,1335.00,3495.00,906.00,1713.00,,,,,,,,,,,,0,0,0,,-144,15044,5704,-64,147,-216
23.663,23.45,-0.21,0.41,-0.36,-3.99,7.31,6.04,-4.00,0.67,-0.95,736.00,1519.00,525.00,983.00,1739.00,3183.00,973.00,1726.00,,,,,,,,,,,,0,0,0,,-356,15000,5816,-72,85,-200
23.746,23.50,-0.42,2.21,-2.65,16.01,-12.01,-4.36,2.55,-2.41,2.05,806.00,1504.00,1038.00,748.00,1474.00,4030.00,875.00,1799.00,,,,,,,,,,,,0,0,0,,-240,15076,5588,-119,78,-139
23.767,23.56,-0.60,-1.79,0.63,-9.47,3.24,-4.02,7.26,-0.70,1.68,726.00,1614.00,723.00,1362.00,1135.00,3504.00,865.00,1698.00,,,,,,,,,,,,0,0,0,,-344,15012,5800,-135,215,-172
23.828,23.61,-0.15,-1.69,2.47,-11.91,16.79,8.43,-5.96,2.53,-2.34,656.00,1530.00,363.00,1043.00,1851.00,3052.00,1014.00,1664.00,,,,,,,,,,,,0,0,0,,-260,14984,5848,-85,169,-111
23.869,23.67,-0.28,5.01,-4.87,19.25,-13.73,-2.87,1.32,-2.23,1.34,864.00,1429.00,1074.00,689.00,1533.00,3926.00,906.00,1820.00,,,,,,,,,,,,0,0,0,,-280,15044,5772,-53,130,-166
23.91,23.72,-0.43,-1.36,-0.34,-4.67,0.01,-3.13,4.51,-1.97,2.15,759.00,1628.00,789.00,1228.00,1296.00,3642.00,863.00,1763.00,,,,,,,,,,,,0,0,0,,-228,14908,5812,-54,86,-132
23.972,23.78,-0.28,-2.04,2.20,-7.15,7.65,2.50,-0.32,1.26,-0.59,670.00,1563.00,546.00,1104.00,1519.00,3317.00,944.00,1670.00,,,,,,,,,,,,0,0,0,,-224,14948,5884,-45,63,-237
24.034,23.83,-0.11,2.33,-2.18,2.98,-0.87,3.11,-1.83,-0.16,-0.11,784.00,1478.00,720.00,929.00,1631.00,3373.00,944.00,1744.00,,,,,,,,,,,,0,0,0,,-264,14872,5856,-63,60,-152
24.095,23.89,-0.27,0.13,-0.88,7.79,-6.19,-3.32,2.21,-2.08,1.72,761.00,1558.00,880.00,886.00,1473.00,3902.00,885.00,1791.00,,,,,,,,,,,,0,0,0,,-196,14980,5868,-109,146,-139
24.177,23.94,-0.41,-1.64,0.73,-8.45,3.11,-3.07,5.11,-0.18,0.79,720.00,1600.00,715.00,1313.00,1253.00,3575.00,899.00,1703.00,,,,,,,,,,,,0,0,0,,-264,15088,5608,-125,186,-90
24.24,24.00,-0.02,-0.31,0.31,-8.03,11.35,7.45,-5.23,1.52,-1.58,719.00,1535.00,454.00,1035.00,1811.00,3111.00,991.00,1697.00,,,,,,,,,,,,0,0,0,,-200,14976,5896,-100,115,-138
24.26,24.05,-0.24,3.01,-3.14,20.10,-14.00,-4.50,2.38,-2.73,2.05,816.00,1477.00,1073.00,671.00,1491.00,4070.00,880.00,1822.00,,,,,,,,,,,,0,0,0,,-264,15068,5756,-79,94,-153
24.301,24.11,-0.43,-2.35,0.54,-9.99,2.69,-3.96,7.18,-1.60,2.66,737.00,1654.00,752.00,1411.00,1139.00,3504.00,834.00,1714.00,,,,,,,,,,,,0,0,0,,-132,14888,5788,-38,108,-158
24.363,24.16,-0.08,-2.20,3.09,-10.86,14.59,6.61,-4.08,2.18,-1.80,640.00,1535.00,401.00,1061.00,1728.00,3119.00,991.00,1663.00,,,,,,,,,,,,0,0,0,,-212,14984,5628,-48,94,-129
24.425,24.22,-0.06,3.75,-3.68,11.16,-7.86,0.34,0.22,-1.09,0.55,829.00,1455.00,906.00,811.00,1535.00,3562.00,926.00,1777.00,,,,,,,,,,,,0,0,0,,-276,14988,5760,-97,115,-125
24.467,24.27,-0.17,-0.61,-0.42,0.32,-1.76,-2.33,3.79,-2.20,2.66,752.00,1584.00,793.00,1057.00,1328.00,3597.00,843.00,1755.00,,,,,,,,,,,,0,0,0,,-160,15044,5800,-98,172,-202
24.589,24.33,-0.17,-1.33,1.82,-5.76,4.30,-0.21,2.67,-0.08,0.50,675.00,1535.00,638.00,1143.00,1358.00,3409.00,912.00,1710.00,,,,,,,,,,,,0,0,0,,-128,15008,5768,-127,171,-99
24.609,24.38,0.12,0.91,-0.68,-2.47,5.41,5.56,-3.24,0.48,-0.50,742.00,1502.00,566.00,974.00,1683.00,3178.00,953.00,1718.00,,,,,,,,,,,,0,0,0,,-136,15128,5676,-53,143,-133
24.629,24.44,-0.09,1.70,-1.96,14.44,-10.62,-4.00,2.65,-2.61,2.15,784.00,1507.00,991.00,767.00,1456.00,3962.00,873.00,1808.00,,,,,,,,,,,,0,0,0,,-212,15008,5712,-56,138,-163
24.692,24.49,-0.27,-1.83,0.80,-9.16,3.11,-3.66,7.07,-0.63,1.47,720.00,1609.00,724.00,1350.00,1139.00,3472.00,874.00,1703.00,,,,,,,,,,,,0,0,0,,-252,14964,5812,-80,140,-158
24.796,24.55,0.19,-1.25,1.79,-10.50,15.47,8.87,-5.88,1.94,-1.77,675.00,1531.00,380.00,1022.00,1828.00,2993.00,994.00,1678.00,,,,,,,,,,,,0,0,0,,-256,15076,5836,-137,192,-159
24.817,24.60,-0.02,4.70,-4.87,21.23,-15.43,-3.91,1.89,-2.82,1.70,869.00,1447.00,1136.00,667.00,1515.00,4029.00,898.00,1845.00,,,,,,,,,,,,0,0,0,,-228,15148,5684,-111,305,-117
24.858,24.66,-0.21,-3.24,2.03,-6.27,0.84,-3.85,5.66,-2.35,2.65,691.00,1646.00,777.00,1280.00,1234.00,3633.00,846.00,1766.00,,,,,,,,,,,,0,0,0,,-208,15036,5724,-58,240,-38
24.96,24.71,-0.02,-2.19,2.44,-7.48,7.89,3.61,-1.29,1.23,-0.79,663.00,1562.00,542.00,1111.00,1569.00,3258.00,955.00,1681.00,,,,,,,,,,,,0,0,0,,-180,15080,5748,-73,65,-152
24.98,24.77,0.12,3.20,-2.61,6.32,-3.09,2.81,-1.37,-0.41,-0.03,790.00,1445.00,764.00,864.00,1599.00,3370.00,944.00,1757.00,,,,,,,,,,,,0,0,0,,-232,15016,5720,-73,62,-302
25.043,24.82,0.04,0.63,-1.01,7.19,-5.44,-1.58,1.93,-1.62,1.55,759.00,1532.00,854.00,889.00,1449.00,3671.00,886.00,1767.00,,,,,,,,,,,,0,0,0,,-260,15012,5680,-70,47,-277
25.104,24.88,-0.02,-0.42,0.50,-6.17,2.78,-1.08,4.43,-0.01,0.90,713.00,1534.00,698.00,1210.00,1254.00,3365.00,891.00,1687.00,,,,,,,,,,,,0,0,0,,-224,15008,5612,-28,108,-218
25.124,24.93,0.38,0.66,0.27,-5.43,10.31,7.95,-5.02,1.20,-1.39,708.00,1479.00,458.00,960.00,1775.00,3034.00,987.00,1710.00,,,,,,,,,,,,0,0,0,,-212,14960,5764,-97,179,-207
25.185,24.99,0.19,3.20,-2.86,20.44,-13.76,-3.46,2.42,-2.54,1.98,801.00,1455.00,1053.00,658.00,1460.00,3902.00,880.00,1811.00,,,,,,,,,,,,0,0,0,,-300,15152,5748,-139,204,-163
25.247,25.04,-0.00,-1.22,0.16,-8.95,2.96,-3.66,7.65,-1.12,2.15,737.00,1598.00,727.00,1344.00,1104.00,3418.00,850.00,1705.00,,,,,,,,,,,,0,0,0,,-196,15020,5696,-120,220,-88
25.331,25.10,0.41,-1.89,3.46,-12.09,17.15,8.18,-5.11,2.75,-2.30,624.00,1502.00,357.00,1040.00,1776.00,3013.00,1008.00,1648.00,,,,,,,,,,,,0,0,0,,-200,15148,5676,-75,169,-145
25.351,25.15,0.36,4.67,-4.26,14.50,-9.98,-0.50,0.50,-1.47,0.68,841.00,1425.00,956.00,752.00,1535.00,3654.00,926.00,1798.00,,,,,,,,,,,,0,0,0,,-216,15088,5824,-55,78,-238
25.415,25.21,0.21,-0.79,-0.35,-1.01,-1.38,-2.71,4.99,-1.99,2.25,752.00,1593.00,796.00,1103.00,1253.00,3536.00,859.00,1760.00,,,,,,,,,,,,0,0,0,,-168,14964,5672,-143,93,-203
25.477,25.26,0.26,-1.54,2.25,-6.46,6.43,1.19,1.32,0.68,-0.30,662.00,1530.00,576.00,1110.00,1424.00,3344.00,939.00,1695.00,,,,,,,,,,,,0,0,0,,-372,14932,5684,-148,106,-160
25.519,25.32,0.49,1.09,-0.96,-1.63,3.53,4.95,-2.68,0.08,-0.41,751.00,1503.00,617.00,991.00,1651.00,3208.00,955.00,1741.00,,,,,,,,,,,,0,0,0,,-200,14908,5720,-201,79,-182
25.56,25.37,0.27,0.57,-0.94,12.05,-8.80,-3.84,2.60,-2.86,2.07,757.00,1533.00,938.00,803.00,1456.00,3942.00,881.00,1830.00,,,,,,,,,,,,0,0,0,,-172,15024,5744,-108,146,-123
25.623,25.43,0.11,-1.87,0.81,-9.49,3.79,-2.94,5.96,-0.42,0.90,720.00,1611.00,702.00,1343.00,1194.00,3476.00,898.00,1715.00,,,,,,,,,,,,0,0,0,,-252,14908,5836,-113,176,-86
25.705,25.48,0.52,-0.83,1.30,-9.63,14.18,8.27,-5.62,1.66,-1.83,688.00,1526.00,401.00,1022.00,1822.00,3043.00,1002.00,1699.00,,,,,,,,,,,,0,0,0,,-232,15084,5688,-106,124,-177
25.726,25.54,0.29,4.21,-3.68,20.78,-14.43,-4.20,2.23,-3.06,1.83,822.00,1429.00,1085.00,661.00,1495.00,4038.00,896.00,1857.00,,,,,,,,,,,,0,0,0,,-244,15052,5672,-156,75,-128
25.786,25.59,0.11,-2.09,0.45,-7.95,1.86,-3.20,6.39,-2.09,2.71,737.00,1641.00,758.00,1331.00,1172.00,3472.00,839.00,1745.00,,,,,,,,,,,,0,0,0,,-296,15036,5656,-110,85,-164
25.849,25.65,0.37,-1.81,2.82,-8.29,10.60,5.21,-2.39,1.31,-1.21,645.00,1523.00,475.00,1067.00,1618.00,3151.00,975.00,1694.00,,,,,,,,,,,,0,0,0,,-180,14972,5780,-141,79,-171
25.909,25.70,0.46,3.73,-2.93,9.46,-5.09,2.18,-0.66,-0.93,0.40,796.00,1427.00,804.00,805.00,1557.00,3391.00,931.00,1773.00,,,,,,,,,,,,0,0,0,,-256,14976,5896,-146,44,-171
25.971,25.76,0.38,0.09,-0.28,4.18,-3.47,-1.15,2.50,-2.10,2.07,737.00,1535.00,811.00,950.00,1394.00,3554.00,869.00,1776.00,,,,,,,,,,,,0,0,0,,-204,15052,5888,-39,71,-153
26.134,25.81,0.33,-0.23,0.52,-4.98,2.57,-0.51,3.82,-0.10,0.50,710.00,1522.00,691.00,1161.00,1283.00,3345.00,912.00,1711.00,,,,,,,,,,,,0,0,0,,-244,15060,5568,-85,115,-156
26.154,25.87,0.69,1.02,-0.26,-3.94,8.12,7.54,-4.78,1.12,-1.42,724.00,1479.00,502.00,960.00,1765.00,3063.00,990.00,1717.00,,,,,,,,,,,,0,0,0,,-208,15064,5752,-63,92,-151
26.174,25.92,0.50,2.75,-2.71,18.92,-12.92,-3.23,2.24,-2.63,2.03,801.00,1475.00,1034.00,683.00,1468.00,3885.00,879.00,1815.00,,,,,,,,,,,,0,0,0,,-352,15020,5628,-83,57,-180
26.194,25.98,0.30,-1.37,0.51,-9.03,3.20,-3.48,7.42,-1.03,1.75,725.00,1592.00,719.00,1340.00,1114.00,3415.00,867.00,1717.00,,,,,,,,,,,,0,0,0,,-320,14960,5732,-66,75,-163
26.235,26.03,0.73,-1.86,2.90,-10.99,16.47,9.00,-6.09,2.73,-2.87,643.00,1523.00,363.00,1014.00,1845.00,2995.00,1040.00,1675.00,,,,,,,,,,,,0,0,0,,-168,15148,5800,-85,87,-149
26.295,26.09,0.59,5.15,-4.70,19.00,-13.29,-2.03,1.17,-2.09,0.91,854.00,1415.00,1054.00,688.00,1522.00,3813.00,925.00,1831.00,,,,,,,,,,,,0,0,0,,-252,15036,5816,-75,173,-114
26.337,26.14,0.45,-1.32,-0.18,-3.37,-0.63,-2.30,4.20,-2.19,2.08,752.00,1619.00,798.00,1187.00,1298.00,3553.00,870.00,1782.00,,,,,,,,,,,,0,0,0,,-244,15000,5752,-11,149,-139
26.461,26.20,0.56,-1.67,2.32,-6.74,7.21,2.68,-0.28,0.90,-0.68,661.00,1535.00,555.00,1099.00,1511.00,3290.00,955.00,1698.00,,,,,,,,,,,,0,0,0,,-200,14960,5864,-15,131,-137
26.481,26.25,0.71,2.14,-2.11,2.00,-0.02,3.62,-1.97,-0.19,-0.41,784.00,1487.00,700.00,944.00,1628.00,3317.00,960.00,1760.00,,,,,,,,,,,,0,0,0,,-160,15096,5560,-65,118,-33
26.521,26.31,0.55,0.76,-1.19,9.00,-6.83,-2.59,2.09,-2.26,1.68,765.00,1532.00,891.00,859.00,1463.00,3804.00,890.00,1806.00,,,,,,,,,,,,0,0,0,,-220,14988,5748,-75,118,-146
26.562,26.36,0.42,-1.47,0.86,-8.41,3.32,-2.05,5.38,-0.29,0.77,713.00,1584.00,706.00,1303.00,1212.00,3408.00,902.00,1712.00,,,,,,,,,,,,0,0,0,,-228,15032,5720,-105,148,-236
26.603,26.42,0.82,-0.12,0.79,-7.83,12.63,8.51,-5.46,1.41,-1.74,698.00,1504.00,422.00,992.00,1799.00,3002.00,1002.00,1712.00,,,,,,,,,,,,0,0,0,,-272,15032,5664,-99,53,-243
26.687,26.47,0.60,3.96,-3.35,21.41,-14.33,-3.62,2.29,-2.85,1.88,811.00,1430.00,1067.00,643.00,1475.00,3941.00,890.00,1839.00,,,,,,,,,,,,0,0,0,,-300,14960,5728,-45,40,-221
26.811,26.53,0.39,-2.23,0.75,-9.59,3.03,-3.54,7.34,-1.66,2.37,727.00,1637.00,733.00,1376.00,1120.00,3430.00,848.00,1731.00,,,,,,,,,,,,0,0,0,,-300,14932,5728,-78,145,-137
26.831,26.58,0.71,-2.16,3.46,-10.27,14.44,6.64,-3.87,1.96,-1.87,627.00,1518.00,400.00,1041.00,1708.00,3098.00,999.00,1681.00,,,,,,,,,,,,0,0,0,,-304,14884,5732,-84,113,-177
26.852,26.64,0.72,3.79,-3.41,11.44,-7.63,1.02,-0.25,-0.74,0.10,816.00,1442.00,890.00,797.00,1555.00,3511.00,943.00,1774.00,,,,,,,,,,,,0,0,0,,-184,15020,5704,-73,158,-113
26.892,26.69,0.60,-0.62,-0.17,0.77,-1.82,-1.79,3.43,-2.38,2.48,742.00,1574.00,789.00,1040.00,1341.00,3555.00,854.00,1776.00,,,,,,,,,,,,0,0,0,,-344,15088,5720,-117,109,-209
26.954,26.75,0.56,-1.27,1.83,-5.56,4.26,-0.18,2.78,-0.33,0.50,674.00,1531.00,637.00,1135.00,1349.00,3394.00,916.00,1727.00,,,,,,,,,,,,0,0,0,,-184,15008,5616,-120,79,-244
26.996,26.80,0.82,1.22,-0.86,-2.83,5.53,5.87,-3.41,0.18,-0.60,745.00,1491.00,566.00,985.00,1689.00,3154.00,963.00,1743.00,,,,,,,,,,,,0,0,0,,-280,14992,5728,-110,72,-192
27.057,26.86,0.59,1.95,-2.28,14.39,-10.46,-3.78,2.49,-3.00,2.10,794.00,1505.00,983.00,765.00,1463.00,3945.00,882.00,1839.00,,,,,,,,,,,,0,0,0,,-316,15032,5812,-112,167,-133
27.158,26.91,0.39,-1.72,0.71,-8.97,3.00,-3.50,6.96,-0.93,1.38,722.00,1606.00,726.00,1344.00,1143.00,3461.00,883.00,1727.00,,,,,,,,,,,,0,0,0,,-164,14996,5552,-61,167,-143
27.18,26.97,0.79,-1.12,1.81,-10.30,15.21,8.40,-5.73,1.73,-1.98,673.00,1523.00,384.00,1021.00,1829.00,3037.00,1009.00,1701.00,,,,,,,,,,,,0,0,0,,-192,14948,5512,-66,117,-145
27.24,27.02,0.55,5.09,-4.98,20.91,-15.08,-4.02,1.71,-2.90,1.34,868.00,1429.00,1121.00,669.00,1533.00,4066.00,917.00,1869.00,,,,,,,,,,,,0,0,0,,-156,15236,5692,-78,141,-73
27.281,27.08,0.34,-1.85,0.02,-6.19,0.85,-3.54,5.54,-2.23,2.20,751.00,1644.00,775.00,1275.00,1235.00,3600.00,865.00,1779.00,,,,,,,,,,,,0,0,0,,-120,15068,5888,-91,176,-120
27.322,27.13,0.53,-1.45,2.00,-6.67,7.72,4.02,-1.52,0.76,-0.83,670.00,1535.00,539.00,1081.00,1577.00,3226.00,965.00,1714.00,,,,,,,,,,,,0,0,0,,-252,15048,5616,-36,185,-221
27.384,27.19,0.63,3.55,-2.84,7.33,-3.88,2.61,-1.23,-0.62,-0.13,795.00,1434.00,783.00,848.00,1593.00,3385.00,953.00,1777.00,,,,,,,,,,,,0,0,0,,-228,15056,5756,-11,125,-190
27.444,27.24,0.53,0.65,-0.74,6.92,-5.37,-1.42,1.75,-1.75,1.28,748.00,1520.00,855.00,897.00,1459.00,3665.00,901.00,1789.00,,,,,,,,,,,,0,0,0,,-280,15008,5768,-42,107,-197
27.548,27.30,0.45,-0.12,0.27,-5.71,2.60,-1.13,4.34,-0.15,0.52,718.00,1525.00,699.00,1194.00,1261.00,3380.00,912.00,1714.00,,,,,,,,,,,,0,0,0,,-244,15008,5608,-114,146,-108
27.569,27.35,0.81,0.52,0.37,-4.97,9.18,7.62,-5.00,1.11,-1.59,706.00,1483.00,483.00,972.00,1783.00,3071.00,999.00,1725.00,,,,,,,,,,,,0,0,0,,-256,15040,5772,-112,121,-181
27.611,27.41,0.58,3.24,-2.92,19.71,-13.36,-3.63,2.13,-2.78,1.92,803.00,1455.00,1044.00,670.00,1488.00,3960.00,887.00,1832.00,,,,,,,,,,,,0,0,0,,-312,15076,5664,-99,158,-78
27.674,27.46,0.37,-1.35,0.53,-9.21,3.15,-3.73,7.36,-1.28,1.90,724.00,1590.00,723.00,1351.00,1123.00,3455.00,864.00,1727.00,,,,,,,,,,,,0,0,0,,-204,15072,5572,-22,172,-191
27.736,27.52,0.75,-1.76,2.89,-12.09,17.15,8.05,-5.43,2.62,-2.82,642.00,1517.00,357.00,1040.00,1811.00,3055.00,1039.00,1680.00,,,,,,,,,,,,0,0,0,,-176,15008,5488,12,95,-177
27.777,27.57,0.65,5.10,-4.43,16.45,-11.34,-1.30,0.77,-1.48,0.59,842.00,1407.00,993.00,722.00,1535.00,3745.00,931.00,1803.00,,,,,,,,,,,,0,0,0,,-240,15124,5508,19,110,-146
27.839,27.63,0.49,-0.96,-0.27,-1.52,-1.53,-2.51,4.20,-1.83,2.41,751.00,1600.00,810.00,1130.00,1303.00,3583.00,849.00,1741.00,,,,,,,,,,,,0,0,0,,-284,14960,5516,-127,165,-89
27.901,27.68,0.54,-1.79,2.50,-6.32,6.31,1.39,0.84,0.40,1.14,656.00,1535.00,578.00,1107.00,1456.00,3360.00,873.00,1649.00,,,,,,,,,,,,0,0,0,,-56,15008,5544,-207,133,-144
27.942,27.74,0.71,0.68,-0.73,-0.80,2.49,4.07,-2.40,0.28,-0.22,747.00,1518.00,643.00,986.00,1653.00,3297.00,942.00,1719.00,,,,,,,,,,,,0,0,0,,-216,15060,5640,-140,145,-188
27.985,27.79,0.49,0.46,-0.83,10.45,-8.09,-3.79,2.29,-2.17,1.86,754.00,1535.00,929.00,839.00,1479.00,3967.00,880.00,1791.00,,,,,,,,,,,,0,0,0,,-204,15176,5768,-115,169,-115
28.046,27.85,0.32,-2.20,1.20,-8.97,3.05,-2.88,5.53,0.02,0.79,709.00,1615.00,724.00,1342.00,1221.00,3509.00,896.00,1690.00,,,,,,,,,,,,0,0,0,,-216,15084,5740,-149,138,-146
28.129,27.90,0.72,-0.77,1.58,-8.45,13.06,8.41,-5.65,1.92,-1.75,677.00,1511.00,417.00,1005.00,1821.00,3029.00,993.00,1678.00,,,,,,,,,,,,0,0,0,,-188,15148,5740,-115,128,-234
28.15,27.96,0.48,3.94,-3.20,21.69,-14.51,-4.25,2.21,-2.75,2.05,805.00,1426.00,1072.00,639.00,1498.00,4049.00,880.00,1823.00,,,,,,,,,,,,0,0,0,,-308,14996,5756,-90,73,-240
28.211,28.01,0.27,-2.64,1.35,-8.92,2.50,-3.62,6.90,-1.68,2.82,709.00,1637.00,745.00,1359.00,1149.00,3482.00,828.00,1712.00,,,,,,,,,,,,0,0,0,,-276,14964,5696,-135,108,-171
28.272,28.07,0.54,-2.06,3.61,-9.33,12.62,5.57,-3.21,1.80,-1.39,621.00,1506.00,434.00,1053.00,1680.00,3175.00,976.00,1670.00,,,,,,,,,,,,0,0,0,,-284,14944,5716,-194,147,-185
28.314,28.12,0.56,3.40,-2.70,10.46,-6.56,0.96,-0.26,-0.66,0.37,791.00,1437.00,855.00,805.00,1558.00,3521.00,928.00,1756.00,,,,,,,,,,,,0,0,0,,-220,15060,5812,-178,197,-206
28.376,28.18,0.42,0.96,-0.52,2.22,-2.79,-2.18,3.26,-2.11,2.52,735.00,1493.00,810.00,1008.00,1363.00,3627.00,848.00,1755.00,,,,,,,,,,,,0,0,0,,-200,15064,5756,-39,145,-99
28.438,28.23,0.37,-0.74,1.24,-6.21,3.55,-0.54,3.15,0.12,0.55,689.00,1523.00,670.00,1187.00,1331.00,3409.00,906.00,1694.00,,,,,,,,,,,,0,0,0,,-320,15044,5656,-48,92,-186
28.499,28.29,0.66,0.76,-0.10,-3.84,6.98,6.04,-3.71,0.83,-0.78,721.00,1488.00,533.00,986.00,1712.00,3159.00,961.00,1707.00,,,,,,,,,,,,0,0,0,,-236,15068,5480,-84,60,-228
28.561,28.34,0.42,2.19,-2.38,15.87,-12.05,-4.03,2.44,-2.58,2.29,795.00,1495.00,1043.00,753.00,1474.00,3990.00,866.00,1799.00,,,,,,,,,,,,0,0,0,,-292,15004,5624,-80,-112,-202
28.686,28.40,0.20,-2.08,1.22,-9.05,2.95,-4.09,7.33,-0.57,1.55,707.00,1607.00,729.00,1350.00,1132.00,3507.00,869.00,1695.00,,,,,,,,,,,,0,0,0,,-320,15032,5816,-179,37,-250
28.706,28.45,0.60,-1.70,2.73,-11.12,15.72,8.34,-5.87,1.93,-1.43,647.00,1520.00,379.00,1040.00,1845.00,3056.00,976.00,1663.00,,,,,,,,,,,,0,0,0,,-344,15100,5624,-264,164,-185
28.727,28.51,0.37,5.02,-4.74,20.86,-14.78,-4.05,1.79,-2.44,1.29,858.00,1424.00,1104.00,665.00,1527.00,4062.00,912.00,1838.00,,,,,,,,,,,,0,0,0,,-316,15000,5688,-150,157,-129
28.768,28.56,0.16,-2.30,0.60,-6.14,0.46,-3.80,5.08,-2.14,2.34,734.00,1648.00,791.00,1286.00,1272.00,3683.00,857.00,1766.00,,,,,,,,,,,,0,0,0,,-352,15012,5740,-48,128,-132
28.828,28.62,0.29,-1.79,2.06,-6.89,7.09,2.82,-1.09,1.29,-0.91,672.00,1553.00,560.00,1109.00,1575.00,3344.00,960.00,1682.00,,,,,,,,,,,,0,0,0,,-232,15108,5792,-104,140,-136
28.889,28.67,0.38,2.80,-2.40,5.55,-3.09,2.04,-1.28,-0.59,0.07,787.00,1460.00,775.00,891.00,1614.00,3467.00,942.00,1765.00,,,,,,,,,,,,0,0,0,,-212,14968,5656,-159,52,-209
28.951,28.73,0.26,0.44,-0.70,7.29,-5.92,-2.09,1.78,-1.58,1.43,749.00,1531.00,875.00,897.00,1474.00,3760.00,891.00,1770.00,,,,,,,,,,,,0,0,0,,-244,15028,5644,-136,25,-245
28.992,28.78,0.16,-0.51,0.61,-6.22,2.48,-1.66,4.39,0.04,0.76,710.00,1535.00,710.00,1222.00,1270.00,3447.00,897.00,1690.00,,,,,,,,,,,,0,0,0,,-184,14888,5840,-124,20,-229
29.032,28.84,0.55,0.35,0.82,-5.27,9.51,7.88,-5.28,1.62,-1.61,691.00,1475.00,477.00,975.00,1802.00,3063.00,991.00,1692.00,,,,,,,,,,,,0,0,0,,-256,15044,5680,-40,38,-118
29.114,28.89,0.33,3.64,-2.85,20.27,-13.79,-3.80,2.18,-2.37,1.99,794.00,1429.00,1058.00,663.00,1488.00,3980.00,877.00,1799.00,,,,,,,,,,,,0,0,0,,-384,14900,5660,34,83,-137
29.134,28.95,0.11,-1.81,1.07,-8.96,2.79,-4.16,7.70,-1.05,2.19,709.00,1596.00,734.00,1351.00,1111.00,3482.00,847.00,1698.00,,,,,,,,,,,,0,0,0,,-252,15020,5728,-48,27,-183
29.196,29.00,0.50,-1.99,3.67,-11.14,16.38,8.05,-5.41,2.99,-2.58,618.00,1499.00,366.00,1023.00,1809.00,3053.00,1019.00,1645.00,,,,,,,,,,,,0,0,0,,-188,14992,5684,-47,53,-137
29.258,29.06,0.41,5.14,-4.22,16.22,-11.35,-1.28,0.48,-1.40,0.72,832.00,1397.00,998.00,729.00,1559.00,3771.00,923.00,1791.00,,,,,,,,,,,,0,0,0,,-236,14952,5600,-83,58,-167
29.319,29.11,0.26,-1.00,0.11,-1.66,-1.39,-2.66,4.14,-1.82,2.23,736.00,1586.00,806.00,1132.00,1311.00,3610.00,857.00,1749.00,,,,,,,,,,,,0,0,0,,-256,15056,5732,-94,50,-170
29.381,29.17,0.32,-1.74,2.74,-6.75,6.85,1.47,0.79,1.11,-0.44,647.00,1522.00,566.00,1110.00,1458.00,3354.00,939.00,1673.00,,,,,,,,,,,,0,0,0,,-336,15032,5716,-61,86,-163
29.422,29.22,0.50,1.33,-1.04,-0.80,2.49,3.99,-2.30,0.37,-0.41,751.00,1492.00,643.00,986.00,1646.00,3298.00,950.00,1721.00,,,,,,,,,,,,0,0,0,,-228,14928,5692,-89,143,-117
29.483,29.28,0.30,0.59,-0.60,10.09,-7.69,-3.61,2.18,-3.23,2.24,743.00,1518.00,915.00,842.00,1483.00,3951.00,879.00,1849.00,,,,,,,,,,,,0,0,0,,-256,15108,5640,-167,142,-79
29.544,29.33,0.13,-2.05,1.31,-9.10,3.22,-3.17,5.61,-0.07,0.67,703.00,1601.00,719.00,1343.00,1222.00,3541.00,903.00,1701.00,,,,,,,,,,,,0,0,0,,-240,15080,5644,-84,109,-48
29.606,29.39,0.50,-0.95,1.75,-9.03,12.65,7.59,-5.51,1.38,-1.68,673.00,1515.00,431.00,1040.00,1834.00,3117.00,999.00,1711.00,,,,,,,,,,,,0,0,0,,-180,15056,5744,-70,120,-147
29.667,29.44,0.25,3.45,-3.27,20.16,-14.19,-4.39,1.99,-2.78,1.75,815.00,1456.00,1083.00,673.00,1520.00,4095.00,895.00,1840.00,,,,,,,,,,,,0,0,0,,-168,15200,5572,-150,105,-211
29.728,29.50,0.02,-2.85,1.17,-9.80,2.41,-4.34,6.90,-1.77,2.54,719.00,1659.00,761.00,1411.00,1164.00,3583.00,842.00,1731.00,,,,,,,,,,,,0,0,0,,-156,15072,5780,-66,112,-125
29.748,29.55,0.28,-2.22,3.57,-10.20,13.00,5.21,-3.33,1.78,-1.59,624.00,1517.00,432.00,1079.00,1702.00,3231.00,987.00,1680.00,,,,,,,,,,,,0,0,0,,-192,14904,5800,-150,125,-236
29.81,29.61,0.29,3.62,-3.28,9.96,-6.73,0.51,-0.26,-0.87,0.36,813.00,1447.00,871.00,825.00,1570.00,3583.00,932.00,1771.00,,,,,,,,,,,,0,0,0,,-204,15116,5776,-72,74,-212
29.893,29.66,0.17,-0.98,0.51,1.14,-2.29,-2.25,3.37,-2.20,2.58,720.00,1568.00,804.00,1038.00,1357.00,3627.00,847.00,1759.00,,,,,,,,,,,,0,0,0,,-164,15044,5632,-103,71,-232
29.934,29.72,0.13,-1.20,1.94,-5.37,3.66,-0.66,3.09,-0.05,0.57,669.00,1522.00,656.00,1145.00,1338.00,3431.00,908.00,1705.00,,,,,,,,,,,,0,0,0,,-192,15064,5684,-122,125,-208
29.975,29.77,0.40,0.75,-0.07,-2.83,5.53,5.54,-3.43,0.52,-0.54,720.00,1487.00,566.00,985.00,1701.00,3197.00,954.00,1717.00,,,,,,,,,,,,0,0,0,,-168,15016,5672,-109,128,-197
30.016,29.83,0.18,3.30,-3.58,15.17,-11.46,-4.00,2.45,-2.76,2.38,831.00,1477.00,1023.00,762.00,1472.00,3983.00,865.00,1808.00,,,,,,,,,,,,0,0,0,,-296,15180,5596,-119,86,-233
30.1,29.88,-0.02,-1.84,1.14,-9.07,3.03,-3.72,7.17,-0.48,1.40,707.00,1595.00,726.00,1348.00,1134.00,3470.00,875.00,1696.00,,,,,,,,,,,,1,0,0,,-152,14956,5528,-207,30,-237
30.141,29.94,0.41,-1.44,2.64,-10.56,15.58,8.48,-5.78,2.38,-2.05,647.00,1508.00,378.00,1021.00,1831.00,3031.00,1001.00,1661.00,,,,,,,,,,,,1,0,0,,-292,15000,5752,-89,20,-226
30.183,29.99,0.19,5.26,-4.74,21.28,-15.28,-3.99,1.86,-2.73,1.67,854.00,1410.00,1126.00,663.00,1520.00,4046.00,898.00,1840.00,,,,,,,,,,,,1,0,0,,-248,14980,5852,-117,152,-164
30.244,30.05,-0.01,-2.24,0.81,-6.91,1.03,-3.73,5.63,-2.05,2.55,725.00,1635.00,778.00,1306.00,1233.00,3618.00,846.00,1750.00,,,,,,,,,,,,1,0,0,,-240,14996,5820,-101,204,-53
30.305,30.10,0.18,-2.11,2.41,-7.18,7.66,3.79,-2.05,1.26,-0.88,663.00,1558.00,546.00,1105.00,1630.00,3302.00,959.00,1683.00,,,,,,,,,,,,1,0,0,,-164,15060,5708,-117,169,-148
30.366,30.16,0.26,2.67,-2.29,6.54,-4.01,1.65,-1.06,-0.79,0.16,784.00,1463.00,800.00,878.00,1606.00,3500.00,941.00,1775.00,,,,,,,,,,,,1,0,0,,-208,15164,5636,-135,135,-169
30.427,30.21,0.12,0.23,-1.11,5.25,-4.81,-2.35,1.96,-1.81,1.53,769.00,1561.00,855.00,944.00,1467.00,3781.00,890.00,1781.00,,,,,,,,,,,,1,0,0,,-312,14992,5880,-151,133,-260
30.489,30.27,0.03,-0.65,0.81,-6.56,2.78,-1.76,4.30,-0.17,0.81,704.00,1535.00,703.00,1229.00,1279.00,3470.00,898.00,1702.00,,,,,,,,,,,,1,0,0,,-260,15072,5588,-200,96,-407
30.53,30.32,0.39,0.25,0.64,-5.27,8.83,7.21,-4.98,1.22,-1.44,699.00,1488.00,495.00,993.00,1795.00,3120.00,989.00,1711.00,,,,,,,,,,,,1,0,0,,-220,15020,5604,-147,66,-322
30.592,30.38,0.17,3.09,-2.74,18.74,-13.30,-4.03,2.40,-2.65,2.21,797.00,1456.00,1059.00,695.00,1477.00,3994.00,871.00,1808.00,,,,,,,,,,,,1,0,0,,-284,14992,5780,-177,83,-294
30.653,30.43,-0.04,-1.65,0.81,-9.27,3.02,-3.94,7.50,-1.01,2.04,717.00,1597.00,729.00,1359.00,1119.00,3471.00,853.00,1702.00,,,,,,,,,,,,1,0,0,,-372,14952,5932,-145,202,-119
30.714,30.49,0.39,-1.96,3.48,-11.02,16.23,8.44,-5.82,2.93,-2.56,624.00,1505.00,368.00,1022.00,1837.00,3040.00,1019.00,1648.00,,,,,,,,,,,,1,0,0,,-384,14936,5792,-86,188,-83
30.754,30.54,0.29,5.17,-4.47,17.62,-12.50,-1.59,0.66,-1.54,0.95,843.00,1405.00,1035.00,711.00,1552.00,3799.00,914.00,1790.00,,,,,,,,,,,,1,0,0,,-264,15036,5840,-173,160,40
30.816,30.60,0.13,-0.92,-0.31,-2.49,-1.29,-2.84,4.26,-1.77,2.37,752.00,1599.00,814.00,1167.00,1307.00,3625.00,850.00,1739.00,,,,,,,,,,,,1,0,0,,-232,15080,5824,-224,127,-99
30.858,30.65,0.22,-1.58,2.40,-6.86,7.11,1.81,-0.02,1.38,-0.57,657.00,1526.00,559.00,1107.00,1514.00,3382.00,941.00,1661.00,,,,,,,,,,,,1,0,0,,-52,14968,5660,-261,52,-142
30.898,30.71,0.37,1.74,-1.55,0.82,1.21,3.38,-2.46,0.36,-0.35,766.00,1488.00,669.00,957.00,1679.00,3393.00,947.00,1719.00,,,,,,,,,,,,1,0,0,,-220,15024,5800,-222,4,-75
30.959,30.76,0.13,0.38,-0.70,9.20,-7.20,-4.41,2.02,-1.93,1.78,750.00,1535.00,906.00,861.00,1518.00,4095.00,880.00,1778.00,,,,,,,,,,,,1,0,0,,-204,15176,5980,-191,95,-51
31.021,30.82,-0.07,-1.93,0.83,-9.26,3.43,-3.87,4.89,0.07,0.57,720.00,1614.00,713.00,1344.00,1287.00,3712.00,906.00,1697.00,,,,,,,,,,,,1,0,0,,-196,15048,6036,85,326,9
31.082,30.87,0.27,-0.98,1.35,-8.80,12.53,6.64,-5.72,1.46,-1.70,688.00,1533.00,432.00,1034.00,1888.00,3255.00,999.00,1707.00,,,,,,,,,,,,1,0,0,,-248,14956,5880,134,548,175
31.205,30.93,0.03,3.24,-3.29,19.01,-13.90,-4.44,2.07,-2.69,1.89,819.00,1469.00,1089.00,699.00,1515.00,4095.00,887.00,1827.00,,,,,,,,,,,,1,0,0,,-284,15244,5644,69,475,40
31.225,30.98,-0.24,-2.67,0.90,-10.82,3.02,-5.42,6.83,-1.45,2.37,727.00,1659.00,750.00,1445.00,1192.00,3747.00,845.00,1717.00,,,,,,,,,,,,1,0,0,,-100,15176,5556,33,279,-181
31.266,31.04,0.03,-2.21,3.48,-10.68,13.94,5.20,-4.21,2.05,-1.73,627.00,1520.00,414.00,1072.00,1786.00,3310.00,990.00,1669.00,,,,,,,,,,,,1,0,0,,-188,15104,5684,-35,65,-460
31.287,31.09,-0.00,3.72,-3.38,11.06,-7.95,-0.64,-0.48,-0.76,0.29,816.00,1445.00,912.00,816.00,1623.00,3773.00,934.00,1767.00,,,,,,,,,,,,1,0,0,,-288,15072,5836,-49,36,-545
31.348,31.15,-0.17,-0.49,-0.18,-0.14,-1.67,-3.35,3.38,-1.96,2.47,741.00,1567.00,796.00,1074.00,1383.00,3786.00,848.00,1747.00,,,,,,,,,,,,1,0,0,,-272,14920,5728,-3,25,-434
31.409,31.20,-0.21,-1.61,2.36,-6.38,4.92,-1.05,2.10,0.10,0.44,659.00,1530.00,624.00,1152.00,1422.00,3578.00,912.00,1701.00,,,,,,,,,,,,1,0,0,,-324,14948,5768,-51,-124,-254
31.451,31.26,0.03,0.96,-0.42,-2.45,4.86,4.61,-3.57,0.49,-0.62,731.00,1489.00,583.00,988.00,1743.00,3329.00,959.00,1723.00,,,,,,,,,,,,1,0,0,,-372,14920,5960,-109,-146,-149
31.513,31.31,-0.19,1.78,-1.56,13.74,-10.41,-4.31,1.88,-2.52,2.00,766.00,1486.00,992.00,784.00,1527.00,4095.00,879.00,1809.00,,,,,,,,,,,,1,0,0,,-280,14912,5812,-120,35,86
31.575,31.37,-0.36,-1.67,1.03,-9.47,3.32,-3.70,5.95,-0.37,1.25,709.00,1589.00,720.00,1359.00,1211.00,3583.00,880.00,1695.00,,,,,,,,,,,,1,0,0,,-224,14912,5804,-122,227,93
31.636,31.42,0.02,-0.98,2.06,-10.77,15.31,7.33,-5.87,1.95,-1.92,662.00,1504.00,385.00,1037.00,1879.00,3180.00,1002.00,1684.00,,,,,,,,,,,,1,0,0,,-200,14984,5672,26,230,165
31.696,31.48,-0.17,4.68,-4.20,21.44,-15.24,-3.83,1.17,-2.87,1.62,838.00,1422.00,1120.00,658.00,1573.00,4095.00,903.00,1853.00,,,,,,,,,,,,1,0,0,,4,15020,5864,-193,212,62
31.756,31.53,-0.42,-2.41,0.79,-7.99,1.63,-5.17,5.70,-1.98,2.43,728.00,1647.00,768.00,1341.00,1261.00,3824.00,850.00,1750.00,,,,,,,,,,,,1,0,0,,-36,15044,5748,-67,250,100
31.818,31.59,-0.27,-1.72,2.39,-8.31,8.62,2.67,-2.11,1.12,-0.97,659.00,1535.00,529.00,1126.00,1669.00,3457.00,966.00,1696.00,,,,,,,,,,,,1,0,0,,-136,14928,5776,-37,141,-81
31.839,31.64,-0.27,2.97,-2.55,6.87,-4.38,-0.32,-0.86,-0.71,0.01,791.00,1456.00,811.00,875.00,1647.00,3763.00,947.00,1776.00,,,,,,,,,,,,1,0,0,,-44,15320,5632,-46,42,-110
31.944,31.70,-0.43,-0.45,-0.32,3.16,-3.95,-3.51,1.91,-2.01,1.78,746.00,1570.00,848.00,1002.00,1502.00,3963.00,881.00,1783.00,,,,,,,,,,,,1,0,0,,76,15040,5688,-103,-6,-138
31.965,31.75,-0.53,-0.65,0.81,-5.58,2.19,-2.31,3.33,0.09,0.34,704.00,1535.00,713.00,1201.00,1361.00,3639.00,917.00,1706.00,,,,,,,,,,,,1,0,0,,-20,15024,5780,-115,69,-274
32.007,31.81,-0.20,0.67,0.03,-4.52,7.38,5.98,-5.06,1.21,-1.60,717.00,1488.00,528.00,1002.00,1843.00,3282.00,998.00,1719.00,,,,,,,,,,,,1,0,0,,-168,15016,5680,1,34,-256
32.068,31.86,-0.41,2.61,-2.43,17.08,-12.53,-4.31,1.88,-2.63,2.03,791.00,1472.00,1047.00,727.00,1527.00,4095.00,879.00,1815.00,,,,,,,,,,,,1,0,0,,-136,15008,5680,-111,77,-129
32.13,31.92,-0.58,-1.53,0.85,-9.41,3.12,-3.97,6.35,-0.62,1.38,714.00,1588.00,727.00,1363.00,1191.00,3583.00,878.00,1706.00,,,,,,,,,,,,1,0,0,,-40,15036,5752,-203,111,-113
32.191,31.97,-0.16,-1.35,2.75,-10.21,15.81,7.84,-6.44,2.48,-2.12,642.00,1498.00,371.00,1001.00,1920.00,3165.00,1003.00,1658.00,,,,,,,,,,,,1,0,0,,-120,15068,5784,-120,72,-117
32.232,32.03,-0.33,5.55,-5.03,18.91,-13.54,-3.41,0.68,-2.08,1.17,863.00,1405.00,1070.00,695.00,1603.00,4081.00,912.00,1818.00,,,,,,,,,,,,1,0,0,,-36,15140,5880,-21,67,-175
32.314,32.08,-0.50,-1.48,0.35,-4.34,-0.28,-3.86,3.94,-1.77,1.79,733.00,1606.00,797.00,1222.00,1355.00,3807.00,877.00,1766.00,,,,,,,,,,,,1,0,0,,-80,15036,5784,-61,47,-241
32.335,32.14,-0.38,-1.47,2.40,-6.83,7.17,1.88,-0.88,1.20,-0.59,656.00,1520.00,557.00,1104.00,1584.00,3451.00,945.00,1674.00,,,,,,,,,,,,1,0,0,,-128,14924,5640,35,34,-250
32.395,32.19,-0.26,2.78,-2.04,2.99,-0.72,2.10,-2.10,0.03,-0.39,772.00,1447.00,714.00,925.00,1685.00,3535.00,955.00,1744.00,,,,,,,,,,,,1,0,0,,-172,14780,5640,10,-64,-160
32.437,32.25,-0.46,0.66,-0.82,7.44,-6.18,-4.25,1.81,-1.91,1.63,751.00,1523.00,885.00,898.00,1531.00,4093.00,887.00,1784.00,,,,,,,,,,,,1,0,0,,-24,14960,5768,21,-339,-43
32.499,32.30,-0.63,-0.93,0.65,-9.63,5.12,-3.83,4.48,0.51,0.63,714.00,1559.00,655.00,1303.00,1315.00,3747.00,896.00,1665.00,,,,,,,,,,,,1,0,0,,76,15032,6012,-20,-169,-213
32.561,32.36,-0.29,-0.05,0.61,-7.09,10.39,6.14,-5.50,1.45,-1.74,704.00,1507.00,470.00,1023.00,1882.00,3300.00,1001.00,1709.00,,,,,,,,,,,,1,0,0,,56,15216,5532,-81,-228,-381
32.624,32.41,-0.47,3.43,-3.08,19.20,-13.86,-3.89,1.26,-2.48,1.84,807.00,1450.00,1083.00,693.00,1567.00,4095.00,886.00,1814.00,,,,,,,,,,,,1,0,0,,24,15240,5852,-15,-264,-410
32.663,32.47,-0.72,-1.80,0.71,-10.01,2.77,-5.44,6.79,-1.35,2.29,723.00,1611.00,749.00,1409.00,1195.00,3754.00,847.00,1714.00,,,,,,,,,,,,1,0,0,,4,15316,5780,205,-118,-969
32.725,32.52,-0.38,-1.86,3.39,-11.44,15.07,6.08,-5.01,2.50,-2.22,626.00,1503.00,395.00,1072.00,1835.00,3265.00,1008.00,1661.00,,,,,,,,,,,,1,0,0,,-192,14924,5668,182,5,-1233
32.785,32.58,-0.45,4.46,-3.88,12.81,-9.70,-1.91,-0.03,-0.94,0.23,827.00,1422.00,971.00,798.00,1621.00,3920.00,940.00,1782.00,,,,,,,,,,,,1,0,0,,-348,14852,5428,26,-52,-811
32.847,32.63,-0.62,-0.30,-0.52,-0.98,-1.89,-3.76,3.60,-1.92,2.13,752.00,1569.00,818.00,1117.00,1377.00,3825.00,863.00,1760.00,,,,,,,,,,,,1,0,0,,-324,14904,5492,-274,-48,-309
32.908,32.69,-0.60,-1.55,2.51,-7.06,6.12,-0.15,0.87,0.71,-0.23,653.00,1520.00,592.00,1146.00,1495.00,3569.00,935.00,1690.00,,,,,,,,,,,,1,0,0,,-196,15100,5448,-91,-179,-178
32.97,32.74,-0.39,1.07,-0.53,-1.77,3.40,3.46,-2.96,0.24,-0.58,734.00,1487.00,623.00,1000.00,1723.00,3429.00,961.00,1738.00,,,,,,,,,,,,1,0,0,,-228,15252,5632,-276,-384,-406
32.991,32.80,-0.58,1.15,-1.01,10.91,-8.50,-4.23,1.75,-2.52,1.96,752.00,1501.00,942.00,833.00,1535.00,4095.00,881.00,1811.00,,,,,,,,,,,,1,0,0,,-292,15156,5964,209,-152,-403
33.073,32.85,-0.78,-1.73,1.10,-9.37,3.29,-4.47,5.69,-0.42,0.96,707.00,1590.00,720.00,1355.00,1246.00,3721.00,895.00,1712.00,,,,,,,,,,,,1,0,0,,-488,15144,5656,402,-164,-43
33.113,32.91,-0.40,-0.73,1.67,-9.75,13.63,6.88,-5.80,1.50,-1.68,673.00,1505.00,414.00,1042.00,1888.00,3232.00,997.00,1703.00,,,,,,,,,,,,1,0,0,,-208,15092,5220,103,-305,62
33.154,32.96,-0.56,4.07,-3.48,19.65,-14.10,-3.72,1.00,-3.01,1.75,815.00,1429.00,1088.00,685.00,1584.00,4095.00,899.00,1857.00,,,,,,,,,,,,1,0,0,,-240,15276,5464,-281,-371,-244
33.215,33.02,-0.83,-2.70,0.84,-9.51,1.90,-5.82,6.32,-2.00,2.48,730.00,1664.00,778.00,1414.00,1234.00,3859.00,848.00,1749.00,,,,,,,,,,,,1,0,0,,-368,15084,5760,-495,-17,-646
33.276,33.07,-0.61,-2.37,3.36,-10.43,11.72,3.53,-3.31,1.43,-1.53,633.00,1535.00,465.00,1127.00,1753.00,3451.00,990.00,1701.00,,,,,,,,,,,,1,0,0,,-372,15084,5728,-398,75,-658
33.358,33.13,-0.62,3.49,-2.96,8.50,-6.18,-0.77,-0.43,-0.53,0.03,801.00,1442.00,868.00,861.00,1622.00,3787.00,943.00,1763.00,,,,,,,,,,,,1,0,0,,-352,15180,6072,-247,230,-675
33.422,33.18,-0.76,-0.61,0.11,1.04,-2.95,-3.54,2.88,-2.33,2.40,731.00,1562.00,835.00,1061.00,1426.00,3866.00,857.00,1776.00,,,,,,,,,,,,1,0,0,,-500,14972,5784,201,370,-557
33.442,33.24,-0.81,-0.39,0.96,-5.55,2.71,-1.77,2.71,-0.10,0.50,695.00,1513.00,693.00,1183.00,1394.00,3622.00,912.00,1711.00,,,,,,,,,,,,1,0,0,,-572,14936,5388,84,216,-240
33.483,33.29,-0.51,1.18,-0.29,-3.10,5.39,5.25,-4.13,0.80,-1.03,723.00,1471.00,573.00,999.00,1776.00,3295.00,975.00,1721.00,,,,,,,,,,,,1,0,0,,-552,15044,5520,-4,-65,-37
33.544,33.35,-0.70,2.63,-2.51,15.06,-11.83,-4.39,1.99,-2.61,2.01,794.00,1474.00,1046.00,773.00,1520.00,4095.00,880.00,1815.00,,,,,,,,,,,,1,0,0,,-416,14808,5752,-441,7,439
33.606,33.40,-0.88,-1.52,0.92,-9.37,3.00,-4.26,6.34,-0.44,1.32,711.00,1584.00,731.00,1365.00,1198.00,3625.00,878.00,1697.00,,,,,,,,,,,,1,0,0,,-388,15008,5976,-473,-222,94
33.647,33.46,-0.45,-1.04,2.22,-10.99,15.39,7.82,-6.06,2.22,-2.13,657.00,1501.00,385.00,1044.00,1882.00,3135.00,1008.00,1675.00,,,,,,,,,,,,1,0,0,,-292,15100,5932,-23,21,450
33.728,33.51,-0.61,5.39,-4.72,20.64,-15.12,-3.73,1.02,-2.40,1.32,851.00,1402.00,1129.00,677.00,1583.00,4095.00,910.00,1834.00,,,,,,,,,,,,1,0,0,,-408,15420,5772,624,554,-146
33.769,33.57,-0.81,-1.39,-0.03,-6.43,0.61,-4.56,5.10,-1.97,2.33,747.00,1617.00,789.00,1296.00,1288.00,3792.00,855.00,1755.00,,,,,,,,,,,,1,0,0,,-492,15448,5064,742,1226,-633
33.852,33.62,-0.62,-1.70,2.36,-7.53,7.31,2.91,-1.92,1.27,-0.92,660.00,1535.00,560.00,1131.00,1645.00,3408.00,961.00,1684.00,,,,,,,,,,,,1,0,0,,-532,14856,4660,75,1130,-513
33.872,33.68,-0.56,3.17,-2.60,6.14,-3.97,0.61,-1.11,-0.60,-0.14,790.00,1446.00,804.00,891.00,1641.00,3651.00,953.00,1776.00,,,,,,,,,,,,1,0,0,,-404,14300,4904,-993,597,510
33.933,33.73,-0.71,0.12,-0.79,4.96,-5.01,-3.54,1.71,-1.79,1.42,757.00,1554.00,869.00,960.00,1520.00,3991.00,895.00,1785.00,,,,,,,,,,,,1,0,0,,-280,15088,5352,-1037,-73,1170
33.974,33.79,-0.79,-0.38,0.41,-6.29,2.20,-2.41,3.60,0.18,0.47,716.00,1535.00,722.00,1235.00,1344.00,3627.00,909.00,1694.00,,,,,,,,,,,,1,0,0,,-32,15372,6148,-542,-114,635
34.036,33.84,-0.43,0.69,0.11,-5.28,8.24,6.49,-5.27,1.30,-1.67,714.00,1484.00,511.00,1009.00,1847.00,3235.00,1000.00,1716.00,,,,,,,,,,,,1,0,0,,136,15216,6296,-499,230,243
34.097,33.90,-0.62,3.42,-2.92,17.95,-13.19,-4.23,1.75,-2.41,1.88,800.00,1444.00,1068.00,715.00,1535.00,4095.00,883.00,1807.00,,,,,,,,,,,,1,0,0,,8,15000,5948,-246,602,-10
34.161,33.95,-0.81,-1.09,0.55,-9.18,2.87,-4.43,6.82,-0.74,1.76,720.00,1573.00,734.00,1360.00,1171.00,3603.00,862.00,1697.00,,,,,,,,,,,,1,0,0,,20,14844,6044,-71,529,107
34.201,34.01,-0.38,-1.32,3.09,-11.75,16.48,7.88,-6.09,3.06,-2.64,630.00,1483.00,368.00,1045.00,1883.00,3130.00,1021.00,1643.00,,,,,,,,,,,,1,0,0,,140,15020,5668,-183,392,163
34.262,34.06,-0.49,5.57,-4.69,17.97,-13.00,-2.67,0.62,-1.50,0.83,847.00,1391.00,1057.00,711.00,1587.00,3970.00,919.00,1793.00,,,,,,,,,,,,1,0,0,,44,14988,5916,-310,180,240
34.323,34.12,-0.62,-0.70,-0.26,-3.65,-0.63,-3.14,3.76,-1.32,1.57,747.00,1583.00,802.00,1200.00,1350.00,3717.00,880.00,1745.00,,,,,,,,,,,,1,0,0,,-20,15004,5988,108,-113,411
34.365,34.17,-0.49,-1.04,2.28,-6.71,7.00,2.03,-0.61,1.37,-0.53,655.00,1499.00,561.00,1104.00,1557.00,3406.00,939.00,1660.00,,,,,,,,,,,,1,0,0,,84,15068,5964,389,-153,458
34.427,34.23,-0.32,3.07,-2.16,2.63,-0.75,2.85,-2.13,0.56,-0.49,773.00,1435.00,720.00,939.00,1665.00,3434.00,951.00,1712.00,,,,,,,,,,,,1,0,0,,-68,14980,5816,650,50,378
34.511,34.28,-0.49,1.04,-0.90,8.21,-6.61,-3.72,1.89,-1.58,1.66,749.00,1503.00,893.00,881.00,1510.00,3999.00,880.00,1759.00,,,,,,,,,,,,1,0,0,,164,15008,5476,427,123,263
34.531,34.34,-0.62,-0.49,0.58,-7.88,2.68,-3.15,4.65,0.31,0.59,711.00,1535.00,724.00,1298.00,1287.00,3631.00,901.00,1680.00,,,,,,,,,,,,1,0,0,,104,15132,5656,178,347,256
34.594,34.39,-0.25,0.16,0.70,-7.87,10.93,6.81,-5.48,1.99,-1.84,698.00,1491.00,463.00,1040.00,1858.00,3213.00,997.00,1678.00,,,,,,,,,,,,1,0,0,,224,15332,5368,-275,719,187
34.635,34.45,-0.45,3.86,-3.43,19.27,-14.02,-4.23,1.75,-2.21,1.87,816.00,1439.00,1091.00,694.00,1535.00,4095.00,880.00,1793.00,,,,,,,,,,,,1,0,0,,288,15100,5404,-911,689,-162
34.716,34.50,-0.66,-1.75,0.77,-10.00,2.64,-4.65,6.83,-0.91,2.25,720.00,1605.00,754.00,1413.00,1175.00,3634.00,842.00,1686.00,,,,,,,,,,,,1,0,0,,256,15196,5632,-1075,430,-647
34.758,34.56,-0.29,-1.70,3.39,-10.77,14.15,6.72,-4.98,2.84,-2.11,624.00,1493.00,410.00,1070.00,1811.00,3181.00,996.00,1634.00,,,,,,,,,,,,1,0,0,,136,14984,5836,-1119,140,-1089
34.819,34.61,-0.31,4.69,-4.02,12.36,-9.22,-0.60,-0.29,-0.72,0.39,830.00,1415.00,954.00,802.00,1605.00,3747.00,928.00,1759.00,,,,,,,,,,,,1,0,0,,-60,14784,6204,-735,1,-833
34.88,34.67,-0.42,0.29,-0.57,-0.67,-1.89,-2.55,3.56,-1.62,2.38,746.00,1535.00,813.00,1103.00,1350.00,3651.00,847.00,1728.00,,,,,,,,,,,,1,0,0,,-176,14852,6056,-229,-93,-266
34.942,34.72,-0.37,-0.89,2.20,-6.26,5.79,0.56,1.12,0.95,-0.11,656.00,1493.00,594.00,1120.00,1456.00,3446.00,925.00,1669.00,,,,,,,,,,,,1,0,0,,-68,14936,6132,48,-312,-35
35.004,34.78,-0.13,1.62,-0.72,1.32,2.39,4.54,-2.93,0.76,-0.68,734.00,1462.00,622.00,909.00,1686.00,3282.00,957.00,1707.00,,,,,,,,,,,,1,0,0,,-24,14776,6120,252,-287,149
35.025,34.83,-0.32,2.67,-1.52,11.83,-8.91,-4.10,2.27,-2.06,1.95,752.00,1433.00,947.00,812.00,1489.00,4018.00,874.00,1779.00,,,,,,,,,,,,1,0,0,,20,14840,6080,366,10,414
35.085,34.89,-0.46,-1.45,1.08,-8.93,3.21,-3.08,5.66,0.20,0.85,704.00,1573.00,717.00,1334.00,1217.00,3525.00,890.00,1675.00,,,,,,,,,,,,1,0,0,,80,14840,5804,256,67,569
35.147,34.94,-0.06,-0.31,1.70,-8.90,13.21,7.67,-5.62,2.03,-1.73,667.00,1479.00,417.00,1019.00,1843.00,3117.00,990.00,1670.00,,,,,,,,,,,,1,0,0,,136,15020,5468,-147,-599,320
35.188,35.00,-0.26,4.50,-3.64,21.07,-14.58,-4.23,1.75,-2.53,1.77,816.00,1411.00,1088.00,656.00,1535.00,4095.00,890.00,1821.00,,,,,,,,,,,,1,0,0,,252,15036,5912,-114,-1151,269
35.25,35.05,-0.49,-2.20,0.77,-9.56,2.47,-4.83,6.66,-1.68,2.57,726.00,1634.00,755.00,1395.00,1190.00,3677.00,839.00,1723.00,,,,,,,,,,,,1,0,0,,588,15208,6552,134,-400,86
35.313,35.11,-0.24,-2.07,3.52,-9.92,12.11,4.57,-3.41,1.74,-1.46,624.00,1510.00,451.00,1093.00,1730.00,3321.00,981.00,1677.00,,,,,,,,,,,,1,0,0,,672,14904,6140,249,491,-306
35.376,35.16,-0.22,3.90,-3.10,9.95,-6.94,0.12,-0.47,-0.36,0.31,801.00,1424.00,881.00,830.00,1600.00,3660.00,926.00,1738.00,,,,,,,,,,,,1,0,0,,648,14988,5624,-40,685,-217
35.417,35.22,-0.34,0.03,-0.16,1.20,-2.38,-2.64,2.95,-1.71,2.48,733.00,1534.00,807.00,1038.00,1398.00,3725.00,844.00,1730.00,,,,,,,,,,,,1,0,0,,700,15188,5412,199,248,-66
35.478,35.27,-0.37,-0.14,1.20,-5.26,3.20,-0.91,2.69,0.84,0.29,683.00,1489.00,671.00,1154.00,1374.00,3503.00,907.00,1658.00,,,,,,,,,,,,1,0,0,,444,14964,5576,-161,-236,-122
35.54,35.33,-0.08,1.60,-0.36,-2.35,5.04,5.53,-3.79,1.04,-0.54,720.00,1449.00,576.00,979.00,1735.00,3230.00,945.00,1682.00,,,,,,,,,,,,1,0,0,,412,14960,5980,-354,-113,-6
35.642,35.38,-0.29,2.09,-1.10,15.41,-11.72,-4.41,2.30,-2.08,2.04,743.00,1450.00,1033.00,760.00,1495.00,4064.00,870.00,1776.00,,,,,,,,,,,,1,0,0,,608,15096,6032,-331,343,-34
35.662,35.44,-0.46,-1.03,0.94,-9.11,3.20,-3.58,6.16,0.23,1.24,704.00,1553.00,720.00,1344.00,1195.00,3547.00,871.00,1656.00,,,,,,,,,,,,1,0,0,,784,15148,5816,-281,487,-360
35.683,35.49,-0.03,-0.28,1.94,-9.78,14.84,8.14,-5.97,2.92,-1.95,658.00,1468.00,388.00,1010.00,1862.00,3088.00,986.00,1622.00,,,,,,,,,,,,1,0,0,,444,15064,5752,-68,37,-645
35.764,35.55,-0.22,5.64,-4.74,21.24,-15.22,-3.98,1.38,-2.04,1.67,848.00,1389.00,1123.00,663.00,1559.00,4095.00,887.00,1791.00,,,,,,,,,,,,1,0,0,,264,14844,5876,-66,-264,-558
35.806,35.60,-0.42,-1.57,0.53,-7.27,1.24,-4.10,5.46,-1.45,2.59,727.00,1604.00,774.00,1317.00,1253.00,3689.00,835.00,1707.00,,,,,,,,,,,,1,0,0,,276,14920,6132,-76,-126,-426
35.845,35.66,-0.22,-1.40,2.29,-7.36,7.78,3.55,-2.18,1.77,-1.02,659.00,1520.00,544.00,1109.00,1649.00,3346.00,957.00,1655.00,,,,,,,,,,,,1,0,0,,244,14936,5892,-52,255,-366
35.908,35.71,-0.18,3.55,-2.59,7.50,-4.70,0.63,-0.94,-0.13,0.07,784.00,1424.00,816.00,861.00,1626.00,3632.00,934.00,1733.00,,,,,,,,,,,,1,0,0,,304,15068,5864,-194,421,-299
36.011,35.77,-0.30,0.24,-0.31,4.33,-4.34,-2.57,1.81,-1.26,1.72,736.00,1527.00,848.00,967.00,1485.00,3829.00,872.00,1734.00,,,,,,,,,,,,1,0,0,,240,14884,5948,-95,413,-156
36.031,35.82,-0.36,-0.00,0.60,-5.22,2.12,-1.49,3.25,0.62,0.53,704.00,1505.00,711.00,1186.00,1347.00,3531.00,899.00,1662.00,,,,,,,,,,,,1,0,0,,208,15012,5888,-221,462,-164
36.072,35.88,-0.03,1.26,0.04,-4.08,7.44,6.25,-4.92,1.80,-1.61,709.00,1453.00,522.00,983.00,1820.00,3235.00,988.00,1680.00,,,,,,,,,,,,1,0,0,,232,15016,5880,-187,502,-176
36.132,35.93,-0.25,3.61,-2.75,18.07,-12.74,-4.42,2.17,-1.99,2.07,790.00,1427.00,1040.00,703.00,1506.00,4080.00,867.00,1768.00,,,,,,,,,,,,1,0,0,,340,15088,5936,-165,553,-238
36.195,35.99,-0.43,-0.70,0.88,-9.03,3.17,-3.97,6.71,0.01,1.75,702.00,1535.00,720.00,1341.00,1168.00,3549.00,851.00,1648.00,,,,,,,,,,,,1,0,0,,212,15076,5908,-151,466,-331
36.236,36.04,0.01,-0.79,2.74,-10.69,16.22,8.36,-6.33,3.49,-2.66,636.00,1466.00,366.00,1009.00,1891.00,3091.00,1014.00,1616.00,,,,,,,,,,,,1,0,0,,216,15020,5948,-138,464,-339
36.297,36.10,-0.14,6.09,-4.89,20.26,-14.22,-2.99,0.83,-1.31,1.09,848.00,1370.00,1083.00,671.00,1578.00,3998.00,903.00,1767.00,,,,,,,,,,,,1,0,0,,296,14928,5708,-230,355,-550
36.358,36.15,-0.28,-0.83,0.03,-4.24,-0.34,-2.94,3.93,-1.07,2.04,737.00,1579.00,798.00,1219.00,1333.00,3671.00,854.00,1706.00,,,,,,,,,,,,1,0,0,,84,14904,5880,-118,74,-761
36.42,36.21,-0.13,-0.98,2.26,-6.23,6.84,2.83,-1.10,2.15,-0.79,655.00,1496.00,561.00,1088.00,1575.00,3343.00,939.00,1621.00,,,,,,,,,,,,1,0,0,,-92,14832,5880,-210,80,-728
36.461,36.26,0.00,3.78,-2.66,4.82,-2.27,2.43,-1.85,0.54,-0.13,784.00,1414.00,751.00,897.00,1653.00,3466.00,933.00,1697.00,,,,,,,,,,,,1,0,0,,-136,14900,6036,-185,87,-654
36.522,36.32,-0.14,1.07,-0.86,7.39,-6.06,-2.78,1.71,-1.26,1.66,747.00,1500.00,880.00,897.00,1499.00,3872.00,875.00,1737.00,,,,,,,,,,,,1,0,0,,-140,14956,5668,-58,-84,-688
36.562,36.37,-0.26,-0.59,0.79,-6.56,2.11,-2.68,4.49,0.40,0.77,704.00,1532.00,729.00,1251.00,1287.00,3579.00,891.00,1666.00,,,,,,,,,,,,1,0,0,,-96,15032,5732,21,-257,-667
36.624,36.43,0.10,0.84,0.13,-6.09,9.02,7.06,-5.22,2.18,-1.70,711.00,1474.00,497.00,1020.00,1823.00,3159.00,986.00,1659.00,,,,,,,,,,,,1,0,0,,-272,14852,6080,-42,-490,-745
36.728,36.48,-0.13,4.02,-3.12,19.78,-13.85,-4.56,2.24,-2.25,2.29,800.00,1418.00,1071.00,677.00,1504.00,4095.00,861.00,1776.00,,,,,,,,,,,,1,0,0,,-400,14828,6000,4,-345,-526
36.748,36.54,-0.31,-0.79,0.45,-8.79,2.29,-3.79,6.91,-0.48,2.08,720.00,1559.00,752.00,1360.00,1152.00,3505.00,843.00,1665.00,,,,,,,,,,,,1,0,0,,-392,14712,5920,10,-79,-101
36.79,36.59,0.10,-1.03,3.17,-10.79,15.86,7.87,-5.56,3.64,-2.59,624.00,1463.00,374.00,1023.00,1830.00,3087.00,1007.00,1603.00,,,,,,,,,,,,1,0,0,,-264,14868,5876,-273,165,141
36.858,36.65,0.04,6.08,-4.60,16.49,-11.50,-0.97,0.23,-0.76,0.73,835.00,1360.00,1001.00,724.00,1571.00,3750.00,912.00,1746.00,,,,,,,,,,,,1,0,0,,-152,14780,6184,-184,385,115
36.916,36.70,-0.07,0.38,-0.70,-0.75,-2.64,-2.28,3.86,-1.05,2.23,750.00,1535.00,848.00,1129.00,1322.00,3583.00,845.00,1696.00,,,,,,,,,,,,1,0,0,,-88,14920,5932,-322,329,-6
36.957,36.76,0.03,-0.91,2.46,-5.89,6.36,2.04,0.29,1.94,-0.45,647.00,1484.00,572.00,1087.00,1482.00,3323.00,925.00,1619.00,,,,,,,,,,,,1,0,0,,-44,14936,5872,-158,269,-12
36.998,36.81,0.24,2.49,-1.46,0.79,1.03,4.24,-2.46,1.08,-0.34,752.00,1441.00,676.00,963.00,1653.00,3280.00,934.00,1670.00,,,,,,,,,,,,1,0,0,,-20,15084,6008,-121,144,-168
37.122,36.87,0.09,1.81,-1.21,10.44,-7.81,-2.82,1.92,-1.00,1.61,751.00,1470.00,915.00,833.00,1483.00,3856.00,873.00,1721.00,,,,,,,,,,,,1,0,0,,-136,14868,5816,22,2,-246
37.141,36.92,-0.04,-1.18,1.02,-8.78,3.21,-2.59,5.16,0.88,0.71,703.00,1559.00,715.00,1326.00,1239.00,3503.00,886.00,1637.00,,,,,,,,,,,,1,0,0,,-216,14740,5892,-74,-121,-86
37.181,36.98,0.35,-0.41,1.05,-7.56,11.56,7.90,-5.69,2.45,-1.70,692.00,1511.00,445.00,1010.00,1842.00,3095.00,981.00,1641.00,,,,,,,,,,,,1,0,0,,-176,14848,6068,-111,-108,-78
37.242,37.03,0.12,4.28,-3.52,19.85,-14.29,-4.32,1.90,-2.08,1.83,814.00,1419.00,1095.00,683.00,1526.00,4095.00,880.00,1786.00,,,,,,,,,,,,1,0,0,,-128,14880,5952,-104,103,-87
37.324,37.09,-0.11,-2.05,0.64,-9.97,2.37,-4.48,6.97,-0.93,2.43,729.00,1630.00,765.00,1422.00,1163.00,3597.00,834.00,1679.00,,,,,,,,,,,,1,0,0,,-152,14988,6124,-225,164,-107
37.344,37.14,0.21,-1.57,3.35,-10.45,13.78,6.35,-4.15,3.40,-2.23,624.00,1487.00,416.00,1067.00,1743.00,3157.00,992.00,1603.00,,,,,,,,,,,,1,0,0,,-88,15152,5904,-177,203,-51
37.467,37.20,0.21,4.63,-3.73,11.51,-8.39,0.24,-0.36,-0.17,0.31,818.00,1407.00,926.00,811.00,1587.00,3632.00,923.00,1725.00,,,,,,,,,,,,1,0,0,,-112,14824,5996,-235,229,-64
37.487,37.25,0.10,0.20,-0.34,0.40,-2.42,-1.95,3.40,-1.18,2.54,738.00,1531.00,821.00,1073.00,1347.00,3581.00,833.00,1691.00,,,,,,,,,,,,1,0,0,,136,14764,5872,-305,85,-220
37.529,37.31,0.12,-0.53,2.05,-4.68,3.42,0.35,1.85,1.26,0.15,657.00,1478.00,656.00,1121.00,1405.00,3408.00,907.00,1637.00,,,,,,,,,,,,1,0,0,,-120,14848,5904,-191,-126,-278
37.571,37.36,0.37,1.85,-0.59,-1.22,3.73,5.23,-3.13,1.45,-0.54,726.00,1444.00,606.00,970.00,1683.00,3211.00,938.00,1655.00,,,,,,,,,,,,1,0,0,,-88,14988,6220,23,-69,-247
37.632,37.42,0.17,2.41,-1.60,13.41,-9.92,-3.62,2.19,-1.77,2.19,759.00,1451.00,972.00,784.00,1483.00,3952.00,858.00,1747.00,,,,,,,,,,,,1,0,0,,-40,14880,5988,-153,33,-81
37.673,37.47,0.03,-0.38,0.41,-8.71,3.06,-2.72,5.78,0.78,1.23,716.00,1535.00,720.00,1328.00,1201.00,3463.00,863.00,1621.00,,,,,,,,,,,,1,0,0,,-44,15192,5888,51,23,-167
37.736,37.53,0.45,0.31,1.24,-9.00,13.88,8.37,-5.83,2.87,-1.77,676.00,1461.00,403.00,1005.00,1840.00,3049.00,977.00,1617.00,,,,,,,,,,,,1,0,0,,-264,14748,6316,94,-112,-378
37.818,37.58,0.21,4.95,-3.93,22.03,-15.07,-4.28,1.83,-2.17,1.90,822.00,1397.00,1098.00,640.00,1530.00,4095.00,878.00,1789.00,,,,,,,,,,,,1,0,0,,-64,14708,5912,800,201,-107
37.838,37.64,0.00,-1.35,0.25,-8.49,1.84,-3.87,6.21,-0.95,2.71,735.00,1602.00,766.00,1360.00,1198.00,3583.00,822.00,1668.00,,,,,,,,,,,,1,0,0,,312,15368,6064,142,-195,-98
37.879,37.69,0.23,-1.58,3.15,-9.21,11.22,4.48,-3.01,2.57,-1.44,631.00,1496.00,467.00,1088.00,1696.00,3298.00,965.00,1622.00,,,,,,,,,,,,1,0,0,,140,15452,6544,1780,-253,-650
37.939,37.75,0.23,4.03,-3.05,9.42,-6.34,0.33,-0.72,0.33,0.14,797.00,1415.00,861.00,834.00,1615.00,3654.00,923.00,1699.00,,,,,,,,,,,,1,0,0,,-160,15100,5756,3261,-206,-1130
38.002,37.80,0.12,0.00,-0.05,1.85,-3.16,-2.03,2.52,-1.12,2.23,729.00,1531.00,832.00,1033.00,1415.00,3678.00,846.00,1701.00,,,,,,,,,,,,1,0,0,,-596,14876,4216,2268,28,-883
38.061,37.86,0.06,0.14,0.79,-4.92,2.12,-1.03,2.95,1.25,0.25,695.00,1489.00,707.00,1172.00,1357.00,3494.00,902.00,1633.00,,,,,,,,,,,,1,0,0,,-512,15124,3648,582,-84,-475
38.103,37.91,0.37,1.72,-0.27,-2.99,5.42,6.13,-3.98,2.02,-1.16,715.00,1439.00,571.00,994.00,1734.00,3170.00,960.00,1645.00,,,,,,,,,,,,1,0,0,,-344,14192,4584,-1716,-147,-319
38.206,37.97,0.17,3.60,-2.84,16.71,-12.73,-3.65,2.05,-1.56,2.06,794.00,1431.00,1066.00,742.00,1495.00,3971.00,861.00,1739.00,,,,,,,,,,,,1,0,0,,-476,15548,5120,-927,-6,-315
38.227,38.02,-0.01,-0.26,0.27,-8.74,2.79,-3.25,6.92,0.88,0.94,720.00,1534.00,731.00,1339.00,1140.00,3430.00,875.00,1627.00,,,,,,,,,,,,1,0,0,,-308,15096,5604,-1152,-50,65
38.288,38.08,0.45,0.11,1.55,-9.82,14.90,9.20,-6.10,3.52,-2.47,667.00,1460.00,387.00,1010.00,1839.00,2972.00,1003.00,1606.00,,,,,,,,,,,,1,0,0,,-288,15164,5248,-854,23,-74
38.33,38.13,0.28,6.56,-5.50,22.64,-15.92,-3.00,1.57,-1.48,1.15,869.00,1367.00,1137.00,639.00,1516.00,3920.00,903.00,1776.00,,,,,,,,,,,,1,0,0,,-308,15292,5628,-834,116,-169
38.413,38.19,0.11,-0.75,-0.34,-5.85,0.29,-3.06,5.71,-0.70,1.83,751.00,1590.00,794.00,1277.00,1213.00,3517.00,858.00,1691.00,,,,,,,,,,,,1,0,0,,-388,14996,5616,-551,311,-184
38.454,38.24,0.33,-0.77,1.58,-6.22,7.33,4.50,-1.92,2.61,-1.35,677.00,1511.00,546.00,1073.00,1598.00,3200.00,960.00,1616.00,,,,,,,,,,,,1,0,0,,-332,15024,5288,-567,464,-26
38.515,38.30,0.44,4.39,-3.40,8.37,-4.79,2.39,-1.06,0.82,-0.66,807.00,1408.00,807.00,834.00,1585.00,3399.00,955.00,1702.00,,,,,,,,,,,,1,0,0,,-196,15060,5628,-629,294,75
38.576,38.35,0.33,0.99,-1.61,6.08,-5.60,-1.71,1.88,-0.87,1.28,779.00,1535.00,879.00,933.00,1456.00,3694.00,887.00,1728.00,,,,,,,,,,,,1,0,0,,-232,15208,5668,-694,246,91
38.636,38.41,0.24,0.15,-0.10,-3.80,1.41,-1.36,4.02,1.18,-0.01,729.00,1524.00,720.00,1143.00,1289.00,3441.00,916.00,1649.00,,,,,,,,,,,,1,0,0,,-260,15196,5868,-472,171,65
38.678,38.46,0.59,1.16,-0.69,-3.99,7.20,7.13,-5.09,2.49,-2.24,739.00,1488.00,528.00,986.00,1808.00,3139.00,1009.00,1662.00,,,,,,,,,,,,1,0,0,,-340,15136,5952,-426,198,41
38.72,38.52,0.36,2.31,-2.17,17.89,-13.20,-3.98,2.31,-1.53,1.62,784.00,1479.00,1070.00,717.00,1483.00,3996.00,881.00,1757.00,,,,,,,,,,,,1,0,0,,-184,14804,5972,-419,258,273
38.759,38.57,0.15,-0.76,-0.09,-9.41,3.04,-3.82,7.32,0.46,1.10,741.00,1580.00,730.00,1366.00,1127.00,3470.00,874.00,1647.00,,,,,,,,,,,,1,0,0,,-124,15056,6148,-375,500,103
38.841,38.63,0.60,-0.50,1.71,-9.82,15.04,9.16,-6.26,3.78,-2.92,669.00,1490.00,384.00,1006.00,1857.00,2990.00,1023.00,1609.00,,,,,,,,,,,,1,0,0,,-48,14884,5816,-76,392,118
38.926,38.68,0.47,6.52,-5.74,20.79,-14.28,-2.07,1.38,-0.84,0.67,881.00,1378.00,1076.00,658.00,1506.00,3798.00,916.00,1754.00,,,,,,,,,,,,1,0,0,,-124,15044,5884,28,286,285
38.946,38.74,0.34,-0.18,-1.09,-3.55,-0.36,-2.15,4.20,-0.58,1.39,774.00,1586.00,789.00,1187.00,1295.00,3533.00,877.00,1703.00,,,,,,,,,,,,1,0,0,,-16,14924,5792,-19,398,294
38.988,38.79,0.50,-0.56,1.29,-5.95,6.94,3.68,-0.91,2.50,-1.24,685.00,1510.00,555.00,1073.00,1535.00,3216.00,956.00,1618.00,,,,,,,,,,,,1,0,0,,-8,15408,5612,-72,299,232
39.049,38.85,0.62,4.16,-3.30,5.49,-2.30,2.90,-1.56,1.04,-0.88,806.00,1417.00,743.00,874.00,1613.00,3376.00,963.00,1698.00,,,,,,,,,,,,1,0,0,,152,15172,5736,154,186,-118
39.09,38.90,0.50,1.42,-1.82,8.52,-6.46,-1.88,1.75,-0.74,1.09,782.00,1518.00,881.00,867.00,1471.00,3732.00,894.00,1728.00,,,,,,,,,,,,1,0,0,,152,15384,5924,362,162,-438
39.153,38.96,0.40,-0.04,-0.09,-6.31,2.41,-1.52,4.14,1.14,-0.05,731.00,1535.00,714.00,1229.00,1284.00,3451.00,919.00,1654.00,,,,,,,,,,,,1,0,0,,-144,15080,5776,604,494,-822
39.215,39.01,0.76,1.16,-0.69,-5.70,9.39,7.67,-5.36,2.30,-2.24,739.00,1488.00,484.00,995.00,1817.00,3095.00,1013.00,1675.00,,,,,,,,,,,,1,0,0,,-112,14960,5360,113,789,-701
39.298,39.07,0.52,3.56,-3.69,20.05,-14.03,-4.12,2.11,-1.79,1.40,832.00,1466.00,1076.00,673.00,1503.00,4039.00,896.00,1786.00,,,,,,,,,,,,1,0,0,,-340,14864,5524,-570,547,-780
39.319,39.12,0.28,-1.05,-0.49,-9.27,2.42,-4.21,7.10,-0.23,1.23,761.00,1615.00,753.00,1381.00,1149.00,3546.00,879.00,1687.00,,,,,,,,,,,,1,0,0,,-384,14980,5460,-868,225,-277
39.38,39.18,0.66,-1.17,1.88,-10.69,15.10,7.94,-5.69,3.58,-3.16,671.00,1523.00,389.00,1040.00,1840.00,3089.00,1040.00,1632.00,,,,,,,,,,,,1,0,0,,-304,14868,6012,-462,60,-6
39.421,39.23,0.57,5.50,-5.33,17.01,-12.06,-1.16,0.31,-0.81,0.16,878.00,1419.00,1022.00,720.00,1570.00,3771.00,941.00,1776.00,,,,,,,,,,,,1,0,0,,-252,15140,5720,-191,187,-205
39.482,39.29,0.43,-0.02,-1.41,-1.57,-1.65,-2.23,3.94,-1.09,1.52,785.00,1589.00,816.00,1136.00,1315.00,3569.00,879.00,1732.00,,,,,,,,,,,,1,0,0,,-196,15100,6000,217,133,-111
39.543,39.34,0.53,-0.92,1.60,-5.67,6.36,2.45,0.07,1.83,-0.92,678.00,1519.00,570.00,1078.00,1489.00,3289.00,951.00,1647.00,,,,,,,,,,,,1,0,0,,-92,14528,5728,78,106,-209
39.604,39.40,0.72,2.73,-2.61,1.60,0.57,4.17,-2.30,0.99,-0.93,797.00,1472.00,683.00,944.00,1641.00,3275.00,966.00,1703.00,,,,,,,,,,,,1,0,0,,-104,15244,5700,103,197,-479
