Time_Host,Time_Arduino,easingdata,CH1_Oxy,CH1_Deoxy,CH2_Oxy,CH2_Deoxy,CH3_Oxy,CH3_Deoxy,CH4_Oxy,CH4_Deoxy,CH1_PD730,CH1_PD850,CH2_PD730,CH2_PD850,CH3_PD730,CH3_PD850,CH4_PD730,CH4_PD850,Answers,airplane_playstate,trail_times,frameRate,Airplane X,Airplane Y,Correct,Wrong,Slow,AnswerRate,CorrectRate,VFTstates,VFTchoose,VFTCount,Culfstates,ax,ay,az,gx,gy,gz
1.211,0.04,0.00,0.00,0.00,0.00,0.00,0.00,0.00,0.00,0.00,887.00,1565.00,283.00,373.00,725.00,1117.00,2143.00,2435.00,,,,,,,,,,,,0,0,0,,-5804,15172,-1752,-4,271,-98
1.23,0.10,0.00,0.00,0.00,0.00,0.00,0.00,0.00,0.00,0.00,868.00,1517.00,273.00,355.00,728.00,1095.00,2171.00,2418.00,,,,,,,,,,,,0,0,0,,-5688,15040,-1560,-290,59,-168
1.251,0.15,0.00,0.00,0.00,0.00,0.00,0.00,0.00,0.00,0.00,886.00,1488.00,288.00,346.00,720.00,1103.00,2153.00,2438.00,,,,,,,,,,,,0,0,0,,-5824,15128,-1484,-289,15,-109
1.272,0.21,0.00,0.00,0.00,0.00,0.00,0.00,0.00,0.00,0.00,879.00,1506.00,278.00,355.00,704.00,1098.00,2118.00,2447.00,,,,,,,,,,,,0,0,0,,-5848,15068,-1488,-212,48,-130
1.293,0.26,0.00,0.00,0.00,0.00,0.00,0.00,0.00,0.00,0.00,852.00,1519.00,269.00,353.00,720.00,1085.00,2158.00,2427.00,,,,,,,,,,,,0,0,0,,-5888,15108,-1716,-78,114,-270
1.313,1.05,0.00,0.00,0.00,0.00,0.00,0.00,0.00,0.00,0.00,885.00,1458.00,272.00,324.00,705.00,1044.00,2148.00,2421.00,,,,,,,,,,,,0,0,0,,-5832,15136,-1480,-55,162,-92
1.333,1.11,0.00,0.00,0.00,0.00,0.00,0.00,0.00,0.00,0.00,885.00,1499.00,279.00,336.00,692.00,1043.00,2119.00,2455.00,,,,,,,,,,,,0,0,0,,-5744,15176,-1640,-159,140,-78
1.395,1.16,0.00,0.00,0.00,0.00,0.00,0.00,0.00,0.00,0.00,866.00,1509.00,272.00,341.00,697.00,1023.00,2143.00,2430.00,,,,,,,,,,,,0,0,0,,-5716,15144,-1508,-142,18,-223
1.437,1.22,0.00,0.00,0.00,0.00,0.00,0.00,0.00,0.00,0.00,869.00,1471.00,274.00,335.00,705.00,1009.00,2164.00,2409.00,,,,,,,,,,,,0,0,0,,-5900,14996,-1368,-294,-22,-227
1.5,1.27,0.00,0.00,0.00,0.00,0.00,0.00,0.00,0.00,0.00,897.00,1461.00,289.00,330.00,689.00,1023.00,2135.00,2444.00,,,,,,,,,,,,0,0,0,,-5908,15104,-1376,-129,109,-87
1.602,1.33,0.07,0.05,0.20,-0.09,0.55,1.36,0.19,0.17,0.19,867.00,1488.00,270.00,341.00,684.00,1003.00,2117.00,2404.00,,,,,,,,,,,,0,0,0,,-5892,15160,-1296,-109,133,-95
1.623,1.38,0.17,0.26,0.35,1.04,0.10,2.14,-0.55,0.65,-0.38,857.00,1470.00,271.00,330.00,702.00,992.00,2164.00,2395.00,,,,,,,,,,,,0,0,0,,-5784,15108,-1636,-90,110,-194
1.664,1.44,0.24,1.24,-0.68,2.74,-1.14,1.47,0.08,0.13,0.03,890.00,1454.00,281.00,319.00,687.00,1002.00,2137.00,2418.00,,,,,,,,,,,,0,0,0,,-5900,15028,-1472,-250,-105,-166
1.727,1.49,0.28,0.40,0.02,1.22,-0.16,1.10,0.80,-0.17,0.36,870.00,1475.00,274.00,330.00,665.00,997.00,2110.00,2425.00,,,,,,,,,,,,0,0,0,,-5844,15144,-1448,-191,-145,-112
1.767,1.55,0.38,-0.30,0.73,0.80,0.11,2.33,-0.21,0.48,-0.16,848.00,1488.00,272.00,333.00,687.00,976.00,2145.00,2397.00,,,,,,,,,,,,0,0,0,,-5836,15204,-1388,-83,-86,-133
1.828,1.60,0.45,0.81,-0.33,2.21,-0.36,1.77,-0.19,-0.10,-0.02,880.00,1465.00,272.00,319.00,693.00,997.00,2151.00,2443.00,,,,,,,,,,,,0,0,0,,-5856,15160,-1360,-52,9,-224
1.89,1.66,0.49,0.21,-0.36,1.23,-0.63,1.30,0.21,-0.52,0.29,891.00,1501.00,281.00,334.00,684.00,1005.00,2132.00,2464.00,,,,,,,,,,,,0,0,0,,-5864,15056,-1380,-167,-31,-221
1.951,1.71,0.54,-0.47,0.06,0.03,0.37,1.45,0.13,-0.20,-0.05,882.00,1525.00,272.00,341.00,685.00,1001.00,2159.00,2455.00,,,,,,,,,,,,0,0,0,,-5924,15044,-1388,-149,-37,-213
2.034,1.77,0.62,-0.20,-0.09,1.00,0.05,2.09,-0.67,-0.18,-0.36,885.00,1515.00,272.00,331.00,707.00,997.00,2195.00,2474.00,,,,,,,,,,,,0,0,0,,-5904,15040,-1536,-128,-68,-182
2.055,1.82,0.63,0.32,-0.96,2.19,-2.04,0.81,0.27,-1.06,0.21,919.00,1519.00,298.00,334.00,688.00,1023.00,2162.00,2522.00,,,,,,,,,,,,0,0,0,,-5832,15132,-1236,-131,-103,-161
2.096,1.88,0.65,-1.22,0.11,0.12,-1.16,1.08,0.21,-0.87,0.24,892.00,1569.00,295.00,354.00,687.00,1014.00,2151.00,2501.00,,,,,,,,,,,,0,0,0,,-5840,15060,-1352,-71,58,-114
2.18,1.93,0.73,-0.45,-0.11,0.51,0.21,2.13,-0.57,0.02,-0.41,890.00,1531.00,272.00,336.00,703.00,993.00,2192.00,2457.00,,,,,,,,,,,,0,0,0,,-5904,15088,-1412,-92,7,-322
2.263,1.99,0.77,0.87,-0.58,2.32,-0.87,1.60,0.03,-0.33,-0.02,891.00,1471.00,279.00,322.00,687.00,998.00,2161.00,2466.00,,,,,,,,,,,,0,0,0,,-5960,14956,-1400,-199,-40,-195
2.284,2.04,0.82,0.63,-0.25,0.88,-0.12,1.77,0.38,-0.36,0.30,879.00,1472.00,275.00,334.00,672.00,982.00,2124.00,2447.00,,,,,,,,,,,,0,0,0,,-5940,14948,-1384,-87,-6,-135
2.326,2.10,0.92,0.03,0.77,0.09,0.84,2.80,-0.37,0.60,-0.21,841.00,1467.00,265.00,336.00,687.00,962.00,2146.00,2389.00,,,,,,,,,,,,0,0,0,,-5940,15016,-1284,-34,-75,-135
2.388,2.15,0.99,1.36,-0.45,2.33,-0.54,2.30,-0.18,0.13,-0.15,877.00,1438.00,274.00,319.00,686.00,976.00,2157.00,2429.00,,,,,,,,,,,,0,0,0,,-5856,15172,-1380,29,16,-42
2.449,2.21,1.04,0.78,-0.34,1.78,-0.42,2.14,0.07,-0.10,0.18,881.00,1467.00,275.00,325.00,679.00,976.00,2128.00,2430.00,,,,,,,,,,,,0,0,0,,-5884,15156,-1324,-86,-6,-225
2.511,2.26,1.11,0.24,0.05,0.51,0.21,2.35,0.02,0.43,-0.11,871.00,1483.00,272.00,336.00,678.00,969.00,2141.00,2398.00,,,,,,,,,,,,0,0,0,,-5896,15108,-1292,-108,50,-237
2.552,2.32,1.20,0.78,-0.23,2.11,-0.33,2.91,-0.65,0.47,-0.45,876.00,1463.00,272.00,320.00,696.00,965.00,2179.00,2416.00,,,,,,,,,,,,0,0,0,,-5936,15044,-1160,-68,35,-123
2.614,2.37,1.24,1.25,-1.14,3.53,-2.43,1.98,-0.12,-0.38,0.13,912.00,1471.00,297.00,320.00,688.00,987.00,2145.00,2461.00,,,,,,,,,,,,0,0,0,,-5908,15156,-1252,-38,49,-103
2.697,2.43,1.28,-0.34,0.06,0.57,0.12,2.03,0.27,0.14,-0.31,880.00,1517.00,273.00,336.00,673.00,975.00,2176.00,2439.00,,,,,,,,,,,,0,0,0,,-5892,15080,-1308,-64,95,-135
2.718,2.48,1.32,-0.16,0.34,1.56,0.13,2.21,-0.04,0.27,-0.36,864.00,1495.00,268.00,323.00,682.00,976.00,2177.00,2430.00,,,,,,,,,,,,0,0,0,,-5928,15116,-1276,-233,61,-163
2.76,2.54,1.40,0.81,-0.56,2.51,-0.80,2.89,-1.50,-0.27,-0.04,891.00,1474.00,277.00,319.00,729.00,988.00,2160.00,2461.00,,,,,,,,,,,,0,0,0,,-5832,14980,-1220,-262,-56,-68
2.821,2.59,1.40,-0.08,-0.34,1.00,0.05,1.35,0.66,-0.67,0.37,895.00,1518.00,272.00,331.00,667.00,991.00,2128.00,2473.00,,,,,,,,,,,,0,0,0,,-5932,15140,-1128,-155,-39,-17
2.882,2.65,1.45,-0.61,0.51,0.28,0.77,2.36,-0.22,0.24,-0.21,863.00,1515.00,265.00,334.00,687.00,975.00,2160.00,2423.00,,,,,,,,,,,,0,0,0,,-5924,15256,-1228,-107,80,-214
2.925,2.70,1.51,1.04,-0.36,2.31,-0.40,2.69,-0.36,0.26,-0.22,878.00,1453.00,272.00,318.00,688.00,966.00,2161.00,2422.00,,,,,,,,,,,,0,0,0,,-5884,15060,-1128,-80,111,-235
2.987,2.76,1.54,0.98,-0.43,2.61,-0.83,2.04,0.21,-0.46,0.28,882.00,1459.00,277.00,318.00,675.00,976.00,2131.00,2459.00,,,,,,,,,,,,0,0,0,,-5856,15004,-1284,42,108,-95
3.071,2.81,1.58,0.22,0.10,0.49,0.36,2.44,0.16,0.13,0.10,869.00,1482.00,270.00,335.00,672.00,962.00,2128.00,2413.00,,,,,,,,,,,,0,0,0,,-5908,15140,-1272,92,131,-140
3.092,2.87,1.65,0.75,-0.12,1.64,0.24,2.88,-0.45,0.51,-0.42,871.00,1460.00,266.00,321.00,689.00,961.00,2174.00,2411.00,,,,,,,,,,,,0,0,0,,-5964,15152,-1408,44,238,-89
3.152,2.92,1.66,1.41,-0.97,3.63,-1.50,1.93,0.33,-0.32,0.23,901.00,1455.00,282.00,311.00,672.00,977.00,2131.00,2448.00,,,,,,,,,,,,0,0,0,,-5872,15088,-1260,-80,84,-154
3.193,2.98,1.69,0.20,-0.06,1.87,0.03,2.16,0.31,0.03,0.19,877.00,1490.00,268.00,320.00,670.00,969.00,2122.00,2417.00,,,,,,,,,,,,0,0,0,,-5844,14984,-1248,-234,-107,-39
3.255,3.03,1.75,0.31,0.22,1.36,0.55,2.96,-0.18,0.45,-0.19,862.00,1472.00,263.00,322.00,678.00,951.00,2149.00,2401.00,,,,,,,,,,,,0,0,0,,-5892,15120,-1060,-152,-67,-72
3.337,3.09,1.78,1.14,-0.54,3.04,-0.64,2.26,-0.00,-0.18,0.03,885.00,1454.00,272.00,311.00,680.00,973.00,2149.00,2448.00,,,,,,,,,,,,0,0,0,,-5800,15032,-1136,-104,69,-141
3.46,3.14,1.79,0.31,-0.35,1.98,-0.49,1.98,0.25,-0.56,0.41,889.00,1495.00,275.00,323.00,674.00,977.00,2119.00,2459.00,,,,,,,,,,,,0,0,0,,-5824,15016,-1252,-69,31,-105
3.482,3.20,1.81,-0.59,0.68,0.13,1.10,2.34,0.11,0.15,-0.17,855.00,1507.00,261.00,333.00,675.00,967.00,2159.00,2429.00,,,,,,,,,,,,0,0,0,,-5860,15016,-1260,-174,-16,-111
3.503,3.25,1.84,0.48,-0.44,1.48,0.02,2.40,-0.40,-0.27,-0.17,891.00,1489.00,270.00,325.00,693.00,978.00,2175.00,2469.00,,,,,,,,,,,,0,0,0,,-5908,15144,-944,-194,40,-98
3.545,3.31,1.82,0.16,-0.75,1.76,-1.07,1.33,0.10,-0.94,0.18,911.00,1520.00,285.00,331.00,688.00,1007.00,2161.00,2512.00,,,,,,,,,,,,0,0,0,,-5788,15160,-1220,-129,3,-15
3.608,3.36,1.83,-1.03,0.19,-0.73,0.63,2.16,-0.05,-0.32,-0.02,885.00,1554.00,272.00,349.00,683.00,978.00,2160.00,2465.00,,,,,,,,,,,,0,0,0,,-5864,15240,-1032,-40,-87,-202
3.649,3.42,1.89,0.43,-0.32,1.75,-0.61,2.88,-0.80,0.26,-0.43,886.00,1487.00,278.00,327.00,702.00,970.00,2185.00,2435.00,,,,,,,,,,,,0,0,0,,-5916,14940,-840,-164,151,-240
3.732,3.47,1.89,1.55,-1.31,3.86,-2.91,1.97,0.23,-0.40,0.12,916.00,1461.00,303.00,320.00,675.00,978.00,2147.00,2463.00,,,,,,,,,,,,0,0,0,,-5968,15088,-1192,-27,179,-151
3.794,3.53,1.91,0.20,-0.02,1.12,-0.46,2.34,0.19,-0.07,0.17,875.00,1488.00,279.00,334.00,672.00,965.00,2128.00,2428.00,,,,,,,,,,,,0,0,0,,-5880,15032,-1144,106,160,-107
3.814,3.58,1.96,0.12,0.44,1.04,0.45,2.81,-0.27,0.57,-0.29,855.00,1475.00,266.00,327.00,683.00,959.00,2157.00,2397.00,,,,,,,,,,,,0,0,0,,-5920,15204,-1096,26,283,-109
3.855,3.64,1.98,1.03,-0.40,2.83,-0.57,2.40,-0.13,-0.01,-0.03,880.00,1455.00,272.00,313.00,683.00,971.00,2149.00,2435.00,,,,,,,,,,,,0,0,0,,-5796,15024,-1176,-93,203,-219
3.916,3.69,1.96,0.61,-0.49,1.80,-0.22,1.48,1.04,-0.42,0.39,891.00,1483.00,272.00,323.00,652.00,976.00,2117.00,2448.00,,,,,,,,,,,,0,0,0,,-5896,15056,-1272,-66,64,-84
3.978,3.75,1.99,-0.32,0.61,0.28,0.77,2.74,-0.24,0.19,-0.05,854.00,1494.00,265.00,334.00,683.00,961.00,2143.00,2417.00,,,,,,,,,,,,0,0,0,,-5852,15244,-1168,-6,104,-141
4.038,3.80,2.02,0.28,-0.25,2.01,-0.29,2.46,-0.34,0.01,-0.21,885.00,1493.00,272.00,321.00,690.00,974.00,2169.00,2445.00,,,,,,,,,,,,0,0,0,,-5868,15056,-1200,-16,242,-180
4.1,3.86,2.05,0.55,-0.90,1.46,-0.97,2.62,-0.68,-0.70,0.12,912.00,1503.00,285.00,334.00,701.00,977.00,2159.00,2493.00,,,,,,,,,,,,0,0,0,,-5840,15124,-1300,-94,161,-77
4.162,3.91,2.03,-0.44,-0.69,0.48,-0.83,1.76,-0.02,-0.42,0.06,918.00,1554.00,288.00,346.00,687.00,993.00,2155.00,2469.00,,,,,,,,,,,,0,0,0,,-5800,15160,-1320,-113,57,-97
4.183,3.97,2.06,-0.32,-0.01,0.51,0.21,2.56,-0.74,0.22,-0.57,883.00,1519.00,272.00,336.00,704.00,981.00,2203.00,2448.00,,,,,,,,,,,,0,0,0,,-5772,15116,-1108,-177,89,-241
4.244,4.02,2.07,1.05,-1.09,3.69,-2.54,2.35,-0.25,-0.36,0.08,913.00,1481.00,298.00,319.00,688.00,976.00,2150.00,2462.00,,,,,,,,,,,,0,0,0,,-5812,15128,-1088,-260,80,-177
4.306,4.08,2.07,0.31,-0.18,1.22,-0.50,2.05,0.34,-0.17,0.20,881.00,1488.00,279.00,333.00,670.00,972.00,2128.00,2435.00,,,,,,,,,,,,0,0,0,,-5824,15120,-988,-118,122,-150
4.367,4.13,2.11,-0.08,0.55,0.47,0.50,2.80,-0.37,0.43,-0.21,853.00,1482.00,268.00,334.00,687.00,962.00,2153.00,2405.00,,,,,,,,,,,,0,0,0,,-5816,15184,-960,5,251,-95
4.409,4.19,2.12,0.84,-0.49,2.53,-1.07,2.37,-0.20,-0.10,-0.09,887.00,1469.00,281.00,321.00,686.00,974.00,2160.00,2448.00,,,,,,,,,,,,0,0,0,,-5832,15284,-1344,90,231,-208
4.471,4.24,2.11,0.39,-0.52,1.68,-0.38,1.96,0.21,-0.37,0.28,896.00,1497.00,275.00,326.00,676.00,979.00,2127.00,2450.00,,,,,,,,,,,,0,0,0,,-5820,15028,-1096,-18,85,-196
4.532,4.30,2.12,-0.22,0.23,0.33,0.48,2.28,-0.14,-0.11,0.01,870.00,1503.00,269.00,336.00,685.00,976.00,2149.00,2443.00,,,,,,,,,,,,0,0,0,,-5772,15028,-1060,-3,26,-203
4.594,4.35,2.15,0.09,-0.27,0.77,-0.28,2.72,-0.80,0.06,-0.38,889.00,1505.00,278.00,337.00,704.00,976.00,2187.00,2451.00,,,,,,,,,,,,0,0,0,,-5864,15204,-1152,5,183,-177
4.657,4.41,2.12,0.52,-1.13,2.72,-2.03,1.51,0.01,-0.86,0.16,924.00,1514.00,295.00,327.00,689.00,1002.00,2160.00,2506.00,,,,,,,,,,,,0,0,0,,-5796,15120,-1160,2,226,-210
4.677,4.46,2.10,-0.85,-0.20,-0.61,-0.08,1.67,0.03,-0.57,0.12,901.00,1559.00,282.00,354.00,686.00,995.00,2154.00,2480.00,,,,,,,,,,,,0,0,0,,-5912,15040,-1372,-80,114,-108
4.739,4.52,2.11,-0.52,-0.11,0.26,0.02,2.40,-0.74,-0.14,-0.37,891.00,1535.00,276.00,341.00,706.00,987.00,2194.00,2470.00,,,,,,,,,,,,0,0,0,,-5932,15088,-916,-89,60,-106
4.802,4.57,2.08,0.14,-1.08,1.88,-1.81,1.46,-0.14,-0.77,-0.06,928.00,1535.00,296.00,336.00,695.00,1008.00,2183.00,2512.00,,,,,,,,,,,,0,0,0,,-5788,15048,-1136,-167,82,-181
4.885,4.63,2.04,-0.85,-0.47,0.36,-0.67,1.21,0.19,-1.14,0.26,914.00,1570.00,286.00,346.00,686.00,1009.00,2160.00,2527.00,,,,,,,,,,,,0,0,0,,-5840,15056,-1236,-207,35,-209
4.907,4.68,2.04,-1.59,0.29,-1.30,0.62,2.18,-0.56,-0.60,-0.14,889.00,1584.00,275.00,357.00,702.00,991.00,2186.00,2501.00,,,,,,,,,,,,0,0,0,,-5800,15024,-1052,-55,58,-144
4.968,4.74,2.02,-0.59,-0.66,1.40,-1.21,1.53,-0.42,-0.86,-0.26,919.00,1562.00,289.00,337.00,705.00,1013.00,2210.00,2534.00,,,,,,,,,,,,0,0,0,,-5928,15312,-1340,-79,243,-274
5.031,4.79,1.98,-0.13,-0.69,0.68,-1.03,1.31,0.05,-0.91,0.19,913.00,1535.00,290.00,345.00,690.00,1009.00,2159.00,2509.00,,,,,,,,,,,,0,0,0,,-5792,14964,-1076,-123,129,-252
5.093,4.85,1.98,-0.54,-0.08,-0.49,-0.05,1.89,-0.36,-0.49,0.01,890.00,1535.00,281.00,352.00,698.00,997.00,2163.00,2479.00,,,,,,,,,,,,0,0,0,,-5856,15028,-1136,-7,17,-135
5.155,4.90,2.00,-0.18,-0.22,-0.11,-0.51,2.39,-0.84,-0.03,-0.55,891.00,1519.00,286.00,351.00,710.00,990.00,2211.00,2471.00,,,,,,,,,,,,0,0,0,,-5988,15192,-1144,6,228,-120
5.175,4.96,1.97,0.39,-1.09,1.52,-1.94,1.39,-0.22,-0.90,0.12,924.00,1520.00,300.00,342.00,699.00,1013.00,2167.00,2513.00,,,,,,,,,,,,0,0,0,,-5912,15052,-1264,33,357,-82
5.28,5.01,1.92,-0.87,-0.18,-1.54,-0.15,0.99,0.16,-0.48,0.10,900.00,1559.00,288.00,368.00,690.00,1019.00,2153.00,2473.00,,,,,,,,,,,,0,0,0,,-5900,15024,-1196,-97,123,-177
5.3,5.07,1.93,-0.58,0.10,-0.45,0.53,2.11,-0.46,0.03,-0.42,882.00,1530.00,272.00,346.00,699.00,991.00,2193.00,2457.00,,,,,,,,,,,,0,0,0,,-5856,15164,-1176,-130,-28,-112
5.384,5.12,1.91,0.12,-0.61,1.14,-1.37,1.60,-0.34,-0.51,-0.05,905.00,1517.00,293.00,342.00,701.00,1008.00,2171.00,2485.00,,,,,,,,,,,,0,0,0,,-5824,15164,-1240,-66,111,-119
5.406,5.18,1.88,-0.64,-0.42,0.06,-0.76,1.29,0.11,-0.80,0.20,908.00,1555.00,289.00,351.00,688.00,1008.00,2154.00,2498.00,,,,,,,,,,,,0,0,0,,-5964,15076,-1212,-42,237,-245
5.467,5.23,1.88,-1.26,0.27,-1.29,0.82,1.86,-0.51,-0.36,-0.18,885.00,1565.00,272.00,355.00,704.00,1002.00,2180.00,2479.00,,,,,,,,,,,,0,0,0,,-5832,15040,-1380,6,127,-133
5.509,5.29,1.86,0.12,-1.06,-0.91,-0.37,1.55,-0.54,-0.63,-0.19,927.00,1535.00,288.00,361.00,709.00,1015.00,2193.00,2507.00,,,,,,,,,,,,0,0,0,,-5884,15156,-1168,-137,39,-114
5.57,5.34,1.75,-0.85,-0.75,0.71,-1.60,-0.41,1.56,-1.19,0.09,928.00,1582.00,299.00,350.00,656.00,1037.00,2182.00,2544.00,,,,,,,,,,,,0,0,0,,-5892,15216,-1168,-164,99,-178
5.631,5.40,1.70,-1.68,-0.29,-1.65,-0.50,0.83,-0.16,-1.05,0.06,919.00,1615.00,294.00,373.00,704.00,1034.00,2179.00,2531.00,,,,,,,,,,,,0,0,0,,-5724,15040,-1020,-199,200,-90
5.694,5.45,1.72,-1.01,-0.41,-0.42,-0.79,1.97,-0.96,-0.32,-0.50,914.00,1578.00,292.00,358.00,720.00,1010.00,2217.00,2497.00,,,,,,,,,,,,0,0,0,,-5872,15040,-1088,-166,54,-299
5.734,5.51,1.68,0.47,-1.57,0.81,-2.60,0.97,0.03,-0.98,0.09,947.00,1535.00,315.00,358.00,695.00,1023.00,2173.00,2522.00,,,,,,,,,,,,0,0,0,,-5924,15072,-1104,-154,66,-107
5.796,5.56,1.66,-1.54,0.53,-0.70,-1.19,1.36,-0.02,-0.62,0.14,877.00,1571.00,300.00,366.00,692.00,1009.00,2153.00,2483.00,,,,,,,,,,,,0,0,0,,-5872,15084,-1060,41,160,-119
5.858,5.62,1.68,-0.34,-0.38,0.04,-0.94,1.94,-0.59,-0.17,-0.21,901.00,1535.00,292.00,353.00,706.00,1001.00,2177.00,2463.00,,,,,,,,,,,,0,0,0,,-5840,15148,-1160,63,262,-112
5.922,5.67,1.67,0.21,-1.05,1.35,-2.13,1.46,-0.40,-0.59,-0.15,925.00,1529.00,304.00,346.00,705.00,1015.00,2186.00,2500.00,,,,,,,,,,,,0,0,0,,-5944,15112,-1352,50,180,-213
6.042,5.73,1.63,-0.49,-0.69,0.15,-1.72,0.85,0.28,-0.79,0.15,919.00,1557.00,304.00,359.00,687.00,1021.00,2159.00,2500.00,,,,,,,,,,,,0,0,0,,-5948,14964,-1216,-82,40,-122
6.062,5.78,1.62,-1.27,0.04,-1.25,-0.38,1.57,-0.31,-0.36,-0.19,896.00,1575.00,290.00,366.00,700.00,1008.00,2182.00,2480.00,,,,,,,,,,,,0,0,0,,-6024,15116,-1176,-38,-57,-59
6.082,5.84,1.61,-0.52,-0.54,0.46,-1.02,1.40,-0.38,-0.20,-0.38,912.00,1553.00,291.00,348.00,705.00,1017.00,2198.00,2477.00,,,,,,,,,,,,0,0,0,,-5856,15088,-1284,46,68,-71
6.124,5.89,1.56,-0.81,-0.78,0.70,-1.91,0.61,-0.09,-1.24,0.15,929.00,1581.00,304.00,353.00,704.00,1041.00,2176.00,2544.00,,,,,,,,,,,,0,0,0,,-5888,15160,-1436,41,83,-112
6.184,5.95,1.53,-1.97,-0.07,-2.43,-0.24,0.95,0.06,-0.90,-0.04,913.00,1624.00,294.00,382.00,694.00,1023.00,2186.00,2524.00,,,,,,,,,,,,0,0,0,,-5812,15096,-1228,-79,192,-148
6.246,6.00,1.52,-1.33,-0.49,-0.66,-1.45,1.22,-0.73,-0.65,-0.45,923.00,1601.00,304.00,368.00,721.00,1034.00,2224.00,2526.00,,,,,,,,,,,,0,0,0,,-5936,15080,-1036,-191,154,-106
6.372,6.06,1.44,-0.54,-1.65,0.77,-3.05,0.06,-0.08,-1.60,0.06,969.00,1601.00,323.00,363.00,711.00,1064.00,2201.00,2587.00,,,,,,,,,,,,0,0,0,,-5860,15016,-1184,-151,170,-29
6.392,6.11,1.39,-1.68,-0.45,-1.46,-1.18,0.43,0.21,-1.12,0.11,927.00,1622.00,304.00,377.00,695.00,1040.00,2176.00,2535.00,,,,,,,,,,,,0,0,0,,-5788,15256,-1164,-174,120,-381
6.413,6.17,1.41,-1.33,0.12,-1.54,-0.15,1.65,-0.39,-0.22,-0.27,893.00,1575.00,288.00,368.00,702.00,1007.00,2185.00,2471.00,,,,,,,,,,,,0,0,0,,-5844,15060,-1288,-146,70,-203
6.454,6.22,1.40,-0.14,-0.67,0.19,-1.37,1.25,-0.38,-0.68,-0.04,912.00,1535.00,298.00,355.00,707.00,1023.00,2177.00,2502.00,,,,,,,,,,,,0,0,0,,-5944,15076,-1068,70,109,-92
6.495,6.28,1.37,-0.89,-0.48,0.04,-1.56,0.88,0.17,-0.86,0.26,915.00,1573.00,302.00,359.00,691.00,1023.00,2149.00,2499.00,,,,,,,,,,,,0,0,0,,-5796,14904,-1100,86,234,-51
6.557,6.33,1.37,-1.70,0.45,-1.95,0.24,1.23,-0.35,-0.48,-0.14,883.00,1584.00,284.00,370.00,706.00,1023.00,2181.00,2489.00,,,,,,,,,,,,0,0,0,,-5864,15292,-1380,35,278,-165
6.619,6.39,1.38,-0.94,-0.40,-1.06,-0.76,1.68,-0.86,-0.37,-0.42,912.00,1573.00,295.00,367.00,720.00,1019.00,2209.00,2496.00,,,,,,,,,,,,0,0,0,,-5840,15076,-1192,-76,157,-175
6.66,6.44,1.34,-0.38,-1.22,1.05,-2.74,0.49,-0.13,-0.86,0.03,944.00,1573.00,316.00,356.00,707.00,1047.00,2176.00,2515.00,,,,,,,,,,,,0,0,0,,-5820,15128,-1188,-34,22,-122
6.742,6.50,1.32,-1.79,-0.11,-2.13,-0.77,1.07,-0.11,-0.83,0.06,912.00,1614.00,301.00,383.00,699.00,1023.00,2171.00,2510.00,,,,,,,,,,,,0,0,0,,-5820,15172,-1132,3,114,-147
6.782,6.55,1.31,-1.25,-0.43,-0.83,-1.21,1.13,-0.68,-0.37,-0.53,919.00,1594.00,301.00,368.00,720.00,1036.00,2222.00,2503.00,,,,,,,,,,,,0,0,0,,-5808,15128,-1300,8,211,-208
6.844,6.61,1.27,-0.62,-1.28,1.35,-3.19,0.35,-0.05,-1.13,0.07,951.00,1590.00,322.00,356.00,706.00,1051.00,2182.00,2539.00,,,,,,,,,,,,0,0,0,,-5904,15144,-1304,-148,133,-147
6.905,6.66,1.21,-1.54,-0.62,-1.09,-1.73,0.22,0.10,-1.30,0.20,933.00,1620.00,311.00,377.00,702.00,1052.00,2173.00,2547.00,,,,,,,,,,,,0,0,0,,-5792,14876,-1280,-108,6,-234
6.966,6.72,1.20,-2.29,0.24,-2.10,-0.03,0.95,-0.59,-0.67,-0.29,903.00,1631.00,289.00,375.00,719.00,1041.00,2206.00,2517.00,,,,,,,,,,,,0,0,0,,-5976,15320,-1380,-196,156,-184
7.007,6.77,1.19,-0.86,-0.71,0.15,-1.72,0.99,-0.60,-0.81,-0.20,926.00,1581.00,304.00,359.00,719.00,1040.00,2201.00,2525.00,,,,,,,,,,,,0,0,0,,-5756,15052,-900,-374,32,-251
7.091,6.83,1.15,-0.85,-0.73,-0.56,-1.60,0.43,0.10,-1.04,0.19,927.00,1581.00,306.00,368.00,699.00,1043.00,2164.00,2522.00,,,,,,,,,,,,0,0,0,,-5836,15084,-992,-248,65,-171
7.112,6.88,1.14,-1.25,-0.29,-2.13,-0.77,0.88,-0.31,-0.63,-0.04,912.00,1588.00,301.00,383.00,709.00,1036.00,2175.00,2497.00,,,,,,,,,,,,0,0,0,,-5928,15112,-1152,-105,44,-139
7.174,6.94,1.16,-1.19,-0.29,-1.40,-0.77,1.55,-0.82,-0.44,-0.40,911.00,1584.00,297.00,372.00,720.00,1023.00,2210.00,2502.00,,,,,,,,,,,,0,0,0,,-5892,15204,-1124,37,111,-22
7.215,6.99,1.12,-0.57,-1.28,0.03,-2.57,0.30,-0.17,-1.06,0.05,950.00,1587.00,319.00,369.00,711.00,1056.00,2181.00,2533.00,,,,,,,,,,,,0,0,0,,-5888,15084,-1024,-74,111,-257
7.298,7.05,1.09,-1.81,-0.16,-2.50,-0.71,0.67,-0.13,-0.90,0.17,915.00,1618.00,302.00,388.00,705.00,1040.00,2161.00,2509.00,,,,,,,,,,,,0,0,0,,-5820,15088,-1272,-108,105,-260
7.36,7.10,1.09,-1.44,-0.05,-1.82,-0.44,1.10,-0.67,-0.39,-0.37,903.00,1589.00,294.00,375.00,720.00,1037.00,2204.00,2495.00,,,,,,,,,,,,0,0,0,,-5916,15092,-868,0,68,-176
7.38,7.16,1.06,-0.87,-0.74,-0.49,-1.51,0.49,-0.13,-0.94,-0.04,928.00,1583.00,304.00,366.00,707.00,1047.00,2187.00,2527.00,,,,,,,,,,,,0,0,0,,-6000,15120,-1188,9,146,-215
7.482,7.21,1.03,-1.56,-0.49,-2.14,-0.95,0.31,-0.14,-1.32,0.31,927.00,1616.00,304.00,385.00,710.00,1055.00,2161.00,2542.00,,,,,,,,,,,,0,0,0,,-5852,15080,-1132,5,210,-179
7.523,7.27,1.00,-2.20,0.11,-2.66,-0.10,0.57,-0.49,-0.87,-0.12,908.00,1631.00,293.00,384.00,720.00,1054.00,2194.00,2526.00,,,,,,,,,,,,0,0,0,,-5948,15088,-1204,-96,115,-154
7.544,7.32,0.97,-1.11,-1.03,-0.24,-2.48,0.39,-0.61,-1.17,-0.16,947.00,1611.00,319.00,372.00,727.00,1065.00,2211.00,2559.00,,,,,,,,,,,,0,0,0,,-5940,15152,-1248,-128,85,-166
7.626,7.38,0.93,-1.58,-1.01,-1.98,-1.18,0.03,-0.54,-1.71,0.07,954.00,1640.00,307.00,385.00,729.00,1078.00,2205.00,2598.00,,,,,,,,,,,,0,0,0,,-5868,15192,-1072,-40,214,-41
7.667,7.43,0.90,-2.35,-0.30,-3.34,-0.61,0.41,-0.36,-1.12,-0.02,931.00,1659.00,305.00,400.00,717.00,1057.00,2192.00,2544.00,,,,,,,,,,,,0,0,0,,-5816,15120,-1148,-144,105,-274
7.708,7.49,0.91,-1.27,-0.51,-1.96,-0.83,1.13,-0.86,-0.53,-0.43,923.00,1598.00,301.00,381.00,727.00,1041.00,2217.00,2513.00,,,,,,,,,,,,0,0,0,,-5896,15064,-912,-143,137,-163
7.77,7.54,0.88,-0.49,-1.21,-0.06,-2.54,0.33,-0.38,-1.19,0.05,945.00,1579.00,319.00,370.00,719.00,1061.00,2186.00,2546.00,,,,,,,,,,,,0,0,0,,-5908,15132,-1020,70,181,-85
7.852,7.60,0.89,-1.59,-0.36,-2.59,-0.68,0.94,-0.89,-1.19,0.27,921.00,1612.00,302.00,389.00,731.00,1050.00,2160.00,2531.00,,,,,,,,,,,,0,0,0,,-5808,15128,-1252,102,196,-52
7.894,7.65,0.86,-1.57,-0.12,-1.99,-0.19,0.43,-0.21,-0.40,-0.25,909.00,1601.00,291.00,375.00,711.00,1052.00,2190.00,2488.00,,,,,,,,,,,,0,0,0,,-5900,15060,-1356,8,138,-254
7.936,7.71,0.84,-0.74,-0.78,-0.58,-1.48,0.44,-0.37,-0.77,-0.09,928.00,1577.00,304.00,367.00,717.00,1056.00,2186.00,2514.00,,,,,,,,,,,,0,0,0,,-5912,14960,-1276,-115,43,-138
7.996,7.76,0.80,-1.43,-0.45,-1.64,-1.30,-0.03,0.07,-1.15,0.28,923.00,1606.00,307.00,381.00,706.00,1063.00,2158.00,2527.00,,,,,,,,,,,,0,0,0,,-5960,15064,-1044,-63,50,-105
8.037,7.82,0.79,-1.95,0.12,-2.25,-0.79,0.55,-0.46,-0.63,-0.14,903.00,1614.00,302.00,385.00,719.00,1054.00,2186.00,2503.00,,,,,,,,,,,,0,0,0,,-5828,15124,-1220,39,177,-178
8.099,7.87,0.76,-1.55,-0.43,-1.63,-1.12,0.30,-0.55,-0.80,-0.24,924.00,1613.00,304.00,379.00,726.00,1067.00,2205.00,2527.00,,,,,,,,,,,,0,0,0,,-5748,14964,-1324,-20,142,-85
8.203,7.93,0.71,-1.33,-1.02,-0.62,-2.41,-0.32,-0.19,-1.27,-0.01,950.00,1624.00,320.00,377.00,720.00,1083.00,2197.00,2559.00,,,,,,,,,,,,0,0,0,,-5836,15004,-1304,-37,117,-53
8.223,7.98,0.67,-2.44,-0.21,-3.26,-0.64,-0.05,-0.28,-1.20,0.10,928.00,1661.00,305.00,399.00,720.00,1074.00,2181.00,2544.00,,,,,,,,,,,,0,0,0,,-5856,15156,-1404,-161,111,-221
8.263,8.04,0.68,-1.61,-0.21,-2.22,-0.74,0.82,-0.75,-0.33,-0.48,914.00,1607.00,301.00,384.00,727.00,1051.00,2215.00,2496.00,,,,,,,,,,,,0,0,0,,-5908,14992,-1200,-322,64,-170
8.324,8.09,0.64,-0.61,-1.13,0.20,-3.03,0.03,0.03,-0.84,-0.07,943.00,1583.00,326.00,371.00,707.00,1062.00,2186.00,2519.00,,,,,,,,,,,,0,0,0,,-5912,15140,-1060,-176,147,-133
8.384,8.15,0.62,-1.33,-0.25,-1.63,-1.12,0.09,0.11,-0.83,0.15,911.00,1591.00,304.00,379.00,703.00,1057.00,2160.00,2503.00,,,,,,,,,,,,0,0,0,,-5840,15032,-980,-26,196,-150
8.445,8.20,0.62,-1.34,-0.28,-4.28,-0.23,0.58,-0.36,-0.37,-0.19,913.00,1593.00,304.00,411.00,715.00,1050.00,2182.00,2481.00,,,,,,,,,,,,0,0,0,,-5992,15324,-1360,143,284,-186
8.486,8.26,0.60,-0.58,-0.98,-2.35,0.84,0.36,-0.31,-0.63,-0.19,935.00,1575.00,277.00,370.00,716.00,1058.00,2192.00,2506.00,,,,,,,,,,,,0,0,0,,-5896,15048,-1172,64,168,-137
8.611,8.31,0.56,-0.94,-1.02,-0.54,-2.44,-0.31,0.35,-0.69,-0.28,943.00,1599.00,320.00,376.00,699.00,1067.00,2205.00,2518.00,,,,,,,,,,,,0,0,0,,-5940,15064,-1148,170,144,-106
8.632,8.37,0.53,-1.84,-0.07,-2.00,-0.38,0.09,-0.20,-0.74,0.03,911.00,1616.00,294.00,377.00,715.00,1066.00,2171.00,2503.00,,,,,,,,,,,,0,0,0,,-5896,15184,-1160,146,249,-193
8.674,8.42,0.53,-1.61,-0.21,-1.52,-0.29,0.39,-0.68,-0.56,-0.40,914.00,1607.00,290.00,369.00,730.00,1067.00,2214.00,2513.00,,,,,,,,,,,,0,0,0,,-5864,15004,-1456,135,246,-235
8.694,8.48,0.47,-2.14,-0.71,-0.53,-1.86,-0.69,0.01,-1.39,0.16,948.00,1663.00,310.00,370.00,717.00,1093.00,2181.00,2559.00,,,,,,,,,,,,0,0,0,,-5836,15108,-1412,71,212,-175
8.756,8.53,0.41,-2.49,-0.22,-2.47,-0.66,-0.57,-0.05,-1.24,0.15,929.00,1664.00,301.00,387.00,718.00,1090.00,2176.00,2544.00,,,,,,,,,,,,0,0,0,,-5928,15108,-1340,-2,179,-199
8.818,8.59,0.38,-2.47,0.10,-2.62,0.34,-0.22,-0.58,-0.95,-0.29,913.00,1649.00,286.00,379.00,734.00,1090.00,2217.00,2545.00,,,,,,,,,,,,0,0,0,,-5864,15136,-1372,-34,217,-210
8.962,8.64,0.31,-1.81,-0.62,-0.72,-1.37,-1.01,-0.06,-1.52,0.04,938.00,1638.00,303.00,368.00,724.00,1109.00,2201.00,2581.00,,,,,,,,,,,,0,0,0,,-5860,15060,-1268,-82,80,-168
8.984,8.70,0.23,-2.15,-0.82,-0.36,-3.29,-1.33,0.15,-1.88,0.33,954.00,1669.00,334.00,382.00,720.00,1117.00,2181.00,2597.00,,,,,,,,,,,,0,0,0,,-5908,15104,-1192,47,170,-1
9.004,8.75,0.19,-2.88,0.26,-2.99,0.21,-0.63,-0.44,-0.88,-0.15,912.00,1669.00,290.00,386.00,734.00,1104.00,2198.00,2529.00,,,,,,,,,,,,0,0,0,,-5944,15120,-1416,-61,176,-299
9.025,8.81,0.15,-1.23,-0.30,-1.15,-0.73,-0.58,-0.28,-0.74,-0.18,912.00,1587.00,295.00,368.00,727.00,1097.00,2196.00,2517.00,,,,,,,,,,,,0,0,0,,-5972,14948,-1280,-221,130,-176
9.086,8.86,0.10,-1.06,-0.60,-1.28,-1.24,-0.90,-0.05,-1.36,0.39,924.00,1589.00,304.00,375.00,722.00,1104.00,2153.00,2540.00,,,,,,,,,,,,0,0,0,,-5888,15004,-1480,-55,23,-115
9.148,8.92,0.06,-1.90,0.03,-2.42,-0.74,-0.57,-0.13,-0.77,0.07,907.00,1615.00,302.00,387.00,721.00,1092.00,2167.00,2503.00,,,,,,,,,,,,0,0,0,,-5916,15160,-1172,79,177,-128
9.21,8.97,0.05,-1.37,-0.19,-1.84,-0.12,-0.27,-0.64,-0.54,-0.31,909.00,1591.00,289.00,372.00,737.00,1094.00,2203.00,2506.00,,,,,,,,,,,,0,0,0,,-6048,15248,-1348,3,352,-199
9.313,9.03,-0.02,-0.75,-1.06,-0.30,-1.99,-1.31,0.12,-1.20,0.13,942.00,1589.00,311.00,368.00,721.00,1117.00,2177.00,2542.00,,,,,,,,,,,,0,0,0,,-5916,14940,-1536,-65,169,-177
9.333,9.08,-0.07,-1.94,0.04,-2.47,-0.47,-0.92,0.01,-1.01,0.29,907.00,1617.00,298.00,385.00,720.00,1103.00,2151.00,2512.00,,,,,,,,,,,,0,0,0,,-5968,15116,-1132,-27,345,-21
9.375,9.14,-0.09,-1.65,-0.04,-1.54,-1.15,-0.57,-0.13,-0.53,-0.09,906.00,1602.00,304.00,378.00,721.00,1092.00,2177.00,2490.00,,,,,,,,,,,,0,0,0,,-5880,15064,-1312,-10,450,-140
9.437,9.19,-0.14,-0.85,-0.87,-0.35,-1.91,-1.15,0.09,-0.99,0.09,934.00,1587.00,310.00,368.00,720.00,1111.00,2173.00,2523.00,,,,,,,,,,,,0,0,0,,-5912,15044,-1524,40,449,-99
9.478,9.25,-0.21,-1.29,-0.92,-0.37,-2.09,-1.52,0.29,-1.41,0.43,944.00,1617.00,313.00,370.00,717.00,1121.00,2150.00,2542.00,,,,,,,,,,,,0,0,0,,-5864,14944,-1580,-10,200,-52
9.541,9.30,-0.26,-2.21,0.03,-2.27,-0.66,-1.11,-0.10,-0.90,-0.01,912.00,1635.00,300.00,384.00,727.00,1115.00,2182.00,2521.00,,,,,,,,,,,,0,0,0,,-5844,15108,-1492,-144,-39,-84
9.603,9.36,-0.31,-2.04,-0.31,-1.96,-0.83,-1.29,-0.35,-1.09,-0.14,926.00,1639.00,301.00,381.00,739.00,1130.00,2205.00,2549.00,,,,,,,,,,,,0,0,0,,-5856,15200,-1176,-112,121,-169
9.687,9.41,-0.39,-1.76,-0.94,-1.11,-2.19,-1.85,-0.11,-1.81,0.23,953.00,1648.00,319.00,382.00,737.00,1148.00,2190.00,2597.00,,,,,,,,,,,,0,0,0,,-5932,15152,-1316,-123,374,-155
9.708,9.47,-0.42,-2.31,-0.16,-3.45,-0.45,-1.07,-0.37,-0.92,0.02,923.00,1650.00,303.00,400.00,737.00,1121.00,2179.00,2521.00,,,,,,,,,,,,0,0,0,,-5940,15052,-1440,-199,136,-345
9.748,9.52,-0.42,-1.38,-0.15,-1.44,-1.00,-0.37,-0.83,-0.33,-0.34,907.00,1590.00,301.00,375.00,746.00,1104.00,2198.00,2487.00,,,,,,,,,,,,0,0,0,,-6056,15112,-1460,-89,139,-195
9.809,9.58,-0.45,-0.53,-0.96,-0.44,-1.88,-1.14,-0.19,-0.91,0.04,933.00,1571.00,310.00,369.00,731.00,1119.00,2176.00,2519.00,,,,,,,,,,,,0,0,0,,-5836,15076,-1416,63,150,-94
9.852,9.63,-0.49,-1.57,-0.10,-2.44,-0.42,-1.12,0.08,-0.98,0.32,908.00,1600.00,297.00,384.00,720.00,1110.00,2146.00,2507.00,,,,,,,,,,,,0,0,0,,-5876,15036,-1512,27,150,-86
9.914,9.69,-0.49,-2.06,0.62,-2.76,0.45,-0.63,-0.42,-0.41,-0.12,881.00,1600.00,285.00,380.00,733.00,1103.00,2175.00,2480.00,,,,,,,,,,,,0,0,0,,-5800,15120,-1488,-116,90,-246
9.996,9.74,-0.51,-0.94,-0.40,-1.04,-0.89,-0.81,-0.38,-0.80,-0.01,912.00,1573.00,297.00,368.00,734.00,1110.00,2178.00,2511.00,,,,,,,,,,,,0,0,0,,-5744,14944,-1624,-156,22,-139
10.058,9.80,-0.55,-1.48,-0.24,-0.38,-1.66,-1.34,0.10,-1.11,0.25,913.00,1600.00,306.00,366.00,722.00,1119.00,2159.00,2524.00,,,,,,,,,,,,0,0,0,,-5872,15168,-1376,-99,-55,-139
10.128,9.85,-0.59,-1.91,-0.07,-2.56,-0.63,-1.27,0.13,-0.85,0.05,912.00,1620.00,301.00,388.00,720.00,1115.00,2173.00,2512.00,,,,,,,,,,,,0,0,0,,-5940,15160,-1492,11,114,-208
10.146,9.91,-0.58,-1.69,-0.19,-2.03,-0.93,-0.51,-0.93,-0.68,-0.29,914.00,1611.00,303.00,383.00,752.00,1113.00,2206.00,2518.00,,,,,,,,,,,,0,0,0,,-5844,15008,-1448,19,231,-123
10.187,9.96,-0.61,-0.74,-1.45,-0.63,-2.69,-1.19,-0.33,-1.23,0.18,962.00,1605.00,325.00,380.00,737.00,1125.00,2172.00,2541.00,,,,,,,,,,,,0,0,0,,-5948,15064,-1580,-26,48,-238
10.25,10.02,-0.63,-1.95,0.08,-2.62,-0.73,-1.02,0.10,-0.81,0.27,905.00,1616.00,303.00,390.00,718.00,1105.00,2146.00,2494.00,,,,,,,,,,,,0,0,0,,-5840,15008,-1456,-224,-4,-147
10.311,10.07,-0.62,-1.62,0.34,-2.27,0.22,-0.41,-0.74,-0.20,-0.22,887.00,1584.00,286.00,375.00,743.00,1103.00,2179.00,2466.00,,,,,,,,,,,,0,0,0,,-5928,15052,-1216,-158,37,-66
10.393,10.13,-0.64,-0.71,-0.45,-2.26,0.81,-1.00,-0.04,-0.72,0.09,911.00,1561.00,277.00,369.00,723.00,1108.00,2163.00,2497.00,,,,,,,,,,,,0,0,0,,-6032,15152,-1180,-85,240,-96
10.414,10.18,-0.66,-1.60,-0.17,-1.55,-0.84,-1.06,0.08,-0.97,0.32,912.00,1605.00,299.00,375.00,719.00,1107.00,2146.00,2506.00,,,,,,,,,,,,0,0,0,,-6020,15076,-1432,-33,188,-234
10.496,10.24,-0.66,-1.97,0.48,-2.71,0.17,-0.57,-0.44,-0.27,-0.09,886.00,1600.00,289.00,382.00,733.00,1101.00,2166.00,2464.00,,,,,,,,,,,,0,0,0,,-5888,15120,-1504,-46,35,-80
10.516,10.29,-0.67,-0.90,-0.41,-0.83,-1.21,-0.81,-0.38,-0.61,-0.11,912.00,1571.00,301.00,368.00,734.00,1110.00,2182.00,2499.00,,,,,,,,,,,,0,0,0,,-5896,15020,-1288,15,-55,-122
10.578,10.35,-0.70,-1.22,-0.63,-1.26,-1.67,-1.40,-0.18,-1.19,0.19,928.00,1600.00,311.00,379.00,734.00,1130.00,2170.00,2537.00,,,,,,,,,,,,0,0,0,,-5840,15148,-1412,-22,98,-189
10.639,10.40,-0.72,-2.37,0.10,-3.14,-0.43,-1.02,-0.31,-1.01,0.15,911.00,1642.00,301.00,395.00,734.00,1117.00,2167.00,2521.00,,,,,,,,,,,,0,0,0,,-5968,14992,-1572,-58,69,-180
10.682,10.46,-0.72,-2.05,-0.06,-2.41,-0.55,-0.71,-0.86,-0.66,-0.40,914.00,1629.00,299.00,385.00,752.00,1120.00,2218.00,2523.00,,,,,,,,,,,,0,0,0,,-5852,15028,-1376,-201,-14,-130
10.785,10.51,-0.77,-1.28,-1.23,-0.97,-2.29,-1.74,-0.17,-1.57,0.13,960.00,1630.00,320.00,381.00,738.00,1145.00,2192.00,2579.00,,,,,,,,,,,,0,0,0,,-6112,15076,-1352,-233,-86,-144
10.805,10.57,-0.81,-2.68,-0.17,-3.34,-0.61,-1.53,-0.21,-1.44,0.24,930.00,1675.00,305.00,400.00,737.00,1137.00,2174.00,2559.00,,,,,,,,,,,,0,0,0,,-5788,15084,-1308,-171,-62,-139
10.846,10.62,-0.82,-2.66,0.08,-3.28,0.05,-1.10,-0.66,-1.15,-0.12,917.00,1662.00,294.00,392.00,749.00,1131.00,2205.00,2554.00,,,,,,,,,,,,0,0,0,,-5984,15092,-1328,-95,14,-120
10.908,10.68,-0.86,-1.85,-0.73,-1.95,-1.14,-1.58,-0.57,-1.62,-0.04,944.00,1645.00,306.00,384.00,752.00,1150.00,2215.00,2597.00,,,,,,,,,,,,0,0,0,,-5840,15144,-1272,-122,76,-184
10.97,10.73,-0.90,-2.47,-0.60,-2.94,-1.10,-1.70,-0.77,-2.18,0.38,948.00,1680.00,311.00,399.00,762.00,1162.00,2186.00,2624.00,,,,,,,,,,,,0,0,0,,-5928,15072,-1196,-42,121,-232
11.011,10.79,-0.95,-3.01,-0.18,-5.46,-0.61,-1.86,-0.35,-1.65,-0.06,936.00,1697.00,317.00,435.00,747.00,1156.00,2218.00,2601.00,,,,,,,,,,,,0,0,0,,-5956,15328,-1452,-115,238,-254
11.073,10.84,-0.96,-2.07,-0.40,-3.05,-0.95,-1.17,-0.68,-0.92,-0.27,931.00,1645.00,309.00,399.00,751.00,1135.00,2214.00,2541.00,,,,,,,,,,,,0,0,0,,-5916,14864,-1160,-167,110,-242
11.175,10.90,-0.99,-0.80,-1.32,-1.10,-3.26,-1.57,-0.33,-1.43,0.22,956.00,1603.00,338.00,393.00,742.00,1142.00,2176.00,2559.00,,,,,,,,,,,,0,0,0,,-6028,15108,-1380,-114,53,-167
11.196,10.95,-0.99,-2.15,0.01,-4.20,-0.26,-0.97,-0.15,-1.01,0.25,912.00,1632.00,304.00,410.00,727.00,1110.00,2155.00,2514.00,,,,,,,,,,,,0,0,0,,-6100,15008,-1216,7,248,-80
11.237,11.01,-0.98,-1.50,-0.05,-3.09,-0.51,-0.82,-0.80,-0.51,-0.31,904.00,1593.00,302.00,395.00,751.00,1123.00,2202.00,2503.00,,,,,,,,,,,,0,0,0,,-5872,15020,-1324,39,324,-64
11.278,11.06,-1.01,-0.77,-1.03,-1.48,-2.41,-1.53,-0.11,-0.97,0.07,941.00,1589.00,325.00,390.00,733.00,1134.00,2175.00,2523.00,,,,,,,,,,,,0,0,0,,-5928,15116,-1580,-50,173,-192
11.34,11.12,-1.03,-1.56,-0.29,-3.23,-0.76,-1.51,-0.02,-1.11,0.39,917.00,1607.00,307.00,400.00,729.00,1130.00,2143.00,2515.00,,,,,,,,,,,,0,0,0,,-5848,15008,-1328,-46,95,-103
11.401,11.17,-1.03,-2.05,0.34,-3.69,0.38,-0.97,-0.45,-0.39,-0.19,894.00,1611.00,291.00,395.00,739.00,1119.00,2183.00,2483.00,,,,,,,,,,,,0,0,0,,-5896,15096,-1420,-22,108,-125
11.544,11.23,-1.05,-1.18,-0.50,-2.00,-1.06,-1.48,-0.25,-0.96,-0.03,921.00,1592.00,305.00,384.00,738.00,1136.00,2187.00,2529.00,,,,,,,,,,,,0,0,0,,-5940,15116,-1500,-53,180,-170
11.564,11.28,-1.08,-1.27,-0.94,-1.77,-2.65,-1.68,-0.06,-1.42,0.35,945.00,1617.00,331.00,397.00,733.00,1139.00,2160.00,2549.00,,,,,,,,,,,,0,0,0,,-5864,14932,-1332,-155,134,-166
11.585,11.34,-1.11,-2.19,-0.18,-3.64,-0.63,-1.60,-0.32,-1.10,0.12,922.00,1643.00,307.00,405.00,742.00,1143.00,2175.00,2533.00,,,,,,,,,,,,0,0,0,,-5872,15052,-1428,-119,77,-75
11.626,11.39,-1.11,-2.05,-0.24,-3.07,-0.82,-1.21,-0.89,-0.91,-0.34,923.00,1637.00,307.00,398.00,760.00,1143.00,2221.00,2544.00,,,,,,,,,,,,0,0,0,,-5940,15012,-1364,-258,78,-140
11.668,11.45,-1.16,-1.54,-1.14,-2.36,-2.05,-2.07,-0.35,-2.23,0.82,960.00,1643.00,324.00,400.00,750.00,1166.00,2137.00,2599.00,,,,,,,,,,,,0,0,0,,-6076,15224,-1308,-204,77,-98
11.731,11.50,-1.22,-2.72,-0.30,-4.70,-0.51,-2.21,-0.06,-1.33,0.08,937.00,1683.00,311.00,421.00,740.00,1163.00,2189.00,2559.00,,,,,,,,,,,,0,0,0,,-6000,15096,-1168,-145,193,-43
11.772,11.56,-1.22,-2.47,0.12,-3.64,-0.45,-1.27,-0.60,-0.80,-0.13,912.00,1648.00,304.00,403.00,749.00,1137.00,2192.00,2519.00,,,,,,,,,,,,0,0,0,,-5864,14992,-1116,-120,138,-261
11.894,11.61,-1.22,-1.05,-0.50,-1.78,-1.96,-1.22,-0.64,-0.89,0.02,919.00,1584.00,319.00,390.00,750.00,1136.00,2178.00,2518.00,,,,,,,,,,,,0,0,0,,-5932,15088,-1300,-149,84,-143
11.915,11.67,-1.24,-1.44,-0.27,-3.08,-1.17,-1.58,-0.15,-1.12,0.39,914.00,1599.00,313.00,402.00,735.00,1137.00,2144.00,2516.00,,,,,,,,,,,,0,0,0,,-5948,15044,-1152,-1,156,-50
11.958,11.72,-1.23,-1.95,0.48,-3.77,0.03,-1.20,-0.37,-0.46,-0.05,886.00,1599.00,297.00,400.00,739.00,1127.00,2169.00,2480.00,,,,,,,,,,,,0,0,0,,-5784,14988,-1488,51,92,-26
12.0,11.78,-1.26,-1.23,-0.30,-2.31,-0.89,-1.71,0.15,-0.63,-0.19,912.00,1587.00,304.00,387.00,725.00,1134.00,2192.00,2506.00,,,,,,,,,,,,0,0,0,,-5724,15048,-1528,42,-82,-60
12.061,11.83,-1.30,-1.37,-0.48,-4.13,-1.00,-2.19,0.34,-1.17,0.13,923.00,1603.00,316.00,417.00,724.00,1150.00,2176.00,2539.00,,,,,,,,,,,,0,0,0,,-5944,15112,-1192,-76,-109,-68
12.123,11.89,-1.31,-1.77,-0.46,-3.16,-2.07,-1.50,-0.22,-0.87,0.13,929.00,1628.00,329.00,413.00,737.00,1136.00,2164.00,2509.00,,,,,,,,,,,,0,0,0,,-5908,15044,-1192,-72,45,-152
12.185,11.94,-1.31,-1.70,-0.14,-3.53,-0.60,-1.15,-0.71,-0.49,-0.34,912.00,1610.00,306.00,403.00,752.00,1135.00,2205.00,2503.00,,,,,,,,,,,,0,0,0,,-5856,15160,-1388,-22,209,-185
12.25,12.00,-1.34,-0.69,-1.64,-1.53,-3.28,-1.94,-0.22,-1.27,0.16,971.00,1610.00,341.00,400.00,743.00,1156.00,2177.00,2547.00,,,,,,,,,,,,0,0,0,,-5928,15044,-1472,-43,171,-148
12.269,12.05,-1.37,-2.17,-0.20,-4.26,-0.54,-1.89,-0.04,-1.24,0.29,923.00,1643.00,309.00,414.00,735.00,1148.00,2160.00,2535.00,,,,,,,,,,,,0,0,0,,-5800,15020,-1488,-109,102,-93
12.333,12.11,-1.38,-2.43,0.10,-4.28,-0.23,-1.69,-0.53,-0.71,-0.15,912.00,1646.00,304.00,411.00,752.00,1154.00,2191.00,2512.00,,,,,,,,,,,,0,0,0,,-5892,15080,-1336,-274,67,-152
12.416,12.16,-1.41,-1.65,-0.50,-2.72,-1.53,-2.03,-0.42,-1.30,0.03,929.00,1622.00,317.00,400.00,752.00,1166.00,2193.00,2559.00,,,,,,,,,,,,0,0,0,,-5892,15072,-1164,-177,95,-134
12.438,12.22,-1.47,-2.30,-0.56,-3.24,-1.59,-2.44,-0.01,-1.87,0.48,943.00,1667.00,321.00,409.00,741.00,1172.00,2162.00,2585.00,,,,,,,,,,,,0,0,0,,-5816,15236,-1196,-188,164,-49
12.502,12.27,-1.48,-2.53,0.16,-5.09,-0.02,-1.77,-0.28,-0.98,0.02,911.00,1650.00,305.00,422.00,743.00,1150.00,2181.00,2527.00,,,,,,,,,,,,0,0,0,,-5756,15108,-1184,-136,97,-283
12.606,12.33,-1.47,-1.56,-0.19,-3.48,-0.68,-1.34,-0.62,-0.54,-0.31,912.00,1603.00,307.00,403.00,751.00,1141.00,2203.00,2506.00,,,,,,,,,,,,0,0,0,,-5964,15116,-1188,-92,99,-155
12.627,12.38,-1.51,-0.42,-1.50,-1.47,-3.46,-2.12,-0.07,-1.28,0.23,959.00,1587.00,344.00,401.00,739.00,1159.00,2169.00,2543.00,,,,,,,,,,,,0,0,0,,-5940,15180,-1008,81,191,-50
12.669,12.44,-1.53,-2.07,0.00,-5.22,-0.10,-1.92,-0.03,-0.97,0.28,911.00,1627.00,307.00,425.00,735.00,1149.00,2151.00,2509.00,,,,,,,,,,,,0,0,0,,-5844,15076,-1396,86,277,-126
12.731,12.49,-1.50,-1.76,0.06,-4.44,-0.18,-1.08,-0.98,-0.28,-0.30,903.00,1605.00,304.00,413.00,762.00,1140.00,2192.00,2480.00,,,,,,,,,,,,0,0,0,,-5840,15140,-1452,-50,196,-223
12.791,12.55,-1.51,-0.46,-1.47,-1.97,-2.64,-1.68,-0.49,-0.89,0.13,958.00,1588.00,332.00,400.00,750.00,1152.00,2165.00,2511.00,,,,,,,,,,,,0,0,0,,-5792,14920,-1360,-105,97,-126
12.833,12.60,-1.54,-1.25,-0.79,-2.90,-2.27,-2.01,-0.00,-1.11,0.41,937.00,1609.00,331.00,411.00,735.00,1152.00,2141.00,2514.00,,,,,,,,,,,,0,0,0,,-5972,15048,-1300,-79,28,-100
12.873,12.66,-1.54,-2.27,0.40,-4.60,-0.12,-1.57,-0.43,-0.54,-0.07,895.00,1623.00,304.00,415.00,746.00,1145.00,2175.00,2490.00,,,,,,,,,,,,0,0,0,,-5924,15240,-1268,-26,188,-169
12.977,12.71,-1.55,-1.37,-0.48,-2.71,-1.36,-1.66,-0.52,-0.98,0.04,923.00,1603.00,314.00,398.00,751.00,1152.00,2179.00,2526.00,,,,,,,,,,,,0,0,0,,-5852,14956,-1424,-36,196,-174
12.998,12.77,-1.58,-1.82,-0.52,-2.95,-1.74,-2.30,-0.30,-1.45,0.26,933.00,1634.00,322.00,406.00,751.00,1175.00,2172.00,2558.00,,,,,,,,,,,,0,0,0,,-5888,15040,-1288,-126,101,-72
13.061,12.82,-1.61,-2.64,-0.13,-5.08,-0.91,-2.10,-0.34,-1.18,0.11,927.00,1670.00,320.00,432.00,750.00,1167.00,2179.00,2541.00,,,,,,,,,,,,0,0,0,,-5864,15128,-1172,-231,62,-98
13.122,12.88,-1.60,-2.13,-0.38,-4.70,-0.51,-1.48,-0.75,-0.88,-0.23,931.00,1648.00,311.00,421.00,758.00,1151.00,2207.00,2534.00,,,,,,,,,,,,0,0,0,,-5784,15188,-1288,-240,84,-315
13.165,12.93,-1.63,-0.52,-1.66,-1.96,-3.29,-2.13,-0.23,-1.24,0.30,969.00,1600.00,344.00,407.00,746.00,1165.00,2159.00,2534.00,,,,,,,,,,,,0,0,0,,-5876,15100,-1100,-223,94,-128
13.225,12.99,-1.64,-1.59,-0.50,-3.65,-2.24,-1.91,-0.01,-0.91,0.39,928.00,1618.00,335.00,423.00,734.00,1148.00,2135.00,2495.00,,,,,,,,,,,,0,0,0,,-5872,15004,-988,-59,73,-121
13.288,13.04,-1.63,-1.32,-0.27,-3.38,-1.65,-1.37,-0.39,-0.31,-0.04,912.00,1591.00,323.00,412.00,742.00,1135.00,2162.00,2465.00,,,,,,,,,,,,0,0,0,,-5976,15052,-1180,36,229,-110
13.35,13.10,-1.64,-1.14,-0.37,-2.56,-1.76,-1.77,-0.36,-0.81,0.10,914.00,1584.00,320.00,400.00,746.00,1152.00,2165.00,2505.00,,,,,,,,,,,,0,0,0,,-6012,15144,-1376,40,197,-168
13.37,13.15,-1.66,-1.51,-0.31,-3.67,-1.50,-2.12,0.14,-1.02,0.40,917.00,1605.00,322.00,415.00,731.00,1153.00,2138.00,2505.00,,,,,,,,,,,,0,0,0,,-5880,14988,-1340,-47,112,-211
13.432,13.21,-1.66,-2.20,0.50,-5.07,0.03,-1.68,-0.29,-0.59,0.05,889.00,1614.00,304.00,421.00,742.00,1146.00,2162.00,2486.00,,,,,,,,,,,,0,0,0,,-5824,15116,-1172,-49,6,-102
13.493,13.26,-1.66,-1.68,-0.15,-4.10,-0.95,-1.57,-0.65,-0.62,-0.20,912.00,1609.00,315.00,416.00,755.00,1152.00,2193.00,2506.00,,,,,,,,,,,,0,0,0,,-6036,15256,-1236,14,205,-148
13.556,13.32,-1.69,-1.37,-0.93,-3.06,-2.49,-2.39,-0.07,-1.39,0.29,946.00,1623.00,336.00,416.00,743.00,1172.00,2166.00,2550.00,,,,,,,,,,,,0,0,0,,-5904,15040,-1264,-53,202,-149
13.599,13.37,-1.72,-2.63,-0.01,-5.16,-1.06,-2.24,-0.17,-1.11,0.19,921.00,1664.00,323.00,435.00,745.00,1168.00,2167.00,2529.00,,,,,,,,,,,,0,0,0,,-5936,15016,-1196,-81,95,-45
13.66,13.43,-1.72,-2.17,-0.20,-4.93,-0.61,-1.74,-0.78,-0.77,-0.29,923.00,1643.00,314.00,426.00,763.00,1164.00,2210.00,2527.00,,,,,,,,,,,,0,0,0,,-5876,15092,-1328,-190,76,-117
13.763,13.48,-1.74,-1.27,-1.54,-3.05,-3.30,-2.15,-0.50,-1.33,0.06,976.00,1643.00,351.00,425.00,757.00,1174.00,2190.00,2559.00,,,,,,,,,,,,0,0,0,,-5836,15144,-1156,-221,71,-187
13.784,13.54,-1.77,-2.64,-0.34,-4.91,-1.25,-2.36,-0.28,-1.46,0.26,938.00,1680.00,325.00,433.00,751.00,1177.00,2172.00,2559.00,,,,,,,,,,,,0,0,0,,-5892,15080,-1256,-332,-58,-197
13.825,13.59,-1.78,-3.09,0.22,-6.14,-0.20,-1.92,-0.67,-1.19,-0.11,917.00,1684.00,314.00,442.00,761.00,1169.00,2205.00,2557.00,,,,,,,,,,,,0,0,0,,-5764,15020,-1456,-66,-195,-178
13.888,13.65,-1.79,-2.08,-0.77,-4.63,-1.57,-2.01,-0.76,-1.65,-0.07,950.00,1662.00,329.00,432.00,766.00,1176.00,2219.00,2601.00,,,,,,,,,,,,0,0,0,,-5828,15256,-1308,-33,-125,-67
13.971,13.70,-1.81,-1.84,-0.83,-5.33,-1.72,-2.13,-0.33,-1.44,0.23,949.00,1649.00,336.00,446.00,750.00,1168.00,2175.00,2559.00,,,,,,,,,,,,0,0,0,,-5800,15092,-912,-70,-154,-183
13.992,13.76,-1.81,-1.97,-0.27,-5.48,-1.34,-1.83,-0.36,-0.96,0.07,923.00,1633.00,330.00,444.00,747.00,1155.00,2175.00,2522.00,,,,,,,,,,,,0,0,0,,-5860,15064,-960,-110,-57,-144
14.117,13.81,-1.80,-1.72,-0.26,-5.26,-1.25,-1.53,-0.92,-0.52,-0.43,918.00,1616.00,327.00,439.00,766.00,1159.00,2217.00,2512.00,,,,,,,,,,,,0,0,0,,-5756,15052,-1096,-86,277,-133
14.137,13.87,-1.82,-1.15,-1.10,-3.94,-2.68,-2.25,-0.32,-1.39,0.16,951.00,1616.00,345.00,433.00,751.00,1173.00,2181.00,2559.00,,,,,,,,,,,,0,0,0,,-5748,15048,-1112,0,321,-90
14.158,13.92,-1.84,-2.46,-0.03,-6.41,-0.81,-2.24,0.05,-1.16,0.26,919.00,1654.00,326.00,454.00,736.00,1161.00,2160.00,2529.00,,,,,,,,,,,,0,0,0,,-5748,15108,-1236,-87,64,-177
14.2,13.98,-1.82,-1.99,-0.08,-5.83,-0.83,-1.43,-0.69,-0.69,-0.11,914.00,1626.00,323.00,444.00,755.00,1147.00,2185.00,2507.00,,,,,,,,,,,,0,0,0,,-5804,15184,-1116,-86,-10,-101
14.262,14.03,-1.82,-1.46,-0.54,-4.39,-1.93,-1.74,-0.59,-1.12,0.07,928.00,1612.00,334.00,432.00,755.00,1158.00,2181.00,2538.00,,,,,,,,,,,,0,0,0,,-5816,15084,-1072,-26,107,-131
14.345,14.09,-1.84,-1.93,-0.53,-5.51,-1.56,-2.24,-0.17,-1.38,0.34,935.00,1641.00,334.00,447.00,745.00,1168.00,2160.00,2546.00,,,,,,,,,,,,0,0,0,,-5832,15048,-1200,10,140,-162
14.366,14.14,-1.84,-2.56,0.19,-2.36,-2.05,-1.83,-0.48,-0.83,-0.08,910.00,1651.00,324.00,400.00,752.00,1159.00,2187.00,2519.00,,,,,,,,,,,,0,0,0,,-5744,15156,-1248,-9,65,-109
14.45,14.20,-1.83,-2.12,-0.46,-5.80,-0.95,-1.77,-0.87,-1.10,-0.21,935.00,1651.00,325.00,445.00,767.00,1168.00,2214.00,2555.00,,,,,,,,,,,,0,0,0,,-5860,15028,-1216,-121,34,-111
14.47,14.25,-1.87,-1.87,-1.16,-4.91,-2.36,-2.63,-0.27,-1.94,0.26,967.00,1666.00,345.00,446.00,754.00,1189.00,2191.00,2608.00,,,,,,,,,,,,0,0,0,,-5840,15076,-1148,-246,63,-77
14.532,14.31,-1.91,-2.97,-0.37,-6.63,-1.29,-2.59,-0.23,-1.62,0.10,945.00,1703.00,336.00,464.00,752.00,1186.00,2198.00,2587.00,,,,,,,,,,,,0,0,0,,-5796,15064,-1000,-161,76,-30
14.592,14.36,-1.91,-2.78,-0.28,-5.77,-1.58,-1.94,-0.84,-0.97,-0.46,937.00,1686.00,336.00,452.00,768.00,1175.00,2239.00,2559.00,,,,,,,,,,,,0,0,0,,-5876,15296,-1140,-98,4,-173
14.654,14.42,-1.93,-1.37,-1.26,-4.55,-2.79,-2.25,-0.44,-1.33,0.06,963.00,1637.00,351.00,445.00,756.00,1177.00,2190.00,2559.00,,,,,,,,,,,,0,0,0,,-5772,14976,-1044,-125,6,-158
14.697,14.47,-1.94,-1.88,-0.36,-5.87,-1.60,-2.08,-0.38,-1.16,0.26,926.00,1631.00,337.00,454.00,751.00,1167.00,2160.00,2529.00,,,,,,,,,,,,0,0,0,,-5744,15136,-968,14,112,-97
14.757,14.53,-1.91,-2.27,0.25,-6.48,-0.61,-1.49,-0.70,-0.71,-0.05,902.00,1629.00,323.00,453.00,756.00,1150.00,2179.00,2505.00,,,,,,,,,,,,0,0,0,,-5780,15040,-1156,96,215,-93
14.819,14.58,-1.92,-1.16,-1.02,-4.08,-2.90,-2.04,-0.46,-1.05,-0.04,947.00,1613.00,350.00,438.00,754.00,1168.00,2192.00,2539.00,,,,,,,,,,,,0,0,0,,-5788,15308,-1264,64,255,-168
14.881,14.64,-1.94,-1.55,-1.10,-4.63,-3.19,-2.34,-0.09,-1.43,0.34,958.00,1642.00,359.00,451.00,743.00,1170.00,2162.00,2551.00,,,,,,,,,,,,0,0,0,,-5756,14912,-1088,-62,99,-199
14.942,14.69,-1.95,-2.01,-0.68,-5.53,-2.83,-2.15,-0.30,-0.62,-0.06,944.00,1653.00,358.00,463.00,749.00,1168.00,2177.00,2497.00,,,,,,,,,,,,0,0,0,,-5708,15072,-1064,-30,10,-122
14.983,14.75,-1.94,-1.81,-0.74,-5.25,-2.35,-1.79,-0.86,-0.89,-0.28,944.00,1643.00,347.00,452.00,767.00,1169.00,2213.00,2538.00,,,,,,,,,,,,0,0,0,,-5832,15208,-1056,-41,121,-153
15.044,14.80,-1.97,-1.64,-1.11,-4.56,-2.95,-2.52,-0.33,-1.80,0.29,960.00,1648.00,354.00,447.00,755.00,1186.00,2182.00,2592.00,,,,,,,,,,,,0,0,0,,-5784,15192,-1360,-33,199,-176
15.085,14.86,-2.00,-2.66,-0.65,-5.98,-2.73,-2.56,-0.24,-1.39,0.15,954.00,1695.00,359.00,470.00,752.00,1185.00,2182.00,2559.00,,,,,,,,,,,,0,0,0,,-5752,15100,-1128,-64,143,-115
15.189,14.91,-2.02,-2.54,-0.48,-6.04,-2.08,-2.27,-0.51,-1.19,-0.11,943.00,1679.00,347.00,463.00,759.00,1180.00,2205.00,2557.00,,,,,,,,,,,,0,0,0,,-5796,15064,-1080,-208,59,-98
15.209,14.97,-2.04,-2.15,-0.77,-5.22,-2.14,-2.59,-0.45,-1.77,0.05,951.00,1666.00,343.00,449.00,761.00,1193.00,2209.00,2605.00,,,,,,,,,,,,0,0,0,,-5772,14940,-1116,-120,106,-106
15.273,15.02,-2.08,-2.77,-0.54,-6.39,-1.64,-2.83,-0.15,-2.05,0.43,950.00,1697.00,341.00,464.00,752.00,1195.00,2175.00,2607.00,,,,,,,,,,,,0,0,0,,-5908,15308,-1224,-197,120,-297
15.294,15.08,-2.08,-2.70,0.09,-6.92,-0.86,-1.98,-0.46,-0.80,-0.10,917.00,1664.00,330.00,464.00,753.00,1165.00,2189.00,2518.00,,,,,,,,,,,,0,0,0,,-5752,14948,-916,-233,106,-211
15.417,15.13,-2.07,-1.50,-0.47,-5.48,-1.67,-1.96,-0.59,-0.92,-0.10,925.00,1611.00,336.00,448.00,758.00,1168.00,2193.00,2529.00,,,,,,,,,,,,0,0,0,,-5844,15056,-1044,-94,79,-86
15.437,15.19,-2.10,-1.67,-0.77,-5.14,-2.75,-2.54,-0.29,-1.43,0.22,943.00,1635.00,354.00,455.00,754.00,1186.00,2176.00,2559.00,,,,,,,,,,,,0,0,0,,-5808,14968,-968,18,188,-106
15.478,15.24,-2.11,-2.68,-0.10,-7.35,-1.10,-2.28,-0.33,-1.19,0.14,926.00,1671.00,337.00,475.00,752.00,1175.00,2176.00,2540.00,,,,,,,,,,,,0,0,0,,-5868,15280,-1252,14,230,-190
15.56,15.30,-2.09,-1.94,-0.64,-5.55,-2.72,-1.79,-0.84,-0.77,-0.29,941.00,1647.00,356.00,462.00,766.00,1168.00,2210.00,2527.00,,,,,,,,,,,,0,0,0,,-5752,14920,-1148,-77,149,-162
15.581,15.35,-2.11,-1.34,-1.25,-4.44,-3.30,-2.45,-0.40,-1.03,-0.38,962.00,1635.00,360.00,449.00,757.00,1185.00,2231.00,2559.00,,,,,,,,,,,,0,0,0,,-5828,15228,-1096,-45,66,-130
15.623,15.41,-2.13,-2.25,-0.48,-6.49,-1.50,-2.49,-0.19,-1.33,0.32,938.00,1660.00,339.00,464.00,749.00,1180.00,2160.00,2542.00,,,,,,,,,,,,0,0,0,,-5816,15260,-1044,-9,132,-168
15.685,15.46,-2.12,-2.78,0.22,-6.66,-1.17,-2.03,-0.52,-0.81,-0.13,912.00,1664.00,334.00,463.00,756.00,1169.00,2192.00,2520.00,,,,,,,,,,,,0,0,0,,-5800,15256,-1120,88,-22,-93
15.748,15.52,-2.14,-1.84,-0.69,-5.24,-2.03,-2.49,-0.53,-1.23,-0.08,942.00,1643.00,341.00,448.00,763.00,1191.00,2203.00,2559.00,,,,,,,,,,,,0,0,0,,-5812,15112,-1124,16,-136,-93
15.81,15.57,-2.18,-2.45,-0.74,-6.25,-2.01,-2.96,-0.18,-2.01,0.46,955.00,1685.00,347.00,466.00,755.00,1202.00,2170.00,2601.00,,,,,,,,,,,,0,0,0,,-5812,15264,-1168,-117,36,-160
15.871,15.63,-2.22,-3.15,-0.23,-6.05,-2.71,-2.86,-0.26,-1.75,0.18,941.00,1709.00,359.00,471.00,757.00,1200.00,2193.00,2594.00,,,,,,,,,,,,0,0,0,,-5832,15124,-1072,-109,251,-57
15.933,15.68,-2.20,-2.26,-0.98,-5.59,-3.22,-1.99,-0.99,-1.05,-0.34,964.00,1683.00,366.00,469.00,775.00,1182.00,2227.00,2559.00,,,,,,,,,,,,0,0,0,,-5876,15180,-1020,-263,53,-185
15.954,15.74,-2.24,-1.49,-1.12,-5.31,-2.75,-2.89,-0.13,-1.46,0.26,958.00,1639.00,355.00,458.00,752.00,1197.00,2172.00,2559.00,,,,,,,,,,,,0,0,0,,-5752,15128,-932,-173,100,-100
16.015,15.79,-2.26,-2.54,-0.18,-7.54,-1.36,-2.59,-0.25,-1.20,0.22,928.00,1666.00,343.00,482.00,753.00,1187.00,2166.00,2535.00,,,,,,,,,,,,0,0,0,,-5780,15224,-1088,-3,226,-114
16.078,15.85,-2.23,-2.29,0.06,-6.63,-1.29,-1.81,-0.81,-0.83,-0.17,912.00,1639.00,336.00,464.00,765.00,1168.00,2198.00,2525.00,,,,,,,,,,,,0,0,0,,-5764,15152,-1136,79,314,-94
16.14,15.90,-2.24,-1.88,-0.46,-5.37,-2.25,-2.33,-0.51,-1.16,0.04,931.00,1635.00,346.00,453.00,760.00,1183.00,2186.00,2544.00,,,,,,,,,,,,0,0,0,,-5792,15132,-1244,38,152,-237
16.182,15.96,-2.26,-2.10,-0.45,-6.34,-1.71,-2.59,-0.11,-1.47,0.46,934.00,1649.00,342.00,464.00,747.00,1182.00,2149.00,2546.00,,,,,,,,,,,,0,0,0,,-5884,15116,-1196,-84,103,-159
16.305,16.01,-2.25,-2.78,0.32,-7.04,-0.76,-2.05,-0.48,-0.50,-0.50,907.00,1659.00,329.00,465.00,755.00,1169.00,2224.00,2514.00,,,,,,,,,,,,0,0,0,,-5864,15164,-1132,-32,73,-147
16.325,16.07,-2.24,-1.86,-0.53,-6.13,-1.46,-2.07,-0.77,-1.12,-0.04,934.00,1637.00,336.00,457.00,767.00,1179.00,2194.00,2545.00,,,,,,,,,,,,0,0,0,,-5708,15228,-1080,68,180,-207
16.366,16.12,-2.25,-1.68,-1.10,-5.58,-3.32,-2.60,-0.37,-1.86,0.32,960.00,1650.00,368.00,470.00,758.00,1191.00,2181.00,2596.00,,,,,,,,,,,,0,0,0,,-5760,14972,-1180,11,189,-166
16.407,16.18,-2.29,-3.05,-0.19,-7.73,-1.08,-2.90,-0.17,-1.39,0.16,937.00,1700.00,339.00,482.00,754.00,1199.00,2181.00,2559.00,,,,,,,,,,,,0,0,0,,-5760,15016,-1100,37,115,-117
16.468,16.23,-2.28,-2.60,-0.36,-6.67,-1.38,-2.16,-0.84,-1.08,-0.30,938.00,1678.00,338.00,466.00,771.00,1185.00,2224.00,2559.00,,,,,,,,,,,,0,0,0,,-5744,15216,-1324,-132,150,-276
16.509,16.29,-2.30,-1.33,-1.29,-4.78,-3.29,-2.68,-0.25,-1.41,0.18,964.00,1636.00,362.00,455.00,754.00,1191.00,2179.00,2559.00,,,,,,,,,,,,0,0,0,,-5860,15036,-1180,-302,66,-212
16.57,16.34,-2.30,-2.22,-0.25,-6.86,-1.43,-2.34,-0.11,-1.26,0.43,926.00,1648.00,340.00,470.00,744.00,1171.00,2144.00,2527.00,,,,,,,,,,,,0,0,0,,-5948,15132,-1068,-179,109,-100
16.674,16.40,-2.27,-2.21,0.21,-6.68,-1.22,-1.63,-0.63,-0.60,-0.04,903.00,1627.00,335.00,464.00,755.00,1154.00,2173.00,2493.00,,,,,,,,,,,,0,0,0,,-5840,15204,-1068,-66,144,-214
16.736,16.45,-2.25,-1.36,-0.58,-5.41,-2.02,-1.99,-0.58,-1.02,0.05,928.00,1607.00,342.00,451.00,758.00,1169.00,2179.00,2529.00,,,,,,,,,,,,0,0,0,,-5788,15280,-1160,22,247,-140
16.757,16.51,-2.27,-1.96,-0.46,-5.90,-2.29,-2.57,0.08,-1.40,0.54,932.00,1640.00,350.00,463.00,739.00,1175.00,2137.00,2534.00,,,,,,,,,,,,0,0,0,,-5796,15032,-1176,-94,64,-216
16.798,16.56,-2.26,-1.90,0.03,-6.77,-1.24,-2.11,-0.37,-0.94,0.09,907.00,1615.00,336.00,466.00,751.00,1168.00,2171.00,2518.00,,,,,,,,,,,,0,0,0,,-5788,15104,-1024,-81,20,-151
16.86,16.62,-2.24,-2.16,-0.29,-7.44,-1.66,-1.88,-0.74,-0.83,-0.17,927.00,1646.00,348.00,484.00,763.00,1169.00,2198.00,2525.00,,,,,,,,,,,,0,0,0,,-5876,15200,-1076,1,137,-217
16.9,16.67,-2.26,-1.34,-1.08,-4.92,-3.09,-2.57,-0.41,-1.44,0.24,953.00,1627.00,359.00,455.00,759.00,1191.00,2174.00,2559.00,,,,,,,,,,,,0,0,0,,-5832,15040,-1136,-13,213,-207
16.961,16.73,-2.27,-2.87,-0.05,-7.49,-1.06,-2.39,-0.27,-1.31,0.29,927.00,1682.00,337.00,477.00,751.00,1178.00,2163.00,2542.00,,,,,,,,,,,,0,0,0,,-5840,15056,-1272,-148,127,-143
17.044,16.78,-2.24,-2.65,-0.04,-6.78,-1.07,-1.70,-0.96,-0.81,-0.29,923.00,1667.00,333.00,464.00,770.00,1168.00,2211.00,2531.00,,,,,,,,,,,,0,0,0,,-5768,14924,-1176,-121,80,-141
17.064,16.84,-2.25,-2.07,-0.79,-5.23,-2.46,-2.47,-0.34,-1.37,0.14,951.00,1662.00,349.00,453.00,755.00,1184.00,2183.00,2558.00,,,,,,,,,,,,0,0,0,,-5772,15324,-1220,-187,151,-210
17.126,16.89,-2.25,-1.95,-0.44,-6.32,-1.50,-2.20,-0.14,-1.19,0.41,931.00,1639.00,338.00,461.00,743.00,1165.00,2144.00,2522.00,,,,,,,,,,,,0,0,0,,-5808,15072,-1160,-282,73,-201
17.168,16.95,-2.21,-2.22,0.48,-6.80,-0.95,-1.48,-0.45,-0.40,0.01,890.00,1616.00,331.00,463.00,746.00,1142.00,2160.00,2471.00,,,,,,,,,,,,0,0,0,,-5868,15112,-1024,-133,51,-99
17.23,17.00,-2.18,-1.14,-0.37,-5.04,-1.82,-1.57,-0.55,-0.56,0.05,914.00,1584.00,336.00,442.00,751.00,1149.00,2161.00,2483.00,,,,,,,,,,,,0,0,0,,-5844,15292,-1056,21,164,-80
17.292,17.06,-2.17,-1.22,-0.64,-7.91,1.99,-2.09,-0.40,-1.00,0.29,929.00,1601.00,288.00,447.00,752.00,1168.00,2151.00,2511.00,,,,,,,,,,,,0,0,0,,-5776,15012,-960,-47,272,-67
17.396,17.11,-2.16,-2.32,0.11,-6.84,-1.22,-1.88,-0.22,-0.68,0.25,910.00,1639.00,336.00,467.00,742.00,1153.00,2143.00,2482.00,,,,,,,,,,,,0,0,0,,-5760,15024,-1220,-164,152,-179
17.417,17.17,-2.10,-1.64,-0.14,-6.21,-1.10,-1.10,-1.05,-0.23,-0.24,911.00,1606.00,330.00,454.00,765.00,1143.00,2182.00,2470.00,,,,,,,,,,,,0,0,0,,-5844,15072,-1088,-220,20,-112
17.458,17.22,-2.10,-0.85,-1.34,-4.05,-3.79,-1.98,-0.34,-1.00,0.24,958.00,1607.00,367.00,448.00,748.00,1161.00,2157.00,2515.00,,,,,,,,,,,,0,0,0,,-5792,15128,-832,-124,64,-120
17.541,17.28,-2.09,-2.00,-0.58,-5.76,-2.49,-1.92,-0.13,-0.95,0.45,939.00,1648.00,353.00,463.00,739.00,1152.00,2130.00,2495.00,,,,,,,,,,,,0,0,0,,-5796,15136,-1156,-133,135,-158
17.562,17.33,-2.06,-2.15,0.15,-6.51,-0.66,-1.45,-0.46,-0.43,0.04,905.00,1626.00,324.00,454.00,746.00,1141.00,2157.00,2471.00,,,,,,,,,,,,0,0,0,,-5792,15084,-1140,-76,117,-10
17.624,17.39,-2.04,-1.46,-0.64,-4.96,-1.68,-1.67,-0.46,-0.70,0.08,933.00,1616.00,333.00,439.00,749.00,1151.00,2163.00,2495.00,,,,,,,,,,,,0,0,0,,-5804,15208,-1252,-136,82,-126
17.706,17.44,-2.02,-1.38,-0.55,-5.11,-1.80,-1.68,-0.06,-0.80,0.53,927.00,1607.00,336.00,443.00,733.00,1139.00,2115.00,2475.00,,,,,,,,,,,,0,0,0,,-5728,15120,-996,-282,-59,-124
17.747,17.50,-1.99,-1.95,0.52,-5.91,-0.63,-1.32,-0.26,-0.13,0.12,884.00,1597.00,320.00,443.00,736.00,1129.00,2136.00,2437.00,,,,,,,,,,,,0,0,0,,-5680,15120,-780,-167,21,-95
17.768,17.55,-1.93,-1.17,-0.32,-5.68,-1.22,-0.81,-0.75,-0.10,-0.08,912.00,1584.00,329.00,446.00,749.00,1121.00,2158.00,2447.00,,,,,,,,,,,,0,0,0,,-5704,15000,-988,-79,73,-88
17.851,17.61,-1.93,-0.87,-0.88,-3.96,-2.57,-1.97,0.01,-0.83,0.40,935.00,1589.00,343.00,432.00,734.00,1150.00,2131.00,2487.00,,,,,,,,,,,,0,0,0,,-5816,15404,-1072,-39,61,-116
17.892,17.66,-1.90,-2.01,-0.06,-6.14,-0.95,-1.42,-0.15,-0.30,0.21,913.00,1626.00,327.00,451.00,733.00,1130.00,2133.00,2448.00,,,,,,,,,,,,0,0,0,,-5720,15160,-836,-111,88,-192
17.975,17.72,-1.85,-1.60,0.01,-5.48,-0.83,-0.88,-0.58,0.16,-0.32,903.00,1597.00,321.00,438.00,743.00,1119.00,2176.00,2438.00,,,,,,,,,,,,0,0,0,,-5740,15024,-948,-76,39,-131
18.037,17.77,-1.83,-0.73,-0.97,-3.53,-2.49,-1.43,-0.17,-0.55,0.18,937.00,1584.00,339.00,424.00,734.00,1131.00,2146.00,2474.00,,,,,,,,,,,,0,0,0,,-5788,15160,-844,-8,96,-161
18.119,17.83,-1.81,-1.64,-0.30,-5.16,-1.23,-1.51,-0.14,-0.77,0.49,919.00,1613.00,326.00,437.00,734.00,1134.00,2119.00,2475.00,,,,,,,,,,,,0,0,0,,-5676,15048,-968,-45,176,-275
18.141,17.88,-1.79,-2.06,0.10,-4.97,-1.85,-1.24,-0.31,-0.16,0.03,906.00,1622.00,336.00,441.00,737.00,1127.00,2148.00,2446.00,,,,,,,,,,,,0,0,0,,-5700,14940,-1060,-83,117,-162
18.181,17.94,-1.77,-1.48,-0.36,-4.70,-1.38,-1.44,-0.32,-0.62,0.10,919.00,1605.00,326.00,431.00,740.00,1136.00,2158.00,2486.00,,,,,,,,,,,,0,0,0,,-5740,15076,-848,-170,96,-121
18.243,17.99,-1.79,-1.58,-0.86,-3.55,-3.34,-2.13,0.01,-1.10,0.39,946.00,1633.00,355.00,434.00,736.00,1157.00,2143.00,2514.00,,,,,,,,,,,,0,0,0,,-5836,15240,-1056,-162,120,-129
18.284,18.05,-1.78,-2.54,-0.16,-6.09,-1.36,-1.62,-0.41,-0.85,0.16,927.00,1665.00,334.00,455.00,746.00,1147.00,2160.00,2505.00,,,,,,,,,,,,0,0,0,,-5720,15208,-900,-129,203,-80
18.346,18.10,-1.73,-1.65,-0.36,-6.02,-0.88,-0.84,-0.84,-0.04,-0.28,922.00,1616.00,325.00,448.00,753.00,1125.00,2179.00,2454.00,,,,,,,,,,,,0,0,0,,-5728,15112,-832,-163,32,-266
18.387,18.16,-1.72,-0.75,-0.92,-3.61,-2.47,-1.47,-0.11,-0.72,0.34,935.00,1583.00,339.00,425.00,732.00,1131.00,2134.00,2480.00,,,,,,,,,,,,0,0,0,,-5936,15112,-960,-138,32,-142
18.448,18.21,-1.70,-1.81,-0.00,-5.95,-0.73,-1.37,0.14,-0.34,0.29,907.00,1611.00,322.00,445.00,721.00,1119.00,2125.00,2446.00,,,,,,,,,,,,0,0,0,,-5888,15080,-772,1,177,-30
18.488,18.27,-1.65,-1.33,0.12,-5.26,-0.56,-0.72,-0.31,0.19,-0.03,893.00,1575.00,315.00,431.00,730.00,1104.00,2141.00,2416.00,,,,,,,,,,,,0,0,0,,-5828,15056,-1036,27,255,-105
18.55,18.32,-1.62,0.15,-0.80,-3.67,-1.67,-1.03,-0.23,-0.09,0.09,914.00,1523.00,325.00,417.00,731.00,1115.00,2138.00,2435.00,,,,,,,,,,,,0,0,0,,-5764,15212,-972,-138,258,-196
18.612,18.38,-1.60,-0.92,-0.67,-3.27,-2.80,-1.27,0.13,-0.40,0.48,925.00,1583.00,343.00,423.00,720.00,1115.00,2105.00,2439.00,,,,,,,,,,,,0,0,0,,-5756,15036,-1012,-184,62,-110
18.674,18.43,-1.57,-1.84,0.46,-5.11,-0.78,-0.84,-0.17,0.13,0.08,885.00,1593.00,318.00,431.00,726.00,1105.00,2131.00,2415.00,,,,,,,,,,,,0,0,0,,-5720,15184,-920,-139,-35,-51
18.736,18.49,-1.52,-1.00,-0.58,-3.60,-2.31,-0.69,-0.60,-0.08,-0.04,922.00,1584.00,336.00,423.00,741.00,1111.00,2153.00,2443.00,,,,,,,,,,,,0,0,0,,-5668,15276,-756,-83,198,-126
18.8,18.54,-1.52,-0.82,-1.08,-2.34,-3.90,-1.53,-0.11,-0.73,0.35,944.00,1594.00,358.00,420.00,733.00,1134.00,2133.00,2480.00,,,,,,,,,,,,0,0,0,,-5656,15156,-912,-135,239,-128
18.862,18.60,-1.52,-2.06,-0.10,-5.93,-0.68,-1.44,0.11,-0.41,0.22,916.00,1631.00,321.00,444.00,723.00,1123.00,2135.00,2457.00,,,,,,,,,,,,0,0,0,,-5660,15132,-964,-149,119,-21
18.882,18.65,-1.46,-1.70,-0.14,-5.16,-0.53,-0.37,-0.90,0.26,-0.35,912.00,1610.00,314.00,429.00,749.00,1106.00,2176.00,2430.00,,,,,,,,,,,,0,0,0,,-5764,15240,-1004,-175,170,-193
18.944,18.71,-1.45,-0.40,-1.20,-2.66,-2.62,-1.19,-0.15,-0.35,0.27,943.00,1573.00,336.00,411.00,730.00,1120.00,2128.00,2449.00,,,,,,,,,,,,0,0,0,,-5704,15116,-744,-254,99,-192
18.986,18.76,-1.43,-1.12,-0.26,-3.98,-1.22,-1.06,0.19,-0.23,0.49,908.00,1578.00,319.00,417.00,715.00,1104.00,2098.00,2423.00,,,,,,,,,,,,0,0,0,,-5584,15196,-752,-108,66,-109
19.048,18.82,-1.38,-1.46,0.44,-4.76,-0.07,-0.38,-0.17,0.54,-0.07,880.00,1570.00,304.00,417.00,720.00,1085.00,2132.00,2385.00,,,,,,,,,,,,0,0,0,,-5712,15172,-808,-41,173,-87
19.111,18.87,-1.34,-0.14,-0.67,-3.08,-1.64,-0.63,-0.44,0.06,0.01,912.00,1535.00,321.00,407.00,734.00,1104.00,2142.00,2426.00,,,,,,,,,,,,0,0,0,,-5688,15280,-1056,0,269,-210
19.174,18.93,-1.33,-0.92,-0.53,-3.69,-1.38,-1.15,0.11,-0.37,0.49,918.00,1577.00,320.00,414.00,719.00,1110.00,2103.00,2436.00,,,,,,,,,,,,0,0,0,,-5644,15036,-1016,-60,46,-185
19.236,18.98,-1.31,-1.51,-0.14,-4.80,-0.71,-0.92,-0.01,0.01,0.17,909.00,1598.00,315.00,425.00,721.00,1104.00,2125.00,2420.00,,,,,,,,,,,,0,0,0,,-5836,15112,-796,-9,-109,-117
19.256,19.04,-1.25,-1.21,-0.27,-4.13,-1.00,-0.23,-0.80,0.26,-0.26,910.00,1584.00,316.00,417.00,743.00,1097.00,2166.00,2425.00,,,,,,,,,,,,0,0,0,,-5788,15172,-920,-9,100,-200
19.36,19.09,-1.27,-0.76,-1.10,-3.09,-2.26,-1.50,0.13,-0.57,0.25,944.00,1591.00,332.00,414.00,723.00,1125.00,2138.00,2471.00,,,,,,,,,,,,0,0,0,,-5692,15060,-932,-43,153,-170
19.381,19.15,-1.26,-2.09,-0.01,-5.34,-0.53,-1.15,0.09,-0.27,0.24,912.00,1629.00,315.00,432.00,720.00,1111.00,2128.00,2443.00,,,,,,,,,,,,0,0,0,,-5836,15184,-996,-119,46,-105
19.463,19.20,-1.24,-1.86,0.01,-4.47,-0.59,-0.84,-0.37,-0.11,-0.01,907.00,1613.00,311.00,418.00,734.00,1111.00,2150.00,2443.00,,,,,,,,,,,,0,0,0,,-5728,15184,-844,-211,111,-166
19.484,19.26,-1.24,-1.27,-0.57,-3.13,-1.56,-1.25,-0.23,-0.60,0.15,926.00,1601.00,320.00,407.00,734.00,1125.00,2151.00,2481.00,,,,,,,,,,,,0,0,0,,-5732,15088,-792,-201,65,-185
19.546,19.31,-1.27,-1.81,-0.45,-4.50,-1.16,-1.77,0.27,-1.03,0.55,929.00,1630.00,321.00,425.00,721.00,1133.00,2122.00,2497.00,,,,,,,,,,,,0,0,0,,-5788,15128,-728,-119,98,-66
19.588,19.37,-1.24,-2.23,0.22,-5.68,0.06,-0.73,-0.33,-0.03,0.02,903.00,1628.00,307.00,431.00,731.00,1105.00,2144.00,2434.00,,,,,,,,,,,,0,0,0,,-5784,15116,-812,-122,56,-297
19.651,19.42,-1.21,-0.84,-0.41,-3.61,-1.40,-0.61,-0.57,-0.05,-0.02,911.00,1567.00,320.00,413.00,739.00,1107.00,2150.00,2439.00,,,,,,,,,,,,0,0,0,,-5828,15080,-736,-157,127,-179
19.712,19.48,-1.21,-0.64,-0.80,-2.87,-2.22,-1.20,-0.05,-0.57,0.34,927.00,1571.00,330.00,410.00,726.00,1117.00,2128.00,2465.00,,,,,,,,,,,,0,0,0,,-5756,15036,-816,79,128,-93
19.773,19.53,-1.19,-1.64,0.02,-4.58,-1.64,-0.81,-0.18,-0.13,0.19,903.00,1599.00,330.00,432.00,726.00,1104.00,2128.00,2432.00,,,,,,,,,,,,0,0,0,,-5836,15024,-892,174,192,-82
19.836,19.59,-1.13,-1.17,-0.01,-4.18,-0.57,-0.10,-0.92,0.32,-0.23,897.00,1571.00,309.00,413.00,746.00,1095.00,2160.00,2417.00,,,,,,,,,,,,0,0,0,,-5808,15136,-884,61,318,-94
19.878,19.64,-1.13,-0.13,-1.17,-1.82,-3.50,-1.09,-0.11,-0.37,0.27,937.00,1555.00,347.00,407.00,727.00,1114.00,2129.00,2451.00,,,,,,,,,,,,0,0,0,,-5672,15024,-836,-67,148,-139
19.961,19.70,-1.13,-1.28,-0.16,-3.59,-2.15,-1.10,0.15,-0.24,0.34,906.00,1584.00,333.00,421.00,717.00,1107.00,2115.00,2433.00,,,,,,,,,,,,0,0,0,,-5720,15188,-968,-28,-6,-81
19.981,19.75,-1.07,-1.65,0.44,-4.65,-0.04,0.17,-0.53,0.23,0.01,883.00,1582.00,303.00,415.00,727.00,1072.00,2135.00,2410.00,,,,,,,,,,,,0,0,0,,-5888,15100,-800,37,80,-145
20.042,19.81,-1.07,-0.58,-0.60,-3.44,-1.11,-1.20,-0.05,0.96,-1.61,916.00,1559.00,314.00,407.00,726.00,1117.00,2300.00,2445.00,,,,,,,,,,,,0,0,0,,-5748,15080,-772,-8,197,-214
20.104,19.86,-1.09,-1.31,-0.50,-3.77,-1.52,-1.45,0.19,-0.64,0.44,923.00,1600.00,323.00,417.00,720.00,1121.00,2119.00,2465.00,,,,,,,,,,,,0,0,0,,-5724,15060,-1068,3,152,-124
20.145,19.92,-1.09,-1.90,0.01,-4.88,-0.69,-1.11,-0.18,-0.47,0.23,908.00,1616.00,315.00,426.00,730.00,1117.00,2137.00,2463.00,,,,,,,,,,,,0,0,0,,-5660,15084,-832,-43,211,-71
20.206,19.97,-1.08,-1.50,-0.23,-3.82,-2.07,-0.78,-0.59,-0.00,-0.20,913.00,1601.00,333.00,424.00,742.00,1115.00,2169.00,2446.00,,,,,,,,,,,,0,0,0,,-5688,15112,-916,-123,175,-323
20.269,20.03,-1.09,-0.51,-1.08,-2.04,-3.53,-1.34,0.00,-0.51,0.27,939.00,1575.00,349.00,411.00,726.00,1122.00,2134.00,2464.00,,,,,,,,,,,,0,0,0,,-5740,15104,-932,-204,12,-197
20.331,20.08,-1.09,-1.66,0.05,-4.43,-1.70,-1.01,0.02,-0.28,0.33,902.00,1599.00,330.00,430.00,721.00,1107.00,2118.00,2438.00,,,,,,,,,,,,0,0,0,,-5828,15052,-900,-88,18,-118
20.352,20.14,-1.06,-1.29,0.23,-4.55,-0.20,-0.51,-0.56,0.26,-0.13,887.00,1568.00,305.00,415.00,737.00,1102.00,2150.00,2416.00,,,,,,,,,,,,0,0,0,,-5788,15180,-860,-61,206,-158
20.414,20.19,-1.06,-0.59,-0.54,-2.51,-1.83,-1.09,-0.11,-0.23,0.17,913.00,1557.00,321.00,400.00,727.00,1114.00,2134.00,2443.00,,,,,,,,,,,,0,0,0,,-5852,15160,-1016,-20,235,-221
20.497,20.25,-1.05,-1.20,-0.37,-3.54,-1.60,-0.97,0.05,-0.54,0.56,915.00,1588.00,323.00,414.00,719.00,1104.00,2102.00,2448.00,,,,,,,,,,,,0,0,0,,-5720,15004,-896,-25,71,-117
20.538,20.30,-1.04,-1.94,0.58,-4.11,-1.12,-0.81,-0.18,0.14,0.02,881.00,1594.00,318.00,418.00,726.00,1104.00,2138.00,2418.00,,,,,,,,,,,,0,0,0,,-5852,15128,-848,-64,66,-117
20.6,20.36,-1.04,-0.99,-0.54,-2.72,-1.53,-0.93,-0.44,-0.17,-0.06,920.00,1582.00,317.00,400.00,738.00,1117.00,2159.00,2453.00,,,,,,,,,,,,0,0,0,,-5772,15208,-896,-1,270,-116
20.642,20.41,-1.06,-1.22,-0.63,-2.65,-2.18,-1.55,-0.18,-0.88,0.33,928.00,1600.00,328.00,406.00,736.00,1137.00,2141.00,2496.00,,,,,,,,,,,,0,0,0,,-5788,15024,-1020,-20,261,-145
20.746,20.47,-1.09,-2.35,0.08,-1.04,-3.06,-1.55,-0.06,-0.57,0.19,912.00,1642.00,334.00,390.00,731.00,1133.00,2145.00,2475.00,,,,,,,,,,,,0,0,0,,-5772,15052,-1084,-81,153,-43
20.767,20.52,-1.09,-1.81,-0.13,-4.15,-1.85,-1.09,-0.73,-0.33,-0.20,913.00,1616.00,331.00,427.00,752.00,1133.00,2181.00,2477.00,,,,,,,,,,,,0,0,0,,-5704,15160,-876,-199,45,-125
20.809,20.58,-1.13,-1.21,-1.12,-2.64,-3.01,-1.86,-0.05,-1.09,0.24,953.00,1621.00,343.00,415.00,735.00,1147.00,2160.00,2523.00,,,,,,,,,,,,0,0,0,,-5720,15112,-908,-95,110,-184
20.868,20.63,-1.17,-2.29,-0.27,-4.37,-2.05,-2.03,0.38,-1.05,0.39,928.00,1653.00,336.00,433.00,720.00,1141.00,2141.00,2509.00,,,,,,,,,,,,0,0,0,,-5688,15340,-1056,-127,309,-233
20.93,20.69,-1.16,-1.84,0.11,-5.06,-0.51,-0.91,-0.27,-0.17,0.01,902.00,1608.00,313.00,427.00,731.00,1111.00,2151.00,2448.00,,,,,,,,,,,,0,0,0,,-5868,15128,-752,-211,184,-320
20.992,20.74,-1.14,-0.60,-0.57,-2.09,-1.80,-0.90,-0.55,-0.36,-0.02,915.00,1559.00,318.00,393.00,742.00,1119.00,2162.00,2469.00,,,,,,,,,,,,0,0,0,,-5752,15128,-1000,-135,78,-143
21.075,20.80,-1.17,-1.72,0.46,-3.60,-1.86,-1.62,0.25,-0.70,0.48,883.00,1585.00,328.00,418.00,720.00,1127.00,2117.00,2469.00,,,,,,,,,,,,0,0,0,,-5784,15268,-924,-54,119,-101
21.095,20.85,-1.17,-1.81,0.24,-5.37,-0.23,-1.16,-0.14,-0.40,0.13,895.00,1600.00,310.00,429.00,729.00,1118.00,2146.00,2463.00,,,,,,,,,,,,0,0,0,,-5660,15112,-720,-14,292,-52
21.137,20.91,-1.15,-1.30,-0.28,-4.57,-0.79,-0.82,-0.80,-0.18,-0.20,912.00,1590.00,315.00,422.00,751.00,1123.00,2176.00,2463.00,,,,,,,,,,,,0,0,0,,-5780,15160,-920,-139,186,-303
21.198,20.96,-1.18,-0.65,-1.11,-3.06,-2.49,-1.74,0.06,-0.94,0.32,943.00,1585.00,336.00,416.00,729.00,1138.00,2145.00,2503.00,,,,,,,,,,,,0,0,0,,-5796,15028,-952,-154,-22,-134
21.26,21.02,-1.19,-1.97,-0.05,-5.53,-0.76,-1.32,-0.13,-0.57,0.23,912.00,1623.00,320.00,438.00,731.00,1125.00,2141.00,2473.00,,,,,,,,,,,,0,0,0,,-5820,15312,-820,-49,-33,-185
21.301,21.07,-1.17,-1.86,0.12,-4.39,-1.14,-0.80,-0.83,-0.20,-0.23,902.00,1609.00,320.00,423.00,752.00,1123.00,2180.00,2467.00,,,,,,,,,,,,0,0,0,,-5800,15148,-840,-68,129,-225
21.384,21.13,-1.19,-1.29,-0.52,-2.77,-2.64,-1.64,-0.03,-0.77,0.16,924.00,1600.00,337.00,413.00,731.00,1136.00,2157.00,2497.00,,,,,,,,,,,,0,0,0,,-5948,15120,-952,-40,180,-152
21.446,21.18,-1.23,-1.70,-0.44,-4.70,-1.38,-2.02,0.30,-1.04,0.41,927.00,1623.00,326.00,431.00,723.00,1143.00,2138.00,2507.00,,,,,,,,,,,,0,0,0,,-5652,15052,-796,-78,237,-43
21.467,21.24,-1.22,-2.19,0.23,-5.29,-0.61,-1.05,-0.42,-0.38,0.00,902.00,1625.00,316.00,432.00,739.00,1122.00,2160.00,2469.00,,,,,,,,,,,,0,0,0,,-5788,15084,-940,-150,138,-240
21.509,21.29,-1.22,-0.90,-0.51,-3.94,-1.00,-1.08,-0.39,-0.52,0.04,917.00,1575.00,315.00,414.00,738.00,1122.00,2161.00,2480.00,,,,,,,,,,,,0,0,0,,-5748,15056,-976,-185,154,-130
21.572,21.35,-1.21,-1.07,-0.53,-3.69,-2.00,-1.18,-0.70,-0.84,0.27,921.00,1587.00,331.00,421.00,752.00,1136.00,2147.00,2497.00,,,,,,,,,,,,0,0,0,,-5904,15024,-748,0,136,-82
21.634,21.40,-1.22,-1.83,-0.10,-5.53,-0.93,-1.40,-0.08,-0.63,0.22,912.00,1616.00,323.00,440.00,730.00,1127.00,2144.00,2479.00,,,,,,,,,,,,0,0,0,,-5740,15152,-756,-37,245,-83
21.696,21.46,-1.21,-1.52,-0.20,-4.78,-1.01,-0.98,-0.79,-0.33,-0.24,912.00,1601.00,320.00,428.00,753.00,1130.00,2186.00,2480.00,,,,,,,,,,,,0,0,0,,-5760,15152,-1016,24,278,-186
21.82,21.51,-1.23,-0.96,-1.03,-3.22,-3.14,-1.56,-0.30,-0.97,0.20,944.00,1601.00,349.00,426.00,741.00,1141.00,2160.00,2514.00,,,,,,,,,,,,0,0,0,,-5884,15132,-1020,-119,154,-47
21.841,21.57,-1.26,-2.06,-0.14,-5.31,-1.00,-1.80,0.28,-0.91,0.36,918.00,1633.00,323.00,437.00,721.00,1134.00,2139.00,2497.00,,,,,,,,,,,,0,0,0,,-5540,15208,-928,-12,88,-100
21.862,21.62,-1.26,-1.84,-0.07,-5.39,-0.46,-1.22,-0.44,-0.43,-0.04,911.00,1616.00,314.00,432.00,742.00,1130.00,2167.00,2477.00,,,,,,,,,,,,0,0,0,,-5700,15172,-1088,-20,153,-162
21.924,21.68,-1.27,-1.18,-0.68,-3.65,-1.79,-1.63,-0.33,-0.89,0.08,930.00,1600.00,327.00,418.00,743.00,1145.00,2171.00,2514.00,,,,,,,,,,,,0,0,0,,-5716,15040,-880,29,150,-167
21.964,21.73,-1.31,-1.86,-0.51,-4.78,-1.35,-2.03,0.13,-1.45,0.50,933.00,1636.00,326.00,432.00,730.00,1149.00,2144.00,2542.00,,,,,,,,,,,,0,0,0,,-5824,15120,-856,-152,135,-41
22.027,21.79,-1.33,-2.62,0.27,-5.76,-0.51,-1.57,-0.45,-0.89,0.08,907.00,1651.00,317.00,439.00,747.00,1146.00,2171.00,2514.00,,,,,,,,,,,,0,0,0,,-5652,15244,-1012,-130,173,-57
22.089,21.84,-1.34,-2.10,-0.45,-5.55,-1.32,-1.58,-0.79,-1.07,-0.10,934.00,1649.00,330.00,445.00,761.00,1157.00,2199.00,2544.00,,,,,,,,,,,,0,0,0,,-5732,15196,-828,-61,191,93
22.173,21.90,-1.37,-1.45,-1.10,-4.19,-2.22,-1.98,-0.24,-1.52,0.39,956.00,1635.00,338.00,432.00,744.00,1158.00,2160.00,2557.00,,,,,,,,,,,,0,0,0,,-5736,15148,-900,-201,-187,-153
22.194,21.95,-1.38,-2.03,-0.21,-5.68,-1.22,-1.66,0.01,-0.83,0.18,921.00,1634.00,329.00,446.00,730.00,1136.00,2157.00,2502.00,,,,,,,,,,,,0,0,0,,-5744,15212,-720,-149,-188,-78
22.235,22.01,-1.36,-1.58,-0.18,-4.93,-0.96,-0.87,-0.83,-0.44,-0.25,912.00,1604.00,320.00,430.00,753.00,1126.00,2192.00,2492.00,,,,,,,,,,,,0,0,0,,-5760,15264,-756,39,90,-139
22.297,22.06,-1.36,-0.56,-1.22,-3.45,-2.36,-1.48,-0.45,-1.00,0.16,947.00,1584.00,336.00,421.00,746.00,1142.00,2166.00,2520.00,,,,,,,,,,,,0,0,0,,-5760,15204,-712,66,313,-129
22.34,22.12,-1.38,-1.72,-0.24,-5.16,-1.06,-1.73,0.10,-1.14,0.48,917.00,1615.00,323.00,435.00,727.00,1136.00,2134.00,2512.00,,,,,,,,,,,,0,0,0,,-5680,15168,-996,34,263,-228
22.402,22.17,-1.36,-2.02,0.25,-5.21,-0.46,-0.97,-0.55,-0.49,0.03,898.00,1613.00,313.00,429.00,743.00,1122.00,2161.00,2478.00,,,,,,,,,,,,0,0,0,,-5680,15140,-1016,-38,133,-111
22.462,22.23,-1.37,-1.05,-0.50,-3.50,-1.84,-1.56,-0.20,-0.85,0.05,919.00,1584.00,327.00,416.00,737.00,1138.00,2173.00,2512.00,,,,,,,,,,,,0,0,0,,-5656,15184,-1000,111,95,-116
22.544,22.28,-1.39,-1.38,-0.69,-4.53,-1.72,-1.78,0.12,-1.24,0.40,934.00,1613.00,331.00,432.00,727.00,1138.00,2147.00,2527.00,,,,,,,,,,,,0,0,0,,-5744,15168,-1116,41,151,-181
22.564,22.34,-1.40,-2.24,-0.06,-5.71,-0.76,-1.48,-0.35,-1.02,0.22,917.00,1641.00,321.00,441.00,742.00,1139.00,2160.00,2518.00,,,,,,,,,,,,0,0,0,,-5656,15144,-936,10,170,-183
22.626,22.39,-1.38,-1.85,-0.31,-4.85,-0.99,-1.14,-0.98,-0.84,-0.16,923.00,1627.00,320.00,429.00,763.00,1143.00,2197.00,2525.00,,,,,,,,,,,,0,0,0,,-5776,15120,-1132,-75,163,-31
22.667,22.45,-1.41,-1.20,-1.16,-3.56,-2.54,-1.82,-0.24,-1.51,0.34,955.00,1622.00,340.00,425.00,742.00,1151.00,2165.00,2559.00,,,,,,,,,,,,0,0,0,,-5616,15024,-836,-268,88,-255
22.728,22.50,-1.42,-1.90,-0.36,-5.85,-0.71,-1.70,0.09,-0.95,0.34,926.00,1632.00,321.00,443.00,727.00,1135.00,2143.00,2503.00,,,,,,,,,,,,0,0,0,,-5660,15104,-848,-276,99,-146
22.79,22.56,-1.40,-1.70,0.08,-5.50,-0.12,-0.92,-0.42,-0.48,-0.02,901.00,1600.00,309.00,430.00,737.00,1116.00,2166.00,2480.00,,,,,,,,,,,,0,0,0,,-5836,15192,-864,-100,100,-74
22.853,22.61,-1.38,-0.97,-0.57,-3.48,-1.51,-1.16,-0.36,-0.60,-0.31,921.00,1582.00,321.00,412.00,738.00,1125.00,2206.00,2512.00,,,,,,,,,,,,0,0,0,,-5716,15196,-696,-53,256,-55
22.893,22.67,-1.40,-1.53,-0.40,-4.80,-1.06,-1.68,0.14,-1.75,0.70,922.00,1610.00,321.00,429.00,725.00,1133.00,2133.00,2559.00,,,,,,,,,,,,0,0,0,,-5716,15112,-1116,-45,203,-329
22.956,22.72,-1.38,-2.15,0.38,-5.33,0.24,-0.98,-0.40,-0.50,0.04,894.00,1616.00,302.00,423.00,737.00,1118.00,2160.00,2478.00,,,,,,,,,,,,0,0,0,,-5720,14968,-992,-151,4,-76
23.017,22.78,-1.36,-1.02,-0.59,-3.04,-1.42,-0.94,-0.66,-0.74,-0.03,923.00,1586.00,317.00,404.00,747.00,1124.00,2178.00,2507.00,,,,,,,,,,,,0,0,0,,-5752,15208,-872,-64,-32,-90
23.08,22.83,-1.37,-1.24,-0.89,-3.18,-1.95,-1.58,-0.27,-1.36,0.33,942.00,1613.00,327.00,412.00,740.00,1141.00,2160.00,2544.00,,,,,,,,,,,,0,0,0,,-5880,15284,-804,-91,154,-199
23.142,22.89,-1.39,-2.51,0.07,-5.39,-0.63,-1.85,-0.01,-1.00,0.18,915.00,1653.00,317.00,434.00,733.00,1145.00,2163.00,2518.00,,,,,,,,,,,,0,0,0,,-5652,15072,-788,-160,157,-144
23.182,22.94,-1.37,-2.09,-0.05,-4.54,-0.74,-1.00,-0.76,-0.76,-0.26,914.00,1631.00,314.00,421.00,752.00,1130.00,2206.00,2524.00,,,,,,,,,,,,0,0,0,,-5764,15312,-912,-162,76,-114
23.326,23.00,-1.39,-1.20,-1.28,-2.88,-2.38,-1.80,-0.27,-1.43,0.22,961.00,1627.00,333.00,412.00,743.00,1151.00,2176.00,2559.00,,,,,,,,,,,,0,0,0,,-5616,15280,-784,-118,221,-77
23.347,23.05,-1.40,-1.81,-0.48,-4.60,-1.01,-1.49,-0.05,-1.08,0.38,931.00,1632.00,319.00,425.00,730.00,1130.00,2143.00,2513.00,,,,,,,,,,,,0,0,0,,-5616,15196,-772,-211,105,-213
23.368,23.11,-1.35,-1.74,0.22,-4.55,-0.02,-0.48,-0.57,-0.29,-0.04,895.00,1597.00,302.00,413.00,737.00,1101.00,2161.00,2463.00,,,,,,,,,,,,0,0,0,,-5720,15104,-936,-175,48,-117
23.389,23.16,-1.32,0.91,-1.08,-2.67,-1.14,-0.75,-0.50,-0.58,0.07,915.00,1489.00,310.00,395.00,738.00,1111.00,2160.00,2484.00,,,,,,,,,,,,0,0,0,,-5628,15204,-880,-30,170,-28
23.451,23.22,-1.31,-0.93,-0.42,-2.66,-1.61,-1.08,0.12,-1.03,0.57,913.00,1573.00,318.00,400.00,718.00,1107.00,2119.00,2495.00,,,,,,,,,,,,0,0,0,,-5680,15144,-832,5,261,-73
23.493,23.27,-1.29,-1.74,0.41,-3.88,-0.37,-0.95,0.02,-0.47,0.13,886.00,1589.00,304.00,406.00,720.00,1104.00,2149.00,2470.00,,,,,,,,,,,,0,0,0,,-5716,15152,-992,-32,233,-188
23.555,23.33,-1.16,-1.13,-0.33,-3.29,-0.69,1.32,-1.17,-0.26,-0.20,912.00,1582.00,306.00,400.00,737.00,1042.00,2179.00,2471.00,,,,,,,,,,,,0,0,0,,-5732,15116,-936,-112,113,-74
23.657,23.38,-1.17,-0.77,-0.92,-2.31,-2.13,-1.27,0.03,-1.00,0.27,935.00,1584.00,325.00,400.00,724.00,1118.00,2153.00,2512.00,,,,,,,,,,,,0,0,0,,-5704,15244,-732,-83,96,-102
23.678,23.44,-1.19,-1.85,-0.09,-4.39,-0.62,-1.71,0.28,-0.69,0.29,912.00,1617.00,311.00,417.00,720.00,1130.00,2138.00,2480.00,,,,,,,,,,,,0,0,0,,-5704,15216,-768,-102,157,-182
23.721,23.49,-1.15,-1.69,0.12,-3.48,-0.50,-0.34,-0.74,-0.33,-0.20,899.00,1598.00,304.00,401.00,742.00,1100.00,2182.00,2478.00,,,,,,,,,,,,0,0,0,,-5664,15032,-992,-20,138,-211
23.782,23.55,-1.13,-0.85,-0.87,-2.48,-1.78,-0.78,-0.27,-0.87,0.16,934.00,1587.00,320.00,399.00,729.00,1105.00,2161.00,2507.00,,,,,,,,,,,,0,0,0,,-5500,15200,-952,-34,186,-79
23.823,23.60,-1.13,-1.36,-0.30,-2.97,-1.15,-1.06,0.19,-0.83,0.49,914.00,1595.00,312.00,400.00,715.00,1104.00,2121.00,2481.00,,,,,,,,,,,,0,0,0,,-5608,15132,-756,-279,37,-276
23.886,23.66,-1.08,-1.56,0.36,-3.25,-0.45,-0.21,-0.36,-0.01,-0.03,885.00,1579.00,302.00,397.00,725.00,1083.00,2149.00,2435.00,,,,,,,,,,,,0,0,0,,-5628,15100,-888,-298,-27,-159
23.927,23.71,-1.05,-0.21,-0.56,-1.94,-0.96,-0.38,-0.27,-0.35,0.02,908.00,1535.00,303.00,382.00,724.00,1088.00,2157.00,2465.00,,,,,,,,,,,,0,0,0,,-5732,15252,-780,-111,48,-107
24.008,23.77,-1.04,-0.88,-0.52,1.51,-2.89,-0.86,-0.01,-0.90,0.46,917.00,1574.00,316.00,351.00,720.00,1101.00,2127.00,2490.00,,,,,,,,,,,,0,0,0,,-5764,15200,-656,-74,238,-99
24.072,23.82,-1.01,-1.94,0.02,-4.91,-0.02,-0.53,-0.12,-0.52,0.21,908.00,1618.00,304.00,419.00,720.00,1090.00,2141.00,2469.00,,,,,,,,,,,,0,0,0,,-5604,15092,-904,-59,167,-248
24.133,23.88,-0.97,-1.14,-0.25,-2.53,-0.76,-0.10,-0.62,-0.20,-0.19,908.00,1579.00,303.00,389.00,734.00,1086.00,2175.00,2464.00,,,,,,,,,,,,0,0,0,,-5632,15100,-832,-116,-6,-104
24.174,23.93,-0.97,-0.62,-1.08,-1.28,-2.13,-0.95,-0.00,-0.98,0.28,941.00,1582.00,319.00,384.00,721.00,1105.00,2151.00,2510.00,,,,,,,,,,,,0,0,0,,-5680,15244,-792,-78,-10,-170
24.216,23.99,-0.96,-1.87,-0.09,-3.80,-0.39,-0.80,0.07,-0.94,0.46,912.00,1618.00,304.00,405.00,716.00,1096.00,2128.00,2493.00,,,,,,,,,,,,0,0,0,,-5696,15308,-700,-58,-65,-116
24.279,24.04,-0.93,-1.60,-0.14,-3.20,-0.53,-0.48,-0.26,-0.47,0.01,910.00,1603.00,303.00,397.00,725.00,1092.00,2163.00,2478.00,,,,,,,,,,,,0,0,0,,-5744,15108,-788,-136,16,-118
24.362,24.10,-0.93,-1.12,-0.56,-2.15,-1.13,-0.84,-0.17,-0.88,0.13,923.00,1591.00,307.00,387.00,726.00,1105.00,2165.00,2510.00,,,,,,,,,,,,0,0,0,,-5752,15188,-756,-265,114,-217
24.382,24.15,-0.94,-1.72,-0.42,-3.29,-0.69,-1.22,0.19,-1.33,0.58,926.00,1623.00,306.00,400.00,717.00,1111.00,2130.00,2524.00,,,,,,,,,,,,0,0,0,,-5728,15188,-772,-149,76,-175
24.444,24.21,-0.94,-2.51,0.31,-3.45,-0.45,-0.79,-0.21,-0.71,0.09,903.00,1642.00,303.00,400.00,727.00,1104.00,2163.00,2496.00,,,,,,,,,,,,0,0,0,,-5724,15388,-688,-128,199,-116
24.507,24.26,-0.90,-1.00,-0.50,-2.37,-0.81,-0.25,-0.49,-0.55,-0.00,918.00,1581.00,303.00,387.00,731.00,1089.00,2167.00,2486.00,,,,,,,,,,,,0,0,0,,-5612,15076,-552,-169,182,-236
24.548,24.32,-0.90,-0.67,-0.85,-1.57,-1.80,-0.77,-0.04,-0.96,0.25,930.00,1575.00,315.00,385.00,720.00,1098.00,2153.00,2509.00,,,,,,,,,,,,0,0,0,,-5640,15056,-792,-126,90,-119
24.588,24.37,-0.87,-1.59,-0.08,-3.80,-0.39,-0.29,-0.20,-0.52,0.29,907.00,1600.00,304.00,405.00,720.00,1082.00,2132.00,2464.00,,,,,,,,,,,,0,0,0,,-5696,15144,-736,24,138,-45
24.67,24.43,-0.82,-1.15,-0.04,-2.39,-0.68,0.02,-0.48,-0.88,1.02,898.00,1571.00,301.00,386.00,727.00,1077.00,2063.00,2451.00,,,,,,,,,,,,0,0,0,,-5704,15132,-624,-35,293,-72
24.732,24.48,-0.81,-0.41,-1.02,-0.41,-2.42,-0.66,-0.02,-0.85,0.30,934.00,1566.00,319.00,374.00,718.00,1093.00,2144.00,2496.00,,,,,,,,,,,,0,0,0,,-5692,15184,-872,-121,244,-232
24.754,24.54,-0.80,-1.32,-0.17,-2.43,-0.91,-0.63,0.09,-0.71,0.40,907.00,1587.00,305.00,389.00,713.00,1088.00,2127.00,2475.00,,,,,,,,,,,,0,0,0,,-5616,15208,-760,189,9,-57
24.814,24.59,-0.77,-1.66,0.25,-3.05,0.29,-0.05,-0.28,-0.12,-0.06,892.00,1590.00,289.00,386.00,720.00,1074.00,2157.00,2448.00,,,,,,,,,,,,0,0,0,,-5628,15292,-640,214,2,103
24.877,24.65,-0.75,-0.78,-0.45,-1.28,-1.24,-0.38,-0.27,-0.57,0.07,912.00,1565.00,304.00,375.00,724.00,1088.00,2159.00,2483.00,,,,,,,,,,,,0,0,0,,-5744,15336,-640,24,286,-156
24.94,24.70,-0.75,-1.32,-0.41,-2.11,-1.38,-0.91,0.24,-1.12,0.51,919.00,1597.00,311.00,389.00,711.00,1096.00,2130.00,2508.00,,,,,,,,,,,,0,0,0,,-5576,15232,-840,-112,279,-263
25.001,24.76,-0.76,-2.08,0.27,-3.58,0.21,-0.88,0.02,-0.73,0.12,898.00,1616.00,293.00,395.00,719.00,1101.00,2160.00,2496.00,,,,,,,,,,,,0,0,0,,-5504,15160,-816,-153,171,-71
25.042,24.81,-0.74,-1.56,-0.15,-2.58,-0.50,-0.36,-0.51,-0.33,-0.24,910.00,1601.00,299.00,387.00,733.00,1094.00,2186.00,2480.00,,,,,,,,,,,,0,0,0,,-5632,15136,-668,-286,13,-246
25.104,24.87,-0.74,-0.43,-1.11,1.08,-5.51,-0.68,-0.07,-0.94,0.32,939.00,1571.00,367.00,383.00,720.00,1095.00,2145.00,2503.00,,,,,,,,,,,,0,0,0,,-5716,15244,-748,-336,-5,-227
25.166,24.92,-0.72,-1.63,-0.04,-3.22,-0.22,-0.43,-0.02,-0.62,0.34,906.00,1601.00,298.00,394.00,715.00,1083.00,2130.00,2470.00,,,,,,,,,,,,0,0,0,,-5764,15336,-728,-128,52,-150
25.227,24.98,-0.68,-1.25,0.03,-2.66,-0.10,0.13,-0.55,-0.02,-0.24,896.00,1574.00,293.00,384.00,728.00,1074.00,2174.00,2450.00,,,,,,,,,,,,0,0,0,,-5664,15156,-512,19,213,-77
25.269,25.03,-0.70,-0.59,-0.78,-1.23,-1.32,-1.08,0.12,-0.59,0.07,925.00,1567.00,305.00,375.00,718.00,1107.00,2160.00,2485.00,,,,,,,,,,,,0,0,0,,-5524,15192,-868,43,204,-262
25.309,25.09,-0.70,-1.28,-0.29,-2.14,-0.95,-0.73,0.21,-0.89,0.42,912.00,1589.00,304.00,385.00,710.00,1089.00,2131.00,2491.00,,,,,,,,,,,,0,0,0,,-5588,15064,-780,30,41,-174
25.371,25.14,-0.67,-1.97,0.50,-3.13,0.32,-0.14,-0.25,-0.35,0.01,885.00,1599.00,289.00,387.00,720.00,1077.00,2158.00,2466.00,,,,,,,,,,,,0,0,0,,-5576,15244,-792,104,-28,-127
25.433,25.20,-0.65,-1.13,-0.33,-1.35,-1.03,-0.31,-0.37,-0.77,0.01,912.00,1582.00,301.00,374.00,727.00,1088.00,2174.00,2507.00,,,,,,,,,,,,0,0,0,,-5548,15148,-808,17,176,-191
25.474,25.25,-0.67,-1.47,-0.56,-2.06,-0.98,-0.91,-0.07,-1.17,0.28,929.00,1613.00,304.00,384.00,723.00,1105.00,2158.00,2528.00,,,,,,,,,,,,0,0,0,,-5692,15132,-980,-118,200,-174
25.535,25.31,-0.68,-2.36,-0.02,-2.98,-0.67,-0.98,0.03,-0.97,0.14,917.00,1647.00,304.00,395.00,720.00,1105.00,2167.00,2518.00,,,,,,,,,,,,0,0,0,,-5608,15096,-732,-147,82,-82
25.618,25.36,-0.68,-1.91,-0.25,-2.67,-0.65,-0.52,-0.60,-0.67,-0.32,921.00,1628.00,302.00,390.00,739.00,1104.00,2209.00,2519.00,,,,,,,,,,,,0,0,0,,-5628,15168,-768,-198,47,-115
25.639,25.42,-0.73,-1.32,-1.22,-1.35,-2.22,-1.73,0.18,-1.72,0.30,960.00,1632.00,321.00,386.00,724.00,1134.00,2178.00,2583.00,,,,,,,,,,,,0,0,0,,-5620,15096,-652,-70,117,-63
25.7,25.47,-0.74,-2.62,-0.13,-3.86,-0.49,-0.99,-0.02,-1.20,0.30,927.00,1669.00,306.00,407.00,722.00,1107.00,2157.00,2530.00,,,,,,,,,,,,0,0,0,,-5636,15292,-700,-120,98,-346
25.763,25.53,-0.73,-1.85,0.09,-3.14,-0.06,-0.43,-0.23,-0.52,-0.05,903.00,1609.00,295.00,391.00,723.00,1089.00,2171.00,2486.00,,,,,,,,,,,,0,0,0,,-5784,15124,-660,-147,90,-178
25.908,25.58,-0.73,-0.85,-0.47,-1.19,-1.27,-0.76,-0.12,-0.79,0.10,914.00,1570.00,304.00,374.00,723.00,1100.00,2165.00,2503.00,,,,,,,,,,,,0,0,0,,-5756,15020,-568,45,141,-75
25.929,25.64,-0.75,-1.44,-0.21,-2.12,-1.08,-1.14,0.35,-1.14,0.48,911.00,1596.00,306.00,386.00,710.00,1103.00,2134.00,2512.00,,,,,,,,,,,,0,0,0,,-5620,15140,-740,67,213,-95
25.951,25.69,-0.67,-1.97,0.48,-3.44,0.10,0.85,-2.16,-0.50,0.02,886.00,1600.00,294.00,394.00,784.00,1090.00,2163.00,2480.00,,,,,,,,,,,,0,0,0,,-5720,15208,-852,50,204,-90
25.992,25.75,-0.67,-1.17,-0.32,-1.97,-1.01,-0.67,-0.35,-0.71,-0.05,912.00,1584.00,304.00,383.00,731.00,1103.00,2179.00,2505.00,,,,,,,,,,,,0,0,0,,-5468,14924,-1060,47,-321,105
26.033,25.80,-0.70,-1.15,-0.71,-1.31,-2.18,-1.26,0.05,-1.28,0.30,931.00,1599.00,320.00,385.00,723.00,1117.00,2160.00,2538.00,,,,,,,,,,,,0,0,0,,-5484,15244,-496,101,-418,121
26.094,25.86,-0.71,-2.25,0.04,-3.96,-0.34,-0.99,-0.02,-0.97,0.19,912.00,1637.00,304.00,407.00,722.00,1107.00,2161.00,2515.00,,,,,,,,,,,,0,0,0,,-5728,15264,-364,66,31,-185
26.135,25.91,-0.71,-1.81,-0.11,-3.04,-0.59,-0.72,-0.51,-0.60,-0.24,912.00,1615.00,303.00,395.00,738.00,1110.00,2197.00,2507.00,,,,,,,,,,,,0,0,0,,-5668,15184,-832,-28,338,-262
26.218,25.97,-0.75,-1.19,-0.97,-1.45,-2.36,-1.47,0.02,-1.44,0.23,945.00,1613.00,324.00,389.00,727.00,1127.00,2175.00,2559.00,,,,,,,,,,,,0,0,0,,-5512,15044,-764,42,248,-93
26.239,26.02,-0.79,-2.11,-0.35,-3.48,-0.50,-1.47,0.12,-1.46,0.38,929.00,1645.00,304.00,401.00,723.00,1124.00,2158.00,2551.00,,,,,,,,,,,,0,0,0,,-5652,15264,-1028,-78,289,-25
26.3,26.08,-0.78,-2.22,0.34,-3.99,0.35,-0.64,-0.36,-0.66,-0.03,897.00,1622.00,293.00,400.00,731.00,1102.00,2175.00,2499.00,,,,,,,,,,,,0,0,0,,-5644,15216,-780,-322,97,-263
26.362,26.13,-0.82,-1.04,-0.46,-5.08,3.58,-1.66,-0.10,-0.86,0.07,917.00,1582.00,251.00,383.00,734.00,1139.00,2171.00,2512.00,,,,,,,,,,,,0,0,0,,-5560,15248,-676,-188,114,-89
26.425,26.19,-0.85,-1.30,-0.58,-2.76,-1.28,-1.37,0.34,-1.24,0.47,927.00,1603.00,313.00,398.00,713.00,1113.00,2139.00,2523.00,,,,,,,,,,,,0,0,0,,-5656,15156,-488,-71,127,-164
26.486,26.24,-0.86,-2.11,0.32,-3.39,-0.53,-1.03,-0.03,-0.94,0.17,896.00,1616.00,304.00,400.00,723.00,1109.00,2162.00,2513.00,,,,,,,,,,,,0,0,0,,-5628,15380,-860,35,330,-154
26.528,26.30,-0.84,-1.73,-0.19,-3.39,-0.53,-0.52,-0.78,-0.78,-0.18,915.00,1614.00,304.00,400.00,746.00,1109.00,2197.00,2521.00,,,,,,,,,,,,0,0,0,,-5604,15116,-832,-81,190,-207
26.57,26.35,-0.88,-1.20,-1.01,-2.40,-1.81,-1.57,-0.02,-1.47,0.27,947.00,1615.00,320.00,398.00,730.00,1133.00,2171.00,2559.00,,,,,,,,,,,,0,0,0,,-5600,15228,-896,52,27,-130
26.63,26.41,-0.92,-2.54,0.06,-4.83,-0.23,-1.62,0.25,-1.26,0.27,916.00,1655.00,307.00,420.00,720.00,1127.00,2163.00,2538.00,,,,,,,,,,,,0,0,0,,-5632,15308,-720,104,102,-220
26.691,26.46,-0.91,-2.20,0.07,-3.45,-0.45,-0.76,-0.70,-0.65,-0.27,910.00,1633.00,303.00,400.00,746.00,1117.00,2203.00,2514.00,,,,,,,,,,,,0,0,0,,-5652,15104,-984,102,168,-258
26.754,26.52,-0.93,-1.32,-0.87,-1.89,-1.81,-1.39,-0.38,-1.39,0.15,942.00,1617.00,317.00,390.00,742.00,1136.00,2182.00,2559.00,,,,,,,,,,,,0,0,0,,-5600,15148,-960,-44,169,-150
26.817,26.57,-0.97,-2.26,-0.39,-3.55,-1.13,-1.73,0.10,-1.55,0.39,934.00,1657.00,315.00,409.00,727.00,1136.00,2160.00,2559.00,,,,,,,,,,,,0,0,0,,-5676,15148,-900,-48,144,-222
26.857,26.63,-0.99,-2.81,0.21,-4.53,0.22,-1.34,-0.43,-1.21,0.01,913.00,1666.00,298.00,410.00,743.00,1135.00,2192.00,2551.00,,,,,,,,,,,,0,0,0,,-5720,15392,-964,-76,271,-86
26.94,26.68,-1.00,-1.54,-0.46,-2.79,-1.33,-1.13,-0.35,-1.13,-0.00,925.00,1613.00,314.00,399.00,737.00,1123.00,2190.00,2544.00,,,,,,,,,,,,0,0,0,,-5608,15004,-736,-243,61,-255
26.96,26.74,-1.02,-1.39,-0.61,-2.72,-1.53,-1.41,-0.13,-1.35,0.30,930.00,1610.00,317.00,400.00,732.00,1129.00,2163.00,2545.00,,,,,,,,,,,,0,0,0,,-5732,15216,-848,-71,85,-67
27.023,26.79,-1.03,-2.11,-0.02,-4.75,-0.25,-1.32,-0.03,-1.05,0.18,913.00,1631.00,307.00,419.00,727.00,1122.00,2165.00,2523.00,,,,,,,,,,,,0,0,0,,-5604,15224,-752,79,191,-84
27.087,26.85,-1.02,-1.59,-0.24,-3.37,-0.66,-0.68,-0.85,-0.75,-0.25,915.00,1607.00,306.00,401.00,751.00,1118.00,2204.00,2522.00,,,,,,,,,,,,0,0,0,,-5616,15364,-960,98,326,-123
27.168,26.90,-1.04,-1.02,-1.01,-2.29,-2.25,-1.59,-0.09,-1.47,0.28,944.00,1604.00,327.00,401.00,733.00,1136.00,2170.00,2559.00,,,,,,,,,,,,0,0,0,,-5456,15044,-916,-4,167,-221
27.189,26.96,-1.02,-2.22,-0.03,-4.36,-0.74,-0.53,-0.12,-1.25,0.32,915.00,1638.00,313.00,418.00,720.00,1090.00,2157.00,2534.00,,,,,,,,,,,,0,0,0,,-5660,15156,-872,-56,19,-121
27.231,27.01,-1.02,-2.03,0.15,-3.75,-0.47,-0.96,-0.33,-0.86,0.03,903.00,1618.00,305.00,405.00,734.00,1115.00,2175.00,2514.00,,,,,,,,,,,,0,0,0,,-5668,15232,-948,-31,119,-126
27.313,27.07,-1.03,-1.30,-0.62,-2.32,-1.55,-1.37,-0.22,-1.19,0.09,929.00,1605.00,315.00,394.00,735.00,1130.00,2182.00,2544.00,,,,,,,,,,,,0,0,0,,-5652,15236,-924,-63,219,-196
27.355,27.12,-1.08,-2.03,-0.39,-3.55,-1.13,-1.98,0.34,-1.58,0.44,930.00,1642.00,315.00,409.00,721.00,1140.00,2156.00,2559.00,,,,,,,,,,,,0,0,0,,-5584,15152,-892,46,166,-105
27.395,27.18,-1.09,-2.78,0.32,-4.68,-0.10,-1.33,-0.28,-1.04,0.04,907.00,1659.00,304.00,416.00,737.00,1130.00,2182.00,2532.00,,,,,,,,,,,,0,0,0,,-5660,15412,-1056,6,160,-179
27.457,27.23,-1.09,-1.61,-0.41,-3.03,-1.07,-0.96,-0.43,-0.93,-0.08,924.00,1616.00,311.00,400.00,738.00,1118.00,2191.00,2529.00,,,,,,,,,,,,0,0,0,,-5640,14996,-792,-243,82,-221
27.518,27.29,-1.11,-1.24,-0.89,-2.92,-1.69,-1.61,-0.04,-1.39,0.28,942.00,1613.00,321.00,405.00,731.00,1135.00,2167.00,2551.00,,,,,,,,,,,,0,0,0,,-5652,15264,-868,-145,159,-88
27.56,27.34,-1.12,-2.35,0.08,-4.08,-1.24,-1.29,0.06,-0.92,0.14,912.00,1642.00,320.00,419.00,723.00,1118.00,2165.00,2513.00,,,,,,,,,,,,0,0,0,,-5432,15104,-852,-68,186,-166
27.621,27.40,-1.09,-1.77,-0.12,-3.03,-1.07,-0.51,-0.93,-0.64,-0.24,912.00,1613.00,311.00,400.00,752.00,1113.00,2199.00,2511.00,,,,,,,,,,,,0,0,0,,-5664,15336,-1044,10,290,-151
27.684,27.45,-1.11,-0.96,-1.13,-2.28,-2.08,-1.43,-0.09,-1.30,0.17,949.00,1605.00,324.00,399.00,731.00,1129.00,2176.00,2549.00,,,,,,,,,,,,0,0,0,,-5588,15132,-1052,-74,115,-159
27.726,27.51,-1.13,-1.87,-0.27,-3.16,-0.97,-1.62,0.25,-1.19,0.32,921.00,1626.00,310.00,401.00,720.00,1127.00,2155.00,2528.00,,,,,,,,,,,,0,0,0,,-5560,15124,-848,-44,28,-59
27.789,27.56,-1.13,-2.25,0.27,-3.45,-0.45,-1.10,-0.05,-0.60,-0.06,901.00,1627.00,303.00,400.00,725.00,1113.00,2176.00,2495.00,,,,,,,,,,,,0,0,0,,-5680,15152,-900,43,182,-170
27.851,27.62,-1.14,-1.38,-0.55,-2.06,-0.98,-1.35,-0.23,-1.02,0.02,927.00,1607.00,304.00,384.00,735.00,1129.00,2183.00,2531.00,,,,,,,,,,,,0,0,0,,-5628,15076,-1008,41,299,-221
27.891,27.67,-1.18,-2.17,-0.33,-2.72,-1.53,-1.95,0.33,-1.55,0.39,929.00,1648.00,317.00,400.00,721.00,1139.00,2160.00,2559.00,,,,,,,,,,,,0,0,0,,-5684,15216,-952,-115,156,-177
27.952,27.73,-1.20,-3.78,1.60,-3.77,-0.34,-1.55,-0.16,-1.41,0.18,862.00,1668.00,303.00,404.00,735.00,1136.00,2179.00,2559.00,,,,,,,,,,,,0,0,0,,-5512,15056,-932,-130,144,-174
28.055,27.78,-1.20,-2.47,-0.23,-3.48,-0.68,-1.20,-0.67,-0.98,-0.26,929.00,1663.00,307.00,403.00,751.00,1136.00,2215.00,2546.00,,,,,,,,,,,,0,0,0,,-5724,15508,-844,-234,414,-346
28.075,27.84,-1.22,-1.29,-1.04,-1.90,-2.27,-1.62,-0.18,-1.47,0.28,950.00,1622.00,325.00,395.00,737.00,1140.00,2170.00,2559.00,,,,,,,,,,,,0,0,0,,-5772,15184,-660,-405,664,-394
28.117,27.89,-1.22,-2.30,0.10,-3.86,-1.03,-1.24,0.12,-1.00,0.27,910.00,1638.00,315.00,413.00,720.00,1114.00,2153.00,2512.00,,,,,,,,,,,,0,0,0,,-5784,15176,-636,-336,1088,-460
28.179,27.95,-1.19,-1.81,0.20,-2.98,-0.67,-0.62,-0.49,-0.45,-0.20,897.00,1602.00,304.00,395.00,736.00,1105.00,2186.00,2489.00,,,,,,,,,,,,0,0,0,,-5696,15228,-904,-183,1356,-378
28.241,28.00,-1.19,-1.05,-0.54,-2.61,-1.21,-1.17,-0.18,-0.83,0.02,921.00,1586.00,311.00,395.00,731.00,1120.00,2175.00,2512.00,,,,,,,,,,,,0,0,0,,-5868,15148,-948,-131,1639,-315
28.282,28.06,-1.21,-1.79,-0.17,-2.91,-1.05,-1.47,0.22,-1.13,0.49,915.00,1617.00,310.00,398.00,719.00,1121.00,2133.00,2511.00,,,,,,,,,,,,0,0,0,,-5676,15096,-1060,-221,1460,-465
28.345,28.11,-1.19,-2.22,0.48,-3.61,-0.03,-0.88,-0.18,-0.50,0.03,890.00,1616.00,297.00,398.00,727.00,1107.00,2161.00,2479.00,,,,,,,,,,,,0,0,0,,-5724,15140,-1200,-237,1239,-304
28.49,28.17,-1.18,-1.08,-0.59,-2.23,-0.92,-0.92,-0.40,-0.76,-0.03,924.00,1590.00,304.00,386.00,736.00,1115.00,2179.00,2509.00,,,,,,,,,,,,0,0,0,,-5708,15220,-1300,-98,986,-265
28.511,28.22,-1.19,-1.51,-0.59,-2.71,-1.36,-1.55,-0.06,-1.24,0.21,931.00,1617.00,314.00,398.00,731.00,1133.00,2170.00,2541.00,,,,,,,,,,,,0,0,0,,-5708,15076,-1148,-34,878,-227
28.531,28.28,-1.20,-2.53,-0.05,-4.04,-0.49,-1.35,-0.12,-1.11,0.21,921.00,1659.00,307.00,410.00,731.00,1126.00,2164.00,2527.00,,,,,,,,,,,,0,0,0,,-5812,15060,-1276,64,718,-95
28.552,28.33,-1.18,-2.12,-0.06,-3.15,-0.61,-0.84,-0.75,-0.67,-0.32,915.00,1633.00,304.00,397.00,749.00,1122.00,2209.00,2519.00,,,,,,,,,,,,0,0,0,,-5708,15184,-1524,59,411,-131
28.613,28.39,-1.21,-1.02,-0.99,-1.35,-2.22,-1.67,0.09,-1.17,0.25,943.00,1603.00,321.00,386.00,727.00,1134.00,2162.00,2531.00,,,,,,,,,,,,0,0,0,,-5872,15152,-1264,-125,140,-119
28.676,28.44,-1.31,-2.08,0.11,-3.75,-0.29,-3.22,3.13,-0.86,0.31,906.00,1623.00,302.00,403.00,634.00,1111.00,2143.00,2496.00,,,,,,,,,,,,0,0,0,,-5788,15160,-1144,-91,83,-114
28.738,28.50,-1.28,-1.65,-0.06,-2.02,-1.23,-0.77,-0.24,-0.30,-0.09,907.00,1603.00,308.00,386.00,728.00,1104.00,2167.00,2467.00,,,,,,,,,,,,0,0,0,,-5712,15188,-1252,54,144,-72
28.779,28.55,-1.27,-1.10,-0.44,-1.46,-1.18,-1.13,-0.15,-0.89,0.15,917.00,1585.00,304.00,377.00,729.00,1117.00,2163.00,2510.00,,,,,,,,,,,,0,0,0,,-5788,15304,-1304,51,257,-196
28.841,28.61,-1.29,-1.75,-0.19,-2.65,-0.78,-1.50,0.23,-1.11,0.44,915.00,1615.00,304.00,391.00,719.00,1122.00,2138.00,2512.00,,,,,,,,,,,,0,0,0,,-5804,15044,-1308,12,193,-213
28.903,28.66,-1.26,-2.26,0.50,-3.85,0.06,-0.80,-0.26,-0.65,0.04,890.00,1618.00,297.00,401.00,729.00,1106.00,2166.00,2493.00,,,,,,,,,,,,0,0,0,,-5868,15228,-1268,-5,269,-242
28.964,28.72,-1.25,-2.07,-0.22,-1.99,-0.88,-1.08,-0.31,-0.73,-0.09,922.00,1637.00,302.00,382.00,735.00,1120.00,2185.00,2510.00,,,,,,,,,,,,0,0,0,,-5772,15168,-1456,32,316,-189
29.005,28.77,-1.28,-1.54,-0.74,-1.23,-2.21,-1.74,-0.04,-1.45,0.28,939.00,1625.00,320.00,384.00,733.00,1141.00,2170.00,2557.00,,,,,,,,,,,,0,0,0,,-5840,15084,-1468,33,154,-137
29.045,28.83,-1.29,-2.70,0.09,-3.88,-0.37,-1.59,0.01,-1.23,0.16,917.00,1664.00,304.00,406.00,729.00,1133.00,2175.00,2543.00,,,,,,,,,,,,0,0,0,,-5884,15136,-1420,-31,157,-136
29.15,28.88,-1.28,-2.45,0.07,-2.82,-0.72,-1.05,-0.70,-0.93,-0.23,914.00,1649.00,304.00,393.00,750.00,1130.00,2209.00,2539.00,,,,,,,,,,,,0,0,0,,-5716,15184,-1088,-185,289,-183
29.17,28.94,-1.31,-1.65,-1.09,-0.99,-2.46,-1.96,-0.07,-1.69,0.17,959.00,1648.00,323.00,383.00,737.00,1152.00,2192.00,2589.00,,,,,,,,,,,,0,0,0,,-5824,15272,-1300,-284,584,-335
29.211,28.99,-1.33,-2.15,-0.33,-2.82,-0.72,-1.55,0.15,-1.24,0.29,929.00,1647.00,304.00,393.00,723.00,1127.00,2160.00,2535.00,,,,,,,,,,,,0,0,0,,-5852,15128,-1388,-276,628,-573
29.274,29.05,-1.31,-2.00,0.37,-3.25,0.10,-0.97,-0.25,-0.73,-0.01,892.00,1607.00,293.00,391.00,731.00,1113.00,2175.00,2504.00,,,,,,,,,,,,0,0,0,,-5972,15000,-1332,-283,606,-440
29.336,29.10,-1.30,-1.11,-0.34,-1.38,-0.90,-1.07,-0.17,-0.77,0.02,912.00,1581.00,299.00,373.00,729.00,1115.00,2173.00,2506.00,,,,,,,,,,,,0,0,0,,-5928,15080,-1208,15,620,-252
29.378,29.16,-1.30,-1.49,-0.25,-2.06,-0.98,-1.34,0.10,-1.07,0.35,914.00,1601.00,304.00,384.00,722.00,1119.00,2146.00,2514.00,,,,,,,,,,,,0,0,0,,-5940,15144,-1228,34,900,-395
29.44,29.21,-1.27,-2.11,0.32,-2.99,0.02,-0.65,-0.96,-0.87,0.16,896.00,1616.00,293.00,388.00,755.00,1120.00,2161.00,2507.00,,,,,,,,,,,,0,0,0,,-5972,15156,-1288,42,1163,-586
29.523,29.27,-1.24,-1.59,-0.20,-2.35,-0.45,-0.69,-0.70,-0.57,-0.22,913.00,1605.00,297.00,383.00,745.00,1114.00,2193.00,2502.00,,,,,,,,,,,,0,0,0,,-6028,15056,-1564,-179,1278,-741
29.544,29.32,-1.27,-1.19,-0.83,-0.77,-1.89,-1.85,0.22,-1.36,0.33,938.00,1607.00,312.00,374.00,724.00,1138.00,2160.00,2544.00,,,,,,,,,,,,0,0,0,,-5976,14876,-1588,-197,1001,-546
29.606,29.38,-1.28,-2.47,0.12,-3.14,-0.43,-1.56,0.23,-1.05,0.24,912.00,1648.00,301.00,395.00,720.00,1125.00,2158.00,2519.00,,,,,,,,,,,,0,0,0,,-6060,14968,-1680,-79,1134,-509
29.648,29.43,-1.27,-2.16,0.09,-2.48,0.03,-1.01,-0.59,-0.63,-0.19,908.00,1629.00,290.00,380.00,745.00,1125.00,2193.00,2507.00,,,,,,,,,,,,0,0,0,,-6144,14848,-1820,62,704,-411
29.71,29.49,-1.28,-1.79,-0.29,-1.19,-1.27,-1.53,-0.19,-1.22,0.10,921.00,1622.00,304.00,374.00,736.00,1136.00,2182.00,2546.00,,,,,,,,,,,,0,0,0,,-6092,14824,-1928,126,199,40
29.772,29.54,-1.30,-2.23,-0.11,-2.08,-0.85,-1.72,0.25,-1.24,0.37,919.00,1642.00,302.00,383.00,721.00,1131.00,2151.00,2530.00,,,,,,,,,,,,0,0,0,,-6012,15008,-1672,120,-133,-101
29.833,29.60,-1.29,-2.22,0.48,-2.27,0.22,-1.04,-0.28,-0.59,0.05,890.00,1616.00,286.00,375.00,733.00,1117.00,2163.00,2487.00,,,,,,,,,,,,0,0,0,,-6236,15036,-1820,-34,-149,-239
29.895,29.65,-1.28,-1.16,-0.22,-0.61,-1.22,-1.13,-0.35,-0.71,-0.01,907.00,1579.00,300.00,365.00,737.00,1123.00,2175.00,2503.00,,,,,,,,,,,,0,0,0,,-6144,14860,-1556,-17,-158,-136
29.958,29.71,-1.30,-1.55,-0.25,-0.84,-1.39,-1.57,-0.12,-1.29,0.30,915.00,1605.00,304.00,370.00,734.00,1136.00,2161.00,2539.00,,,,,,,,,,,,0,0,0,,-6096,14932,-1692,85,36,4
29.979,29.76,-1.32,-2.26,0.13,-2.70,-0.70,-1.68,0.04,-1.02,0.22,908.00,1634.00,303.00,391.00,729.00,1136.00,2160.00,2518.00,,,,,,,,,,,,0,0,0,,-5992,14968,-1660,63,10,-209
30.041,29.82,-1.31,-1.86,-0.07,-2.34,-0.26,-1.20,-0.57,-0.72,-0.16,911.00,1617.00,294.00,381.00,747.00,1133.00,2192.00,2513.00,,,,,,,,,,,,1,1,0,,-6120,14912,-1688,-90,50,-89
30.103,29.87,-1.36,-1.29,-0.92,-0.35,-1.91,-2.27,0.26,-1.46,0.26,944.00,1617.00,310.00,368.00,728.00,1156.00,2172.00,2559.00,,,,,,,,,,,,1,1,0,,-6084,14956,-1556,-86,114,-120
30.165,29.93,-1.39,-2.63,0.11,-2.75,-0.44,-1.95,0.21,-1.31,0.31,915.00,1659.00,299.00,389.00,726.00,1143.00,2161.00,2541.00,,,,,,,,,,,,1,1,0,,-6244,14996,-1732,-55,223,-140
30.249,29.98,-1.40,-2.62,0.27,-2.74,0.12,-1.66,-0.22,-1.12,0.09,907.00,1651.00,290.00,383.00,739.00,1143.00,2179.00,2537.00,,,,,,,,,,,,1,1,0,,-6168,14880,-1672,-26,231,-95
30.27,30.04,-1.44,-1.98,-0.35,-1.38,-0.90,-2.12,-0.07,-1.33,0.08,927.00,1637.00,299.00,373.00,739.00,1159.00,2189.00,2559.00,,,,,,,,,,,,1,1,0,,-6156,15060,-1640,-112,238,-151
30.332,30.09,-1.49,-2.46,-0.38,-2.55,-0.26,-2.46,0.15,-2.00,0.49,937.00,1670.00,295.00,384.00,735.00,1168.00,2166.00,2598.00,,,,,,,,,,,,1,1,0,,-6132,15060,-1860,-152,127,-61
30.394,30.15,-1.53,-3.29,0.41,-3.02,0.15,-2.37,0.02,-1.59,0.18,911.00,1689.00,291.00,387.00,739.00,1168.00,2187.00,2578.00,,,,,,,,,,,,1,1,0,,-6072,15112,-1588,21,252,112
30.435,30.20,-1.55,-2.55,-0.06,-2.01,-0.57,-1.79,-0.33,-1.16,-0.05,922.00,1661.00,297.00,379.00,745.00,1152.00,2197.00,2550.00,,,,,,,,,,,,1,1,0,,-6116,15044,-1560,-130,179,-309
30.476,30.26,-1.59,-1.44,-0.67,-0.93,-1.36,-2.36,0.17,-1.15,-0.20,934.00,1616.00,304.00,371.00,733.00,1163.00,2214.00,2559.00,,,,,,,,,,,,1,1,0,,-6012,14920,-1656,-156,153,-138
30.539,30.31,-1.62,-2.43,0.12,-2.86,-0.46,-2.20,0.19,-1.37,0.42,911.00,1645.00,300.00,391.00,730.00,1155.00,2150.00,2539.00,,,,,,,,,,,,1,1,0,,-6192,15040,-1552,-47,91,-9
30.621,30.37,-1.62,-2.20,0.29,-2.90,0.56,-1.76,-0.34,-0.89,-0.11,899.00,1623.00,284.00,381.00,745.00,1151.00,2193.00,2527.00,,,,,,,,,,,,1,1,0,,-6000,15052,-1740,22,224,-7
30.643,30.42,-1.66,-1.48,-0.66,1.76,-5.13,-2.37,0.12,-1.41,0.24,934.00,1618.00,355.00,369.00,735.00,1165.00,2173.00,2556.00,,,,,,,,,,,,1,1,0,,-6076,15024,-1760,-74,172,-145
30.706,30.48,-1.70,-2.29,0.06,-2.00,-0.38,-2.45,0.19,-1.41,0.41,912.00,1639.00,294.00,377.00,733.00,1166.00,2153.00,2544.00,,,,,,,,,,,,1,1,0,,-5976,14860,-1764,-170,145,-94
30.767,30.53,-1.72,-2.73,0.63,-2.85,0.29,-2.08,-0.03,-1.00,0.10,891.00,1642.00,288.00,383.00,737.00,1156.00,2173.00,2524.00,,,,,,,,,,,,1,1,0,,-5916,15060,-1764,-61,56,-43
30.809,30.59,-1.75,-1.74,-0.27,-1.55,-0.34,-2.25,-0.10,-1.39,0.18,919.00,1618.00,291.00,370.00,742.00,1166.00,2179.00,2558.00,,,,,,,,,,,,1,1,0,,-6204,15028,-1612,-42,222,-74
30.872,30.64,-1.80,-2.21,-0.31,-1.72,-0.78,-2.79,0.28,-1.84,0.49,929.00,1650.00,299.00,377.00,734.00,1179.00,2160.00,2582.00,,,,,,,,,,,,1,1,0,,-6056,15100,-1736,52,244,-162
30.933,30.70,-1.84,-2.59,0.16,-3.16,0.26,-2.59,-0.01,-1.35,0.10,912.00,1654.00,290.00,388.00,743.00,1179.00,2187.00,2559.00,,,,,,,,,,,,1,1,0,,-6076,14872,-1688,-56,238,-20
31.016,30.75,-1.85,-2.44,-0.17,-2.35,-0.45,-2.10,-0.44,-1.20,-0.12,926.00,1659.00,297.00,383.00,754.00,1170.00,2207.00,2559.00,,,,,,,,,,,,1,1,0,,-6060,14864,-1808,-243,68,-181
31.058,30.81,-1.90,-1.81,-0.60,-1.14,-1.35,-2.84,0.18,-1.32,0.21,937.00,1637.00,305.00,374.00,739.00,1185.00,2173.00,2549.00,,,,,,,,,,,,1,1,0,,-6080,14952,-1692,-395,58,-160
31.08,30.86,-1.93,-2.50,0.17,-3.64,0.30,-2.45,0.17,-1.35,0.32,910.00,1648.00,292.00,395.00,734.00,1167.00,2161.00,2544.00,,,,,,,,,,,,1,1,0,,-6116,15036,-1520,-133,125,53
31.142,30.92,-1.94,-2.30,0.35,-2.82,0.34,-2.13,-0.33,-1.11,-0.03,898.00,1627.00,287.00,382.00,750.00,1168.00,2192.00,2543.00,,,,,,,,,,,,1,1,0,,-6096,15144,-1436,-9,407,30
31.204,30.97,-1.97,-2.01,-0.18,-1.55,-0.84,-2.65,0.09,-1.43,0.22,919.00,1631.00,299.00,375.00,740.00,1179.00,2176.00,2559.00,,,,,,,,,,,,1,1,0,,-5888,14844,-1824,22,259,-169
31.265,31.03,-2.02,-2.49,0.12,-2.85,0.29,-2.96,0.44,-1.57,0.43,912.00,1649.00,288.00,383.00,730.00,1182.00,2157.00,2559.00,,,,,,,,,,,,1,1,0,,-5888,15088,-1792,-48,45,-23
31.368,31.08,-2.05,-2.79,0.57,-2.91,0.37,-2.58,0.02,-1.14,0.07,895.00,1649.00,287.00,383.00,742.00,1178.00,2182.00,2540.00,,,,,,,,,,,,1,1,0,,-5884,15056,-1640,47,85,-134
31.389,31.14,-2.08,-1.98,-0.15,-1.79,-0.39,-2.57,-0.16,-1.31,0.04,917.00,1628.00,293.00,374.00,749.00,1183.00,2192.00,2559.00,,,,,,,,,,,,1,1,0,,-5960,15040,-1660,52,373,-259
31.432,31.19,-2.12,-2.45,-0.27,-2.11,-0.90,-3.02,-0.06,-1.97,0.37,931.00,1664.00,303.00,384.00,751.00,1201.00,2179.00,2603.00,,,,,,,,,,,,1,1,0,,-5868,14908,-1872,-111,166,-336
31.472,31.25,-2.18,-3.14,0.06,-3.69,-0.37,-3.17,0.16,-1.93,0.30,926.00,1695.00,303.00,403.00,744.00,1201.00,2186.00,2604.00,,,,,,,,,,,,1,1,0,,-6020,14908,-1656,-137,-97,-307
31.535,31.30,-2.20,-2.79,-0.18,-3.58,-0.16,-2.69,-0.51,-1.59,-0.12,932.00,1682.00,299.00,399.00,765.00,1200.00,2222.00,2598.00,,,,,,,,,,,,1,1,0,,-6020,15208,-1740,-55,178,-441
31.617,31.36,-2.25,-1.89,-0.73,-1.77,-1.49,-3.08,0.06,-1.83,0.34,945.00,1648.00,311.00,385.00,747.00,1200.00,2177.00,2591.00,,,,,,,,,,,,1,1,0,,-6000,15080,-1840,134,-32,-670
31.638,31.41,-2.28,-2.59,0.30,-3.88,0.19,-2.94,0.28,-1.39,0.39,905.00,1648.00,295.00,400.00,736.00,1186.00,2155.00,2544.00,,,,,,,,,,,,1,1,0,,-6240,15136,-1588,909,-234,-602
31.721,31.47,-2.27,-2.26,0.33,-3.47,0.05,-2.14,-0.36,-0.40,-0.79,898.00,1625.00,295.00,395.00,751.00,1169.00,2255.00,2524.00,,,,,,,,,,,,1,1,0,,-5964,14668,-1568,1775,-246,-214
31.742,31.52,-2.29,-1.48,-0.22,-1.89,-1.04,-2.60,-0.18,-1.36,0.11,912.00,1599.00,304.00,382.00,750.00,1185.00,2186.00,2559.00,,,,,,,,,,,,1,1,0,,-6296,14924,-1292,1547,-144,293
31.805,31.58,-2.31,-1.87,-0.11,-2.22,-0.74,-2.73,0.14,-1.54,0.44,913.00,1619.00,301.00,384.00,739.00,1181.00,2154.00,2555.00,,,,,,,,,,,,1,1,0,,-5776,15112,-2208,1529,647,-240
31.847,31.63,-2.31,-2.46,0.80,-3.42,0.73,-2.29,-0.13,-1.00,0.06,879.00,1618.00,284.00,387.00,744.00,1169.00,2178.00,2527.00,,,,,,,,,,,,1,1,0,,-6104,14428,-2160,817,1100,-48
31.91,31.69,-2.32,-1.84,-0.07,-2.40,-0.18,-2.43,-0.33,-1.14,-0.01,911.00,1616.00,293.00,381.00,754.00,1182.00,2192.00,2546.00,,,,,,,,,,,,1,1,0,,-6156,14572,-3280,603,1158,-144
31.972,31.74,-2.36,-1.69,-0.47,-1.11,-1.30,-3.08,0.06,-1.87,0.31,928.00,1623.00,304.00,373.00,747.00,1200.00,2182.00,2597.00,,,,,,,,,,,,1,1,0,,-6072,14176,-3148,-166,816,-4
32.033,31.80,-2.39,-2.76,0.31,-3.47,0.24,-3.10,0.11,-1.48,0.29,907.00,1658.00,292.00,393.00,745.00,1199.00,2169.00,2559.00,,,,,,,,,,,,1,1,0,,-6020,14948,-3020,-1004,326,172
32.095,31.85,-2.40,-2.50,0.37,-2.47,0.42,-2.51,-0.40,-1.00,-0.20,900.00,1639.00,284.00,376.00,758.00,1188.00,2208.00,2544.00,,,,,,,,,,,,1,1,0,,-6092,14764,-2892,-890,147,197
32.157,31.91,-2.42,-0.98,-0.64,-0.66,-1.45,-2.91,0.03,-1.40,0.25,925.00,1586.00,304.00,368.00,746.00,1193.00,2171.00,2554.00,,,,,,,,,,,,1,1,0,,-6200,15080,-2868,-1079,-45,183
32.198,31.96,-2.45,-1.66,0.17,-2.65,0.09,-2.91,0.40,-1.25,0.42,896.00,1594.00,290.00,382.00,731.00,1181.00,2145.00,2527.00,,,,,,,,,,,,1,1,0,,-5852,14936,-2752,-1065,-302,154
32.258,32.02,-2.44,-2.21,0.84,-2.29,0.75,-2.34,-0.21,-0.77,0.07,873.00,1600.00,278.00,370.00,748.00,1174.00,2167.00,2503.00,,,,,,,,,,,,1,1,0,,-6052,15052,-2236,-1064,-333,72
32.319,32.07,-2.46,-1.53,0.08,-1.44,0.01,-2.78,-0.04,-1.17,0.13,898.00,1589.00,285.00,365.00,747.00,1189.00,2176.00,2539.00,,,,,,,,,,,,1,1,0,,-5948,15244,-1972,-1153,-378,-121
32.381,32.13,-2.50,-1.78,0.09,-2.15,-0.46,-3.34,0.60,-1.50,0.50,902.00,1605.00,296.00,380.00,729.00,1195.00,2146.00,2547.00,,,,,,,,,,,,1,1,0,,-5840,15016,-1888,-828,-314,-217
32.483,32.18,-2.52,-2.39,0.71,-2.70,0.56,-2.88,0.04,-1.19,0.21,882.00,1617.00,283.00,378.00,745.00,1191.00,2167.00,2535.00,,,,,,,,,,,,1,1,0,,-5840,14920,-1548,-717,-387,75
32.504,32.24,-2.52,-2.03,0.36,-2.62,1.13,-2.40,-0.54,-1.00,-0.15,893.00,1609.00,274.00,371.00,762.00,1187.00,2203.00,2541.00,,,,,,,,,,,,1,1,0,,-5796,15032,-1432,-683,-223,50
32.566,32.29,-2.56,-1.47,-0.56,-0.75,-1.42,-3.40,0.19,-1.89,0.47,929.00,1613.00,304.00,369.00,746.00,1211.00,2164.00,2588.00,,,,,,,,,,,,1,1,1,,-5848,15160,-1276,-562,22,-123
32.586,32.35,-2.59,-2.69,0.41,-3.81,0.74,-3.24,0.39,-1.59,0.46,901.00,1649.00,286.00,393.00,736.00,1197.00,2154.00,2559.00,,,,,,,,,,,,1,1,1,,-5872,15100,-1444,-538,-14,-132
32.628,32.40,-2.60,-2.66,0.71,-2.53,1.10,-2.70,-0.22,-1.28,0.01,886.00,1634.00,274.00,370.00,753.00,1191.00,2195.00,2558.00,,,,,,,,,,,,1,1,1,,-5748,15076,-1244,-452,-8,-24
32.69,32.46,-2.62,-1.86,-0.03,-1.25,0.14,-2.96,0.29,-1.25,0.18,909.00,1615.00,282.00,361.00,736.00,1187.00,2174.00,2544.00,,,,,,,,,,,,1,1,1,,-5960,15160,-1500,-265,-123,-293
32.731,32.51,-2.64,-1.60,0.21,-1.92,0.10,-2.99,0.58,-1.26,0.49,893.00,1588.00,286.00,371.00,725.00,1179.00,2138.00,2524.00,,,,,,,,,,,,1,1,1,,-5840,15216,-1268,-27,120,-223
32.836,32.57,-2.63,-2.06,1.11,-3.39,1.86,-2.55,0.28,-0.73,0.14,858.00,1579.00,267.00,375.00,731.00,1168.00,2157.00,2494.00,,,,,,,,,,,,1,1,1,,-5924,15168,-1272,186,180,-212
32.857,32.62,-2.64,-0.72,0.19,-1.96,0.77,-2.72,0.09,-0.92,0.16,880.00,1535.00,276.00,365.00,741.00,1182.00,2163.00,2512.00,,,,,,,,,,,,1,1,1,,-5844,14944,-1760,305,297,-176
32.898,32.68,-2.67,-1.21,0.15,-1.85,0.40,-3.28,0.47,-1.28,0.38,890.00,1567.00,281.00,367.00,733.00,1196.00,2151.00,2533.00,,,,,,,,,,,,1,1,1,,-5876,15208,-1608,421,342,-248
32.959,32.73,-2.67,-2.06,0.64,-2.88,0.42,-2.69,0.20,-1.00,0.29,880.00,1599.00,286.00,382.00,736.00,1177.00,2151.00,2511.00,,,,,,,,,,,,1,1,1,,-5864,15076,-1812,380,338,-350
33.02,32.79,-2.66,-1.43,0.14,-2.65,1.27,-2.59,-0.23,-0.69,-0.15,894.00,1581.00,272.00,370.00,752.00,1186.00,2190.00,2510.00,,,,,,,,,,,,1,1,1,,-6232,15336,-1740,1087,913,-408
33.063,32.84,-2.70,-1.15,-0.35,-1.28,-0.43,-3.30,0.38,-1.45,0.36,913.00,1584.00,291.00,367.00,737.00,1200.00,2160.00,2551.00,,,,,,,,,,,,1,1,1,,-6324,14700,-1740,2101,1340,-548
33.125,32.90,-2.72,-2.29,0.61,-2.79,0.59,-3.13,0.48,-1.30,0.44,885.00,1615.00,283.00,379.00,731.00,1189.00,2145.00,2531.00,,,,,,,,,,,,1,1,1,,-6440,14472,-2100,-376,835,-107
33.188,32.95,-2.74,-2.05,0.76,-2.08,1.36,-3.08,0.16,-0.91,0.07,874.00,1593.00,268.00,361.00,743.00,1197.00,2173.00,2517.00,,,,,,,,,,,,1,1,1,,-6112,14732,-2080,44,742,-216
33.25,33.01,-2.74,-0.72,0.19,0.51,0.21,-2.83,0.22,-1.05,0.22,880.00,1535.00,272.00,336.00,737.00,1183.00,2161.00,2521.00,,,,,,,,,,,,1,1,1,,-6204,14532,-2512,-1070,124,89
33.312,33.06,-2.71,-1.33,0.58,0.34,0.68,-2.09,-0.81,-1.21,0.56,871.00,1556.00,266.00,334.00,769.00,1181.00,2128.00,2514.00,,,,,,,,,,,,1,1,1,,-5828,14884,-2532,-1123,53,371
33.352,33.12,-2.71,-1.50,1.33,-1.53,2.23,-2.75,0.55,-0.71,0.22,839.00,1535.00,253.00,345.00,723.00,1169.00,2147.00,2487.00,,,,,,,,,,,,1,1,1,,-5528,14868,-2292,-768,19,542
33.414,33.17,-2.72,-1.08,0.71,-0.52,1.18,-2.88,0.14,-0.93,0.13,861.00,1535.00,263.00,341.00,741.00,1188.00,2167.00,2515.00,,,,,,,,,,,,1,1,1,,-5848,15668,-2112,-1063,48,339
33.477,33.23,-2.77,-1.03,0.23,0.14,-0.33,-3.71,0.64,-1.44,0.37,883.00,1552.00,282.00,346.00,732.00,1211.00,2158.00,2549.00,,,,,,,,,,,,1,1,1,,-5580,15588,-1580,-760,-111,-30
33.58,33.28,-2.80,-1.92,0.78,-1.10,0.96,-3.35,0.42,-1.17,0.28,871.00,1584.00,269.00,351.00,736.00,1201.00,2159.00,2529.00,,,,,,,,,,,,1,1,1,,-5636,15468,-1512,-599,-93,81
33.601,33.34,-2.80,-1.74,0.87,-1.01,0.93,-2.81,-0.28,-0.80,-0.13,864.00,1569.00,269.00,350.00,757.00,1198.00,2192.00,2519.00,,,,,,,,,,,,1,1,1,,-5644,15332,-1612,-129,-172,55
33.622,33.39,-2.86,-0.69,-0.44,0.21,-0.55,-3.95,1.01,-1.55,0.39,910.00,1559.00,285.00,347.00,721.00,1211.00,2160.00,2559.00,,,,,,,,,,,,1,1,1,,-5556,15072,-1408,127,-18,-40
33.683,33.45,-2.90,-2.08,0.65,-1.20,0.79,-3.70,0.82,-1.63,0.57,880.00,1600.00,272.00,354.00,725.00,1205.00,2143.00,2555.00,,,,,,,,,,,,1,1,1,,-5720,14968,-1432,-251,81,-370
33.766,33.50,-2.91,-2.47,1.31,-3.14,2.20,-3.12,0.12,-1.20,0.16,855.00,1596.00,261.00,368.00,745.00,1200.00,2173.00,2539.00,,,,,,,,,,,,1,1,1,,-5684,14844,-1272,-788,-134,-346
33.787,33.56,-2.94,-1.70,0.45,-0.85,0.81,-3.61,0.44,-1.76,0.33,883.00,1584.00,270.00,349.00,739.00,1213.00,2176.00,2585.00,,,,,,,,,,,,1,1,1,,-5552,15008,-1092,-1170,-289,-103
33.869,33.61,-3.00,-2.14,0.48,-1.47,0.88,-4.00,0.92,-1.92,0.62,889.00,1611.00,272.00,357.00,725.00,1216.00,2148.00,2581.00,,,,,,,,,,,,1,1,1,,-5772,15460,-1032,-705,-159,-225
33.931,33.67,-3.02,-1.88,0.94,-2.87,2.11,-3.38,0.66,-1.06,0.33,863.00,1575.00,261.00,365.00,727.00,1195.00,2149.00,2515.00,,,,,,,,,,,,1,1,1,,-5692,15184,-792,-194,-268,-236
33.952,33.72,-3.00,-0.93,0.49,-1.87,1.77,-2.69,-0.05,-0.90,0.06,869.00,1535.00,261.00,354.00,746.00,1185.00,2174.00,2517.00,,,,,,,,,,,,1,1,1,,-5704,15412,-804,158,104,-95
34.014,33.78,-3.02,-0.36,-0.23,-0.33,-0.17,-3.43,0.58,-1.39,0.47,894.00,1530.00,282.00,351.00,731.00,1200.00,2145.00,2538.00,,,,,,,,,,,,1,1,1,,-5788,15108,-1360,356,367,-328
34.055,33.83,-3.04,-1.90,0.92,-2.83,1.75,-3.30,0.66,-1.23,0.47,864.00,1577.00,266.00,368.00,726.00,1191.00,2138.00,2521.00,,,,,,,,,,,,1,1,1,,-5768,15188,-1612,437,473,-366
34.117,33.89,-3.01,-1.13,0.79,-1.43,1.56,-2.58,0.02,-0.73,0.02,858.00,1535.00,262.00,350.00,742.00,1178.00,2171.00,2502.00,,,,,,,,,,,,1,1,1,,-5740,14988,-1664,384,227,-487
34.18,33.94,-3.02,-0.69,0.41,0.10,0.49,-3.08,0.56,-1.04,0.24,869.00,1524.00,270.00,339.00,727.00,1184.00,2158.00,2518.00,,,,,,,,,,,,1,1,1,,-5864,14860,-1780,92,-101,-329
34.242,34.00,-3.03,-1.46,0.63,-1.04,0.87,-3.26,0.67,-1.36,0.57,871.00,1562.00,270.00,351.00,725.00,1189.00,2132.00,2528.00,,,,,,,,,,,,1,1,1,,-6092,15120,-1444,15,-98,-267
34.304,34.05,-3.03,-2.17,1.36,-3.27,2.60,-2.96,0.42,-0.94,0.19,848.00,1575.00,256.00,366.00,731.00,1183.00,2160.00,2512.00,,,,,,,,,,,,1,1,1,,-6028,15100,-1452,-161,54,-310
34.345,34.11,-3.02,-1.13,0.32,-0.85,0.81,-2.97,0.27,-1.25,0.22,880.00,1554.00,270.00,349.00,737.00,1188.00,2169.00,2541.00,,,,,,,,,,,,1,1,1,,-5816,14820,-1752,-12,-12,-184
34.409,34.16,-3.03,-0.61,-1.14,-1.60,0.85,-3.23,0.28,-1.55,0.39,944.00,1584.00,273.00,359.00,740.00,1200.00,2160.00,2559.00,,,,,,,,,,,,1,1,1,,-5944,15300,-1688,-9,-3,-35
34.45,34.22,-3.04,-2.01,0.75,-2.65,1.27,-3.10,0.62,-1.00,0.23,874.00,1591.00,272.00,370.00,725.00,1183.00,2158.00,2515.00,,,,,,,,,,,,1,1,1,,-5880,15156,-1188,-148,21,-290
34.511,34.27,-3.00,-0.90,0.54,-1.28,1.23,-2.28,-0.11,-0.69,-0.01,866.00,1531.00,266.00,351.00,743.00,1168.00,2173.00,2500.00,,,,,,,,,,,,1,1,1,,-5864,15060,-1384,-125,134,-275
34.573,34.33,-3.00,-0.25,-0.26,0.52,-0.46,-3.02,0.57,-1.32,0.44,894.00,1525.00,282.00,342.00,726.00,1181.00,2145.00,2532.00,,,,,,,,,,,,1,1,1,,-5892,14884,-1400,25,80,-180
34.655,34.38,-2.99,-1.83,0.83,-1.38,0.85,-2.71,0.46,-1.23,0.58,867.00,1576.00,272.00,356.00,726.00,1170.00,2126.00,2514.00,,,,,,,,,,,,1,1,1,,-6012,15208,-1572,-27,65,-302
34.675,34.44,-2.96,-1.67,1.13,-1.87,1.77,-2.55,0.41,-0.67,0.08,851.00,1554.00,261.00,354.00,726.00,1164.00,2162.00,2492.00,,,,,,,,,,,,1,1,1,,-5888,14972,-1284,-156,150,-318
34.717,34.49,-2.95,-0.58,0.25,0.23,0.51,-2.64,0.41,-0.99,0.25,875.00,1524.00,269.00,337.00,727.00,1168.00,2155.00,2513.00,,,,,,,,,,,,1,1,1,,-5876,14960,-1452,-110,-73,-217
34.779,34.55,-2.94,-1.21,0.35,-0.92,0.69,-2.79,0.64,-1.37,0.56,880.00,1558.00,272.00,351.00,720.00,1168.00,2134.00,2530.00,,,,,,,,,,,,1,1,1,,-5964,15168,-1236,93,71,-320
34.821,34.60,-2.92,-1.93,1.06,-2.02,1.90,-2.50,0.21,-1.00,0.26,858.00,1573.00,260.00,355.00,733.00,1168.00,2154.00,2513.00,,,,,,,,,,,,1,1,1,,-5964,14972,-1372,107,138,-386
34.884,34.66,-2.89,-1.54,0.46,-1.23,0.93,-2.39,0.05,-1.03,0.04,880.00,1574.00,270.00,353.00,738.00,1168.00,2181.00,2531.00,,,,,,,,,,,,1,1,1,,-6040,14968,-1608,173,81,-184
34.946,34.71,-2.90,-1.40,0.02,-0.09,-0.32,-3.16,0.48,-1.86,0.45,899.00,1584.00,283.00,349.00,731.00,1190.00,2165.00,2586.00,,,,,,,,,,,,1,1,1,,-5940,14988,-1424,77,15,-172
35.028,34.77,-2.91,-2.42,0.61,-2.94,1.51,-3.03,0.52,-1.55,0.39,887.00,1623.00,270.00,372.00,728.00,1183.00,2160.00,2559.00,,,,,,,,,,,,1,1,1,,-6012,14904,-1492,2,217,-187
35.049,34.82,-2.86,-1.68,0.59,-1.65,1.77,-1.97,-0.11,-0.67,-0.14,876.00,1577.00,260.00,351.00,739.00,1154.00,2188.00,2507.00,,,,,,,,,,,,1,1,1,,-5984,14932,-1476,-82,23,-414
35.112,34.88,-2.84,-0.23,-0.10,0.92,-0.40,-2.36,0.42,-0.91,0.27,886.00,1517.00,279.00,336.00,723.00,1155.00,2149.00,2503.00,,,,,,,,,,,,1,1,1,,-6084,15076,-1428,-171,-79,-262
35.195,34.93,-2.81,-0.66,0.44,-0.16,0.44,-2.31,0.74,-1.07,0.59,867.00,1521.00,272.00,343.00,710.00,1143.00,2118.00,2497.00,,,,,,,,,,,,1,1,1,,-6028,14952,-1348,52,-10,-104
35.215,34.99,-2.75,-1.44,1.24,-0.70,1.67,-1.59,-0.07,-0.39,0.08,842.00,1535.00,257.00,339.00,732.00,1135.00,2151.00,2465.00,,,,,,,,,,,,1,1,1,,-6124,14988,-1392,132,156,-109
35.278,35.04,-2.71,-0.39,0.31,0.82,0.31,-1.89,0.31,-0.72,0.13,869.00,1510.00,269.00,331.00,721.00,1137.00,2158.00,2494.00,,,,,,,,,,,,1,1,1,,-6088,15016,-1428,40,160,-293
35.318,35.10,-2.68,-0.51,0.10,0.41,0.24,-2.08,0.53,-1.11,0.52,881.00,1526.00,272.00,337.00,715.00,1139.00,2128.00,2506.00,,,,,,,,,,,,1,1,1,,-6092,14908,-1520,-26,114,-179
35.401,35.15,-2.64,-1.40,0.74,-0.91,0.89,-1.87,0.49,-0.83,0.37,865.00,1554.00,269.00,349.00,714.00,1131.00,2135.00,2489.00,,,,,,,,,,,,1,1,1,,-6152,15024,-1600,13,0,-179
35.462,35.21,-2.59,-1.04,0.66,-0.10,1.11,-1.64,-0.03,-0.66,0.01,863.00,1535.00,262.00,336.00,731.00,1136.00,2170.00,2496.00,,,,,,,,,,,,1,1,1,,-6216,15024,-1676,221,-1,-246
35.483,35.26,-2.57,-0.45,-0.22,0.98,-0.48,-2.32,0.43,-1.42,0.47,895.00,1535.00,280.00,336.00,722.00,1153.00,2146.00,2541.00,,,,,,,,,,,,1,1,1,,-6168,15196,-1376,439,39,-179
35.545,35.32,-2.55,-2.00,0.60,-2.35,1.24,-2.13,0.47,-1.25,0.33,881.00,1597.00,271.00,366.00,718.00,1143.00,2156.00,2533.00,,,,,,,,,,,,1,1,1,,-6832,15384,1780,348,3885,-319
35.608,35.37,-2.49,-0.91,0.46,-1.28,1.86,-1.39,0.17,-0.34,-0.01,870.00,1535.00,257.00,345.00,720.00,1119.00,2160.00,2466.00,,,,,,,,,,,,1,1,1,,-6192,15988,-3228,-861,5506,-2509
35.648,35.43,-2.44,0.00,0.46,2.71,0.09,-1.38,0.43,-0.55,0.33,856.00,1481.00,263.00,309.00,710.00,1111.00,2128.00,2464.00,,,,,,,,,,,,1,1,1,,-5112,13916,-4492,-740,784,-1030
35.711,35.48,-2.40,-0.29,0.66,1.25,0.94,-1.61,0.90,-0.72,0.63,851.00,1490.00,258.00,320.00,695.00,1107.00,2101.00,2461.00,,,,,,,,,,,,1,1,1,,-5360,14508,-2824,1538,-1738,1519
35.771,35.54,-2.33,-1.00,1.36,-4.32,3.84,-1.17,0.36,-0.15,0.09,830.00,1504.00,244.00,369.00,710.00,1104.00,2141.00,2441.00,,,,,,,,,,,,1,1,1,,-6780,15312,-1596,1985,-909,1257
35.833,35.59,-2.27,0.29,0.38,2.21,0.83,-1.12,0.10,-0.38,0.05,855.00,1467.00,255.00,309.00,719.00,1109.00,2154.00,2466.00,,,,,,,,,,,,1,1,1,,-6184,14964,-1908,1114,-158,298
35.875,35.65,-2.25,-0.18,0.30,1.54,0.99,-1.79,0.69,-0.92,0.42,866.00,1498.00,256.00,316.00,705.00,1121.00,2133.00,2495.00,,,,,,,,,,,,1,1,1,,-5944,14732,-2584,-672,-139,-40
35.937,35.70,-2.21,-1.13,0.99,-1.34,2.39,-1.52,0.63,-0.56,0.26,849.00,1527.00,250.00,341.00,704.00,1111.00,2137.00,2470.00,,,,,,,,,,,,1,1,1,,-6060,15156,-2664,-91,-86,-348
35.999,35.76,-2.16,-0.90,0.89,0.62,1.29,-1.24,0.12,-0.37,-0.15,850.00,1517.00,256.00,325.00,720.00,1114.00,2177.00,2478.00,,,,,,,,,,,,1,1,1,,-6100,14892,-2352,141,83,-156
36.04,35.81,-2.16,-0.29,-0.10,2.15,-0.27,-2.10,0.69,-1.14,0.34,887.00,1521.00,271.00,319.00,709.00,1135.00,2150.00,2521.00,,,,,,,,,,,,1,1,1,,-6072,14988,-2636,-100,150,-160
36.144,35.87,-2.15,-1.35,0.63,2.66,-2.63,-2.01,0.69,-1.14,0.44,869.00,1555.00,305.00,333.00,708.00,1131.00,2139.00,2515.00,,,,,,,,,,,,1,1,1,,-6076,14872,-2208,-482,-51,-106
36.163,35.92,-2.13,-1.65,1.08,-1.06,2.74,-1.67,0.29,-0.85,0.12,853.00,1555.00,244.00,334.00,719.00,1128.00,2164.00,2507.00,,,,,,,,,,,,1,1,1,,-5972,15064,-2164,-719,-194,-178
36.204,35.98,-2.11,-0.76,0.24,0.86,1.29,-1.70,0.30,-1.01,0.19,878.00,1535.00,255.00,322.00,719.00,1129.00,2162.00,2518.00,,,,,,,,,,,,1,1,1,,-6172,15220,-2076,-543,-82,-445
36.266,36.03,-2.08,-0.63,0.50,0.72,1.26,-1.61,0.66,-0.96,0.56,864.00,1517.00,256.00,324.00,704.00,1114.00,2118.00,2489.00,,,,,,,,,,,,1,1,1,,-6048,14656,-1828,-360,-96,-395
36.329,36.09,-2.04,-0.94,1.30,-0.23,2.54,-1.22,0.42,-0.59,0.47,832.00,1503.00,243.00,325.00,708.00,1104.00,2114.00,2459.00,,,,,,,,,,,,1,1,1,,-6180,14764,-2056,-5,-220,-192
36.371,36.14,-1.97,-0.29,0.70,1.26,1.52,-0.68,-0.07,-0.19,-0.00,849.00,1488.00,250.00,315.00,720.00,1095.00,2153.00,2451.00,,,,,,,,,,,,1,1,1,,-6256,14684,-1780,293,-304,-172
36.433,36.20,-1.96,0.32,-0.16,3.24,-0.09,-1.69,0.95,-0.95,0.47,880.00,1487.00,263.00,304.00,694.00,1109.00,2128.00,2494.00,,,,,,,,,,,,1,1,1,,-6116,14792,-1624,-409,-468,-97
36.516,36.25,-1.93,-0.60,0.44,-0.89,2.84,-1.36,0.97,-0.47,0.41,866.00,1517.00,242.00,331.00,689.00,1094.00,2116.00,2451.00,,,,,,,,,,,,1,1,1,,-6480,15048,-1924,-467,-82,-231
36.537,36.31,-1.86,-0.33,1.03,1.88,2.29,-0.54,0.27,-0.01,-0.07,835.00,1478.00,237.00,301.00,705.00,1079.00,2154.00,2438.00,,,,,,,,,,,,1,1,1,,-5868,14644,-2184,269,368,110
36.578,36.36,-1.82,0.18,0.55,3.03,1.60,-1.13,0.76,-0.55,0.33,849.00,1467.00,241.00,293.00,694.00,1090.00,2128.00,2464.00,,,,,,,,,,,,1,1,1,,-6000,15008,-2200,101,115,378
36.641,36.42,-1.81,-0.34,0.81,0.67,2.86,-1.56,1.09,-0.87,0.58,845.00,1487.00,235.00,311.00,687.00,1099.00,2112.00,2479.00,,,,,,,,,,,,1,1,1,,-6248,15112,-1668,-772,-137,111
36.704,36.47,-1.78,-1.01,1.54,-0.75,3.89,-1.18,0.70,-0.48,0.20,822.00,1497.00,228.00,320.00,697.00,1094.00,2140.00,2465.00,,,,,,,,,,,,1,1,1,,-5832,15372,-1384,-415,106,-258
36.745,36.53,-1.76,0.04,0.55,1.25,2.12,-1.38,0.66,-0.51,0.13,851.00,1475.00,242.00,310.00,701.00,1104.00,2150.00,2473.00,,,,,,,,,,,,1,1,1,,-6036,15080,-1676,179,281,-513
36.807,36.58,-1.74,0.29,0.53,1.82,1.40,-1.39,0.85,-0.60,0.40,848.00,1461.00,249.00,309.00,694.00,1099.00,2123.00,2465.00,,,,,,,,,,,,1,1,1,,-5996,14720,-1928,519,143,-412
36.869,36.64,-1.71,-0.42,1.06,-0.23,2.77,-1.21,0.95,-0.27,0.32,835.00,1482.00,240.00,323.00,688.00,1088.00,2119.00,2438.00,,,,,,,,,,,,1,1,1,,-6084,14780,-1908,252,-111,-300
36.932,36.69,-1.66,0.18,0.85,1.44,2.21,-0.67,0.27,-0.07,-0.04,835.00,1455.00,240.00,307.00,707.00,1085.00,2153.00,2442.00,,,,,,,,,,,,1,1,1,,-6128,14908,-1728,-255,-129,-171
36.995,36.75,-1.66,0.72,-0.02,2.38,1.07,-1.63,0.93,-0.81,0.45,867.00,1458.00,251.00,305.00,694.00,1107.00,2125.00,2482.00,,,,,,,,,,,,1,1,1,,-6544,14800,-1852,157,100,-161
37.036,36.80,-1.65,-0.53,0.92,-0.23,2.77,-1.53,1.08,-0.65,0.52,843.00,1494.00,240.00,323.00,687.00,1098.00,2110.00,2461.00,,,,,,,,,,,,1,1,1,,-6440,15264,-1956,398,391,-115
37.099,36.86,-1.62,-0.73,1.54,0.60,2.96,-0.91,0.69,-0.30,0.22,818.00,1481.00,234.00,311.00,694.00,1083.00,2131.00,2447.00,,,,,,,,,,,,1,1,1,,-6028,14844,-2140,513,589,-323
37.161,36.91,-1.61,0.05,0.61,2.26,1.86,-1.40,0.70,-0.62,0.23,848.00,1472.00,241.00,300.00,700.00,1104.00,2143.00,2478.00,,,,,,,,,,,,1,1,1,,-5872,14760,-2260,613,556,-312
37.243,36.97,-1.61,-0.40,0.57,1.05,1.59,-1.75,1.10,-1.13,0.62,857.00,1500.00,250.00,317.00,689.00,1107.00,2117.00,2501.00,,,,,,,,,,,,1,1,1,,-6024,14552,-2500,156,460,-223
37.264,37.02,-1.59,-1.29,1.44,-0.57,3.27,-1.24,0.59,-0.65,0.18,831.00,1518.00,235.00,323.00,702.00,1100.00,2149.00,2483.00,,,,,,,,,,,,1,1,1,,-6172,14880,-2648,-52,319,-258
37.305,37.08,-1.59,-0.74,0.57,0.72,2.07,-1.52,0.39,-1.05,0.12,862.00,1520.00,245.00,317.00,713.00,1118.00,2173.00,2528.00,,,,,,,,,,,,1,1,1,,-6184,14788,-2412,77,63,-331
37.368,37.13,-1.57,-0.51,-0.01,0.98,1.10,-1.22,0.55,-1.55,0.39,886.00,1530.00,257.00,322.00,703.00,1100.00,2160.00,2559.00,,,,,,,,,,,,1,1,1,,-6396,15140,-2464,-50,171,-326
37.431,37.19,-1.57,-1.15,0.86,-0.17,2.00,-1.52,0.87,-0.75,0.32,855.00,1533.00,250.00,329.00,695.00,1104.00,2137.00,2484.00,,,,,,,,,,,,1,1,1,,-6256,14660,-2432,-362,-144,-189
37.493,37.24,-1.53,-0.29,0.86,2.27,2.08,-0.76,0.30,-0.19,-0.10,842.00,1482.00,238.00,298.00,707.00,1088.00,2165.00,2458.00,,,,,,,,,,,,1,1,1,,-6272,14756,-2216,-277,-317,42
37.534,37.30,-1.52,0.61,0.02,2.74,0.65,-1.34,0.83,-0.78,0.41,867.00,1463.00,255.00,304.00,694.00,1097.00,2128.00,2481.00,,,,,,,,,,,,1,1,1,,-6284,15024,-2056,-280,-211,21
37.617,37.35,-1.51,-0.26,0.72,0.94,2.23,-1.36,1.00,-0.80,0.46,848.00,1486.00,242.00,313.00,688.00,1093.00,2123.00,2480.00,,,,,,,,,,,,1,1,1,,-6104,15032,-1996,-125,-37,-72
37.638,37.41,-1.49,-0.74,1.32,-0.23,3.24,-1.01,0.70,-0.40,0.14,828.00,1490.00,234.00,319.00,695.00,1087.00,2145.00,2462.00,,,,,,,,,,,,1,1,1,,-6228,14988,-2072,-9,199,-255
37.699,37.46,-1.48,0.12,0.35,1.82,2.00,-1.36,0.63,-0.71,0.22,859.00,1478.00,241.00,304.00,702.00,1104.00,2147.00,2487.00,,,,,,,,,,,,1,1,1,,-6240,14884,-2204,-132,198,-295
37.741,37.52,-1.50,-0.26,0.39,1.33,1.64,-1.79,1.06,-1.20,0.55,863.00,1499.00,248.00,313.00,691.00,1110.00,2128.00,2513.00,,,,,,,,,,,,1,1,1,,-6124,14864,-2072,-66,151,-183
37.823,37.57,-1.50,-0.94,0.73,-0.26,2.71,-1.69,0.82,-0.90,0.24,858.00,1526.00,241.00,324.00,699.00,1113.00,2153.00,2505.00,,,,,,,,,,,,1,1,1,,-6244,14900,-2336,-168,148,-237
37.885,37.63,-1.50,-0.15,0.38,0.21,2.47,-1.35,0.18,-0.89,-0.02,862.00,1493.00,242.00,320.00,719.00,1117.00,2183.00,2521.00,,,,,,,,,,,,1,1,1,,-6180,14764,-2132,-287,69,-343
37.907,37.68,-1.54,-0.49,-0.08,1.81,0.12,-2.30,0.76,-1.53,0.36,889.00,1532.00,267.00,320.00,709.00,1142.00,2163.00,2559.00,,,,,,,,,,,,1,1,1,,-6260,15096,-2140,-268,93,-219
37.97,37.74,-1.55,-1.53,0.80,-0.83,2.52,-1.73,0.80,-1.07,0.51,864.00,1559.00,246.00,333.00,700.00,1115.00,2128.00,2503.00,,,,,,,,,,,,1,1,1,,-6252,14748,-1980,-309,-34,-261
38.011,37.79,-1.53,-0.75,0.99,0.67,2.62,-1.15,0.32,-0.52,0.06,843.00,1504.00,238.00,313.00,711.00,1104.00,2159.00,2479.00,,,,,,,,,,,,1,1,1,,-6244,14788,-2224,-241,-21,-136
38.073,37.85,-1.52,-0.02,0.31,1.88,1.68,-1.48,0.43,-0.84,0.17,863.00,1488.00,245.00,306.00,711.00,1115.00,2158.00,2503.00,,,,,,,,,,,,1,1,1,,-6308,14920,-1808,-204,20,28
38.135,37.90,-1.55,-0.69,0.39,1.38,0.75,-2.11,0.93,-1.41,0.62,870.00,1525.00,260.00,320.00,700.00,1128.00,2128.00,2529.00,,,,,,,,,,,,1,1,1,,-6264,15160,-2012,-156,198,-369
38.176,37.96,-1.55,-1.44,1.24,-0.43,2.84,-1.57,0.57,-0.73,0.10,842.00,1535.00,240.00,325.00,707.00,1115.00,2162.00,2497.00,,,,,,,,,,,,1,1,1,,-6252,14728,-1984,-236,78,-425
38.237,38.01,-1.56,-0.34,0.33,1.85,0.88,-1.56,0.23,-1.06,0.10,867.00,1506.00,256.00,313.00,720.00,1125.00,2175.00,2530.00,,,,,,,,,,,,1,1,1,,-6300,15112,-2152,-105,-15,-336
38.34,38.07,-1.59,-0.56,0.05,1.56,0.48,-2.17,0.43,-1.84,0.47,884.00,1531.00,263.00,320.00,720.00,1146.00,2162.00,2583.00,,,,,,,,,,,,1,1,1,,-6348,14972,-1860,27,62,-509
38.361,38.12,-1.61,-1.93,0.83,-1.28,2.08,-2.13,0.60,-1.47,0.28,869.00,1583.00,254.00,343.00,713.00,1139.00,2170.00,2559.00,,,,,,,,,,,,1,1,1,,-6232,14928,-1964,108,19,-561
38.403,38.18,-1.62,-1.63,0.85,-0.30,1.97,-1.75,-0.09,-1.08,-0.29,863.00,1563.00,251.00,331.00,735.00,1143.00,2223.00,2559.00,,,,,,,,,,,,1,1,1,,-6416,14776,-1960,11,-152,-329
38.464,38.23,-1.68,-0.82,-0.44,1.40,-0.09,-2.87,0.69,-2.33,0.39,912.00,1567.00,272.00,327.00,719.00,1170.00,2192.00,2640.00,,,,,,,,,,,,1,1,1,,-6332,14516,-2020,68,57,-161
38.527,38.29,-1.73,-2.19,0.56,-0.83,1.64,-2.70,0.66,-2.07,0.38,886.00,1611.00,258.00,341.00,718.00,1163.00,2182.00,2613.00,,,,,,,,,,,,1,1,1,,-6384,14976,-2100,-123,163,-307
38.568,38.34,-1.74,-1.60,0.93,-0.03,2.03,-1.95,0.44,-0.96,0.05,859.00,1558.00,249.00,327.00,717.00,1136.00,2177.00,2523.00,,,,,,,,,,,,1,1,1,,-6436,14780,-1996,-280,-5,-287
38.65,38.40,-1.77,-0.30,0.32,2.04,0.96,-2.22,0.48,-1.23,0.21,867.00,1504.00,254.00,310.00,719.00,1147.00,2169.00,2539.00,,,,,,,,,,,,1,1,1,,-6408,14756,-1844,-106,-73,-165
38.713,38.45,-1.81,-0.85,0.38,0.77,0.96,-2.56,0.85,-1.67,0.62,873.00,1535.00,260.00,326.00,709.00,1151.00,2139.00,2556.00,,,,,,,,,,,,1,1,1,,-6472,14892,-1920,152,76,-77
38.734,38.51,-1.84,-1.92,1.21,-1.38,2.78,-2.39,0.53,-1.44,0.24,851.00,1566.00,245.00,338.00,719.00,1153.00,2174.00,2559.00,,,,,,,,,,,,1,1,1,,-6404,14796,-2048,42,78,-292
38.796,38.56,-1.84,-1.33,0.62,0.05,1.34,-1.99,0.04,-1.24,-0.07,869.00,1554.00,258.00,332.00,733.00,1150.00,2202.00,2559.00,,,,,,,,,,,,1,1,1,,-6428,14756,-1800,-60,85,-236
38.858,38.62,-1.89,-0.36,-0.35,1.46,-0.18,-2.83,0.63,-2.05,0.43,900.00,1535.00,273.00,327.00,721.00,1170.00,2176.00,2608.00,,,,,,,,,,,,1,1,1,,-6444,14716,-2032,-108,-96,-287
38.899,38.67,-1.94,-2.18,0.97,-1.65,1.99,-2.75,0.68,-1.51,0.34,866.00,1592.00,257.00,349.00,718.00,1165.00,2165.00,2559.00,,,,,,,,,,,,1,1,1,,-6476,14912,-1700,4,-36,-224
38.941,38.73,-1.95,-2.37,1.80,0.62,1.29,-2.14,-0.03,-1.44,-0.10,831.00,1569.00,256.00,325.00,738.00,1159.00,2214.00,2582.00,,,,,,,,,,,,1,1,1,,-6604,14772,-1780,87,115,-280
39.005,38.78,-2.00,-1.05,-0.08,0.80,0.11,-2.95,0.36,-2.09,0.30,898.00,1566.00,272.00,333.00,733.00,1184.00,2193.00,2621.00,,,,,,,,,,,,1,1,1,,-6512,14732,-2024,99,136,-164
39.107,38.84,-2.04,-1.75,0.51,-0.03,0.46,-2.90,0.70,-2.04,0.56,881.00,1585.00,271.00,341.00,719.00,1171.00,2160.00,2598.00,,,,,,,,,,,,1,1,1,,-6540,14772,-1936,107,58,-201
39.128,38.89,-2.05,-1.75,1.22,-2.71,3.22,-2.27,0.41,-1.01,0.07,848.00,1555.00,245.00,352.00,722.00,1151.00,2177.00,2527.00,,,,,,,,,,,,1,1,1,,-6476,14692,-2080,36,112,-124
