Time_Host,Time_Arduino,easingdata,CH1_Oxy,CH1_Deoxy,CH2_Oxy,CH2_Deoxy,CH3_Oxy,CH3_Deoxy,CH4_Oxy,CH4_Deoxy,CH1_PD730,CH1_PD850,CH2_PD730,CH2_PD850,CH3_PD730,CH3_PD850,CH4_PD730,CH4_PD850,Answers,airplane_playstate,trail_times,frameRate,Airplane X,Airplane Y,Correct,Wrong,Slow,AnswerRate,CorrectRate,VFTstates,VFTchoose,VFTCount,Culfstates,ax,ay,az,gx,gy,gz
1.384,0.04,0.00,0.00,0.00,0.00,0.00,0.00,0.00,0.00,0.00,1229.00,949.00,494.00,425.00,688.00,2702.00,0.00,1987.00,,,,,,,,,,,,0,0,0,,-864,15752,3672,89,242,-63
1.405,0.10,0.00,0.00,0.00,0.00,0.00,0.00,0.00,0.00,0.00,525.00,2397.00,314.00,774.00,511.00,2507.00,0.00,1456.00,,,,,,,,,,,,0,0,0,,-768,15824,3624,95,181,-95
1.425,0.15,0.00,0.00,0.00,0.00,0.00,0.00,0.00,0.00,0.00,0.00,1661.00,160.00,527.00,1040.00,2398.00,0.00,857.00,,,,,,,,,,,,0,0,0,,-788,15804,3500,-38,83,-149
1.445,0.21,0.00,0.00,0.00,0.00,0.00,0.00,0.00,0.00,0.00,1186.00,1158.00,582.00,371.00,749.00,2887.00,0.00,1571.00,,,,,,,,,,,,0,0,0,,-752,15740,3692,-100,20,-186
1.466,0.26,0.00,0.00,0.00,0.00,0.00,0.00,0.00,0.00,0.00,626.00,2037.00,332.00,747.00,640.00,2635.00,0.00,1222.00,,,,,,,,,,,,0,0,0,,-828,15788,3776,-72,105,-155
1.487,1.05,0.00,0.00,0.00,0.00,0.00,0.00,0.00,0.00,0.00,0.00,1586.00,202.00,529.00,961.00,2256.00,0.00,1157.00,,,,,,,,,,,,0,0,0,,-564,15808,3364,195,-117,178
1.527,1.11,0.00,0.00,0.00,0.00,0.00,0.00,0.00,0.00,0.00,1454.00,822.00,623.00,355.00,678.00,2787.00,0.00,2062.00,,,,,,,,,,,,0,0,0,,-540,15792,3368,200,-115,-33
1.61,1.16,0.00,0.00,0.00,0.00,0.00,0.00,0.00,0.00,0.00,561.00,2332.00,321.00,833.00,524.00,2490.00,0.00,1583.00,,,,,,,,,,,,0,0,0,,-632,15996,3540,197,70,-199
1.631,1.22,0.00,0.00,0.00,0.00,0.00,0.00,0.00,0.00,0.00,76.00,1730.00,240.00,563.00,910.00,2375.00,0.00,1305.00,,,,,,,,,,,,0,0,0,,-760,16036,3204,171,167,-171
1.671,1.27,0.00,0.00,0.00,0.00,0.00,0.00,0.00,0.00,0.00,859.00,1213.00,528.00,446.00,670.00,2640.00,0.00,1691.00,,,,,,,,,,,,0,0,0,,-572,15820,3356,102,144,-206
1.733,1.33,-0.06,-2.18,0.08,-10.58,6.71,-1.26,3.32,nan,nan,675.00,1728.00,320.00,707.00,630.00,2469.00,0.00,1607.00,,,,,,,,,,,,0,0,0,,-668,15708,3288,208,177,-186
1.815,1.38,0.01,-11.64,10.83,-1.55,2.29,1.32,-0.06,nan,nan,448.00,1883.00,345.00,557.00,722.00,2441.00,0.00,1494.00,,,,,,,,,,,,0,0,0,,-588,15816,3224,285,171,-143
1.836,1.44,0.11,-14.55,23.11,0.89,-0.85,2.04,-0.73,nan,nan,243.00,1520.00,391.00,550.00,739.00,2416.00,0.00,1329.00,,,,,,,,,,,,0,0,0,,-688,15888,3208,204,211,-236
1.897,1.50,0.01,19.95,-17.49,2.32,-3.42,-1.92,2.16,nan,nan,1168.00,1153.00,438.00,557.00,679.00,2614.00,0.00,1845.00,,,,,,,,,,,,0,0,0,,-592,15892,2840,140,224,-270
1.98,1.55,-0.11,-18.67,12.91,-10.77,6.32,-2.27,5.84,nan,nan,455.00,2352.00,328.00,720.00,560.00,2402.00,0.00,1424.00,,,,,,,,,,,,0,0,0,,-580,15868,3140,75,149,-247
2.0,1.60,0.28,inf,inf,-6.02,10.03,7.56,-6.50,nan,nan,0.00,1559.00,246.00,540.00,913.00,2266.00,0.00,1058.00,,,,,,,,,,,,0,0,0,,-740,15948,3204,56,105,-214
2.064,1.66,0.03,35.61,-26.21,18.42,-13.41,-4.56,3.83,nan,nan,1408.00,784.00,561.00,385.00,651.00,2775.00,0.00,1974.00,,,,,,,,,,,,0,0,0,,-632,15732,3060,49,184,-189
2.103,1.71,-0.24,-19.00,11.21,-16.57,8.56,-5.40,9.97,nan,nan,502.00,2494.00,323.00,853.00,474.00,2433.00,0.00,1438.00,,,,,,,,,,,,0,0,0,,-576,15952,2952,31,94,-157
2.166,1.77,0.13,inf,inf,-12.46,18.39,7.14,-6.79,nan,nan,0.00,1683.00,176.00,557.00,935.00,2323.00,0.00,1158.00,,,,,,,,,,,,0,0,0,,-688,15892,3004,-18,76,-157
2.228,1.82,0.00,16.91,-13.49,12.64,-11.43,-2.45,2.31,nan,nan,994.00,1168.00,560.00,459.00,680.00,2659.00,0.00,1677.00,,,,,,,,,,,,0,0,0,,-660,15828,3116,-125,153,-195
2.291,1.88,-0.14,-7.39,4.23,-13.12,8.21,-2.81,5.82,nan,nan,593.00,1900.00,309.00,751.00,566.00,2455.00,0.00,1469.00,,,,,,,,,,,,0,0,0,,-704,15860,3152,-159,88,-113
2.352,1.93,-0.01,-20.61,25.45,-6.68,9.45,2.36,-1.67,nan,nan,239.00,1814.00,257.00,563.00,773.00,2446.00,0.00,1376.00,,,,,,,,,,,,0,0,0,,-648,15820,3220,-96,105,-168
2.415,1.99,0.01,-8.82,13.52,0.43,-1.43,0.42,0.68,nan,nan,368.00,1567.00,407.00,569.00,705.00,2480.00,0.00,1350.00,,,,,,,,,,,,0,0,0,,-608,16000,3008,-12,72,-162
2.434,2.04,-0.06,12.91,-11.11,-2.47,1.30,-1.26,2.05,nan,nan,940.00,1284.00,370.00,593.00,675.00,2555.00,0.00,1707.00,,,,,,,,,,,,0,0,0,,-656,15896,3020,-27,97,-130
2.498,2.10,-0.12,-19.00,14.28,-10.48,6.68,-1.25,4.13,nan,nan,425.00,2297.00,320.00,705.00,603.00,2415.00,0.00,1360.00,,,,,,,,,,,,0,0,0,,-604,15840,3088,127,132,-114
2.582,2.15,0.20,inf,inf,-5.17,7.42,6.17,-4.81,nan,nan,0.00,1535.00,279.00,560.00,855.00,2289.00,0.00,1040.00,,,,,,,,,,,,0,0,0,,-720,15924,3024,37,150,-74
2.622,2.21,0.03,33.07,-24.27,13.22,-9.93,-3.24,3.30,nan,nan,1328.00,823.00,511.00,431.00,654.00,2672.00,0.00,1827.00,,,,,,,,,,,,0,0,0,,-656,15924,3092,-62,108,-87
2.664,2.27,-0.28,-20.99,13.33,-16.33,8.82,-6.11,11.37,nan,nan,464.00,2549.00,317.00,839.00,445.00,2410.00,0.00,1344.00,,,,,,,,,,,,0,0,0,,-492,15872,2948,-97,33,-180
2.704,2.32,0.18,inf,inf,-13.43,20.02,8.90,-8.01,nan,nan,0.00,1623.00,164.00,554.00,967.00,2238.00,0.00,960.00,,,,,,,,,,,,0,0,0,,-644,15960,3120,-75,86,-121
2.765,2.37,0.01,25.42,-19.90,17.78,-14.53,-3.21,3.15,nan,nan,1205.00,991.00,603.00,407.00,659.00,2679.00,0.00,1680.00,,,,,,,,,,,,0,0,0,,-608,16036,2964,-116,167,-136
2.827,2.43,-0.13,-9.03,4.38,-13.42,7.38,-2.84,6.46,nan,nan,606.00,2019.00,325.00,777.00,547.00,2416.00,0.00,1360.00,,,,,,,,,,,,0,0,0,,-720,15924,2892,-71,134,-104
2.869,2.48,0.11,-32.61,45.39,-6.77,11.21,4.79,-3.56,nan,nan,101.00,1708.00,234.00,539.00,819.00,2337.00,0.00,1159.00,,,,,,,,,,,,0,0,0,,-576,15864,3008,-86,76,-121
2.929,2.54,0.07,2.70,0.22,6.96,-7.06,-0.83,2.18,nan,nan,613.00,1419.00,490.00,511.00,665.00,2503.00,0.00,1345.00,,,,,,,,,,,,0,0,0,,-644,15988,3136,-101,137,-131
2.99,2.60,0.02,6.24,-5.49,-6.06,4.29,-0.86,2.36,nan,nan,783.00,1438.00,336.00,631.00,659.00,2494.00,0.00,1495.00,,,,,,,,,,,,0,0,0,,-552,15924,2952,-105,138,-96
3.091,2.65,-0.00,-15.46,12.66,-5.73,4.46,-0.45,2.47,nan,nan,435.00,2085.00,331.00,620.00,650.00,2446.00,0.00,1301.00,,,,,,,,,,,,0,0,0,,-544,15952,3120,-110,129,-122
3.112,2.70,0.21,inf,inf,-1.78,2.36,4.29,-3.32,nan,nan,0.00,1535.00,345.00,561.00,816.00,2369.00,0.00,1105.00,,,,,,,,,,,,0,0,0,,-648,15868,3060,-123,35,-159
3.172,2.76,0.04,26.90,-21.02,8.00,-7.02,-3.27,3.34,nan,nan,1246.00,963.00,480.00,490.00,653.00,2672.00,0.00,1750.00,,,,,,,,,,,,0,0,0,,-568,15996,2920,-93,162,-78
3.233,2.81,-0.20,-19.73,13.27,-13.32,7.58,-4.65,8.92,nan,nan,455.00,2429.00,321.00,770.00,495.00,2430.00,0.00,1299.00,,,,,,,,,,,,0,0,0,,-520,15940,3152,-162,142,-106
3.275,2.87,0.26,inf,inf,-11.17,16.34,8.95,-7.95,nan,nan,0.00,1580.00,192.00,559.00,963.00,2230.00,0.00,896.00,,,,,,,,,,,,0,0,0,,-560,15892,2888,-93,120,-114
3.337,2.92,0.04,33.33,-25.32,20.92,-16.30,-4.07,4.06,nan,nan,1399.00,838.00,627.00,377.00,637.00,2705.00,0.00,1744.00,,,,,,,,,,,,0,0,0,,-528,15948,3108,-60,192,-82
3.398,2.98,-0.16,-13.34,7.19,-15.12,8.07,-4.02,8.15,nan,nan,563.00,2221.00,323.00,816.00,510.00,2419.00,0.00,1328.00,,,,,,,,,,,,0,0,0,,-552,15988,2932,-102,155,-156
3.439,3.04,0.13,-41.33,59.55,-7.60,10.95,5.67,-4.47,nan,nan,55.00,1650.00,241.00,561.00,847.00,2313.00,0.00,1075.00,,,,,,,,,,,,0,0,0,,-464,15888,2868,-1,51,-188
3.502,3.09,-0.02,11.83,-7.39,11.95,-10.01,-2.89,3.44,nan,nan,784.00,1213.00,525.00,454.00,645.00,2625.00,0.00,1438.00,,,,,,,,,,,,0,0,0,,-572,16000,2940,-56,119,-185
3.565,3.14,-0.07,-0.33,-0.81,-10.25,6.60,-1.05,3.40,nan,nan,685.00,1645.00,320.00,700.00,625.00,2443.00,0.00,1380.00,,,,,,,,,,,,0,0,0,,-660,15932,3016,-49,137,-187
3.606,3.20,-0.04,-12.81,12.16,-3.19,3.33,0.59,1.16,nan,nan,426.00,1903.00,336.00,578.00,685.00,2432.00,0.00,1260.00,,,,,,,,,,,,0,0,0,,-572,15888,2952,-84,114,-144
3.667,3.25,0.08,-19.84,30.63,-0.91,0.88,2.25,-1.05,nan,nan,178.00,1531.00,368.00,564.00,749.00,2416.00,0.00,1142.00,,,,,,,,,,,,0,0,0,,-596,15920,2864,-134,23,-140
3.729,3.31,-0.07,20.86,-18.05,1.83,-3.76,-2.95,3.57,nan,nan,1184.00,1129.00,450.00,573.00,641.00,2622.00,0.00,1664.00,,,,,,,,,,,,0,0,0,,-516,15888,3160,-150,118,-150
3.87,3.37,-0.27,-19.46,13.59,-11.49,6.51,-3.90,7.54,nan,nan,445.00,2383.00,329.00,737.00,526.00,2447.00,0.00,1232.00,,,,,,,,,,,,0,0,0,,-556,15968,3064,-106,145,-152
3.89,3.42,0.08,inf,inf,-8.71,12.18,6.73,-5.60,nan,nan,0.00,1584.00,230.00,567.00,883.00,2286.00,0.00,896.00,,,,,,,,,,,,0,0,0,,-600,15884,3060,-67,102,-169
3.912,3.47,-0.18,35.89,-26.86,18.21,-14.05,-5.15,4.37,nan,nan,1451.00,789.00,583.00,395.00,639.00,2800.00,0.00,1840.00,,,,,,,,,,,,0,0,0,,-644,15904,3096,-74,85,-161
3.951,3.53,-0.49,-18.05,9.99,-17.32,8.75,-6.46,10.80,nan,nan,527.00,2482.00,324.00,874.00,462.00,2482.00,0.00,1328.00,,,,,,,,,,,,0,0,0,,-596,15740,3096,-66,79,-237
3.992,3.58,-0.17,inf,inf,-12.30,16.25,6.04,-5.98,nan,nan,0.00,1718.00,197.00,586.00,913.00,2374.00,0.00,1089.00,,,,,,,,,,,,0,0,0,,-528,16088,2840,-115,151,-192
4.053,3.64,-0.32,16.01,-12.75,11.36,-10.67,-3.32,3.55,nan,nan,971.00,1187.00,550.00,473.00,646.00,2662.00,0.00,1535.00,,,,,,,,,,,,0,0,0,,-548,15932,3200,-78,194,-142
4.178,3.69,-0.46,-6.97,4.33,-13.40,8.43,-3.13,6.26,nan,nan,585.00,1863.00,307.00,755.00,556.00,2457.00,0.00,1338.00,,,,,,,,,,,,0,0,0,,-488,15808,3012,103,149,-133
4.198,3.75,-0.37,-18.83,22.95,-6.28,8.33,1.40,-0.32,nan,nan,265.00,1808.00,271.00,571.00,731.00,2450.00,0.00,1245.00,,,,,,,,,,,,0,0,0,,-604,15932,3060,3,112,-107
4.218,3.81,-0.36,-9.38,15.11,-0.29,-1.14,-0.07,1.54,nan,nan,341.00,1535.00,406.00,581.00,679.00,2471.00,0.00,1206.00,,,,,,,,,,,,0,0,0,,-544,15820,2944,-206,110,-88
4.259,3.86,-0.46,12.78,-10.89,-2.49,1.21,-2.51,3.48,nan,nan,931.00,1283.00,372.00,595.00,639.00,2583.00,0.00,1567.00,,,,,,,,,,,,0,0,0,,-556,16108,3136,-158,45,-151
4.321,3.91,-0.56,-19.25,14.45,-10.06,5.69,-2.38,5.36,nan,nan,423.00,2309.00,335.00,712.00,576.00,2444.00,0.00,1233.00,,,,,,,,,,,,0,0,0,,-584,16040,3000,-5,175,-184
4.364,3.97,-0.27,inf,inf,-5.75,7.36,5.29,-4.17,nan,nan,0.00,1579.00,283.00,574.00,839.00,2329.00,0.00,937.00,,,,,,,,,,,,0,0,0,,-512,15888,2976,-13,175,-187
4.486,4.03,-0.47,32.81,-24.38,12.48,-10.29,-4.28,4.10,nan,nan,1342.00,834.00,528.00,448.00,638.00,2724.00,0.00,1746.00,,,,,,,,,,,,0,0,0,,-528,15904,2840,-57,88,-126
4.506,4.08,-0.79,-20.68,12.00,-17.17,8.87,-6.89,11.59,nan,nan,496.00,2610.00,321.00,866.00,446.00,2471.00,0.00,1295.00,,,,,,,,,,,,0,0,0,,-432,15940,2908,-157,26,-131
4.548,4.13,-0.35,inf,inf,-13.71,18.91,7.92,-7.45,nan,nan,0.00,1648.00,175.00,577.00,955.00,2292.00,0.00,939.00,,,,,,,,,,,,0,0,0,,-472,15936,3096,-124,105,-124
4.589,4.19,-0.53,23.27,-19.35,14.34,-13.03,-3.97,3.49,nan,nan,1216.00,1063.00,592.00,448.00,656.00,2736.00,0.00,1649.00,,,,,,,,,,,,0,0,0,,-624,15920,3016,-65,162,-119
4.651,4.25,-0.70,-9.87,4.57,-13.30,6.78,-3.78,6.88,nan,nan,609.00,2077.00,335.00,786.00,544.00,2479.00,0.00,1302.00,,,,,,,,,,,,0,0,0,,-580,16052,2916,-65,128,-152
4.691,4.30,-0.47,-32.73,44.72,-8.54,11.42,3.76,-3.25,nan,nan,105.00,1748.00,239.00,575.00,821.00,2415.00,0.00,1132.00,,,,,,,,,,,,0,0,0,,-580,15720,2932,-78,117,-105
4.754,4.36,-0.54,1.28,1.00,4.00,-5.83,-1.76,2.33,nan,nan,603.00,1470.00,484.00,556.00,671.00,2586.00,0.00,1317.00,,,,,,,,,,,,0,0,0,,-480,16068,3068,-180,48,-174
4.815,4.41,-0.58,5.94,-5.48,-6.72,3.81,-1.35,2.61,nan,nan,787.00,1455.00,349.00,656.00,656.00,2526.00,0.00,1459.00,,,,,,,,,,,,0,0,0,,-448,15960,3144,-151,235,-48
4.877,4.46,-0.61,-16.29,13.11,-6.78,4.53,-1.15,3.02,nan,nan,431.00,2129.00,336.00,645.00,639.00,2478.00,0.00,1252.00,,,,,,,,,,,,0,0,0,,-452,15780,2976,16,191,-24
4.917,4.52,-0.38,inf,inf,-2.28,2.11,3.91,-3.17,nan,nan,0.00,1568.00,353.00,576.00,815.00,2395.00,0.00,1040.00,,,,,,,,,,,,0,0,0,,-424,16012,2920,-45,28,-60
4.979,4.58,-0.56,27.36,-21.54,7.51,-7.13,-3.94,4.11,nan,nan,1271.00,959.00,487.00,501.00,634.00,2688.00,0.00,1712.00,,,,,,,,,,,,0,0,0,,-516,16016,2948,-72,-130,-128
5.04,4.63,-0.84,-20.63,13.57,-14.54,8.05,-6.12,10.33,nan,nan,455.00,2497.00,320.00,798.00,471.00,2480.00,0.00,1291.00,,,,,,,,,,,,0,0,0,,-448,16048,2924,29,-366,-251
5.081,4.68,-0.37,inf,inf,-11.33,15.46,8.42,-7.94,nan,nan,0.00,1611.00,202.00,576.00,972.00,2277.00,0.00,887.00,,,,,,,,,,,,0,0,0,,-416,15968,3024,25,-223,-279
5.163,4.74,-0.59,32.63,-25.39,18.43,-15.67,-4.65,3.80,nan,nan,1422.00,863.00,634.00,409.00,653.00,2787.00,0.00,1744.00,,,,,,,,,,,,0,0,0,,-488,15884,3100,-173,198,-326
5.184,4.79,-0.79,-13.55,6.49,-17.60,8.28,-4.68,7.73,nan,nan,587.00,2282.00,334.00,895.00,528.00,2511.00,0.00,1324.00,,,,,,,,,,,,0,0,0,,-640,15844,2896,-251,187,-95
5.286,4.85,-0.51,-40.56,56.49,-9.29,11.06,4.90,-4.64,nan,nan,64.00,1737.00,247.00,598.00,867.00,2396.00,0.00,1078.00,,,,,,,,,,,,0,0,0,,-540,16016,3052,-237,70,-49
5.307,4.91,-0.65,10.93,-7.81,9.12,-9.13,-3.36,3.54,nan,nan,815.00,1271.00,527.00,496.00,647.00,2667.00,0.00,1452.00,,,,,,,,,,,,0,0,0,,-400,16116,3008,-202,113,-117
5.349,4.96,-0.71,-0.61,-1.46,-11.32,6.06,-1.87,3.27,nan,nan,713.00,1692.00,336.00,741.00,639.00,2533.00,0.00,1433.00,,,,,,,,,,,,0,0,0,,-436,15904,3100,-150,105,-132
5.412,5.01,-0.71,-13.74,12.12,-5.27,3.54,-0.59,1.47,nan,nan,434.00,1976.00,345.00,624.00,688.00,2527.00,0.00,1314.00,,,,,,,,,,,,0,0,0,,-388,16088,3044,-78,121,-154
5.495,5.07,-0.61,-21.36,31.36,-3.43,1.73,1.31,-0.86,nan,nan,176.00,1595.00,368.00,609.00,754.00,2495.00,0.00,1193.00,,,,,,,,,,,,0,0,0,,-432,16012,2960,-16,170,-90
5.535,5.12,-0.75,20.58,-18.35,1.75,-4.73,-3.52,3.45,nan,nan,1210.00,1151.00,475.00,590.00,652.00,2691.00,0.00,1709.00,,,,,,,,,,,,0,0,0,,-480,15768,3032,-189,98,-190
5.575,5.18,-0.95,-19.52,13.00,-12.89,6.70,-4.80,8.38,nan,nan,460.00,2427.00,334.00,775.00,511.00,2480.00,0.00,1307.00,,,,,,,,,,,,0,0,0,,-500,15952,3132,-183,148,-82
5.66,5.24,-0.58,inf,inf,-10.17,12.04,6.44,-5.54,nan,nan,0.00,1615.00,238.00,603.00,885.00,2309.00,0.00,944.00,,,,,,,,,,,,0,0,0,,-436,15836,3148,-76,243,-52
5.679,5.29,-0.83,35.20,-26.81,16.04,-13.76,-5.56,4.83,nan,nan,1466.00,810.00,597.00,427.00,628.00,2811.00,0.00,1870.00,,,,,,,,,,,,0,0,0,,-408,16080,3144,-77,238,-102
5.782,5.34,-1.14,-18.93,11.07,-18.13,8.57,-6.91,11.27,nan,nan,505.00,2496.00,332.00,907.00,454.00,2494.00,0.00,1354.00,,,,,,,,,,,,0,0,0,,-324,15984,2876,-73,123,-158
5.802,5.40,-0.81,inf,inf,-13.07,15.96,5.46,-5.44,nan,nan,0.00,1724.00,203.00,609.00,896.00,2394.00,0.00,1136.00,,,,,,,,,,,,0,0,0,,-452,15872,3016,-104,65,-165
5.864,5.45,-0.96,15.39,-12.27,9.76,-10.30,-3.87,3.82,nan,nan,957.00,1201.00,555.00,499.00,643.00,2701.00,0.00,1584.00,,,,,,,,,,,,0,0,0,,-448,16008,3008,-87,143,-161
5.907,5.51,-1.10,-7.33,4.08,-13.85,7.64,-3.72,6.56,nan,nan,597.00,1903.00,323.00,785.00,553.00,2495.00,0.00,1451.00,,,,,,,,,,,,0,0,0,,-596,15960,2980,-70,155,-160
5.967,5.57,-1.02,-17.85,20.51,-7.01,6.95,0.54,0.15,nan,nan,297.00,1857.00,296.00,610.00,724.00,2503.00,0.00,1367.00,,,,,,,,,,,,0,0,0,,-500,15960,2900,-18,110,-153
6.029,5.62,-1.00,-8.40,12.49,-1.93,-1.09,-0.66,1.60,nan,nan,386.00,1584.00,417.00,619.00,684.00,2525.00,0.00,1333.00,,,,,,,,,,,,0,0,0,,-388,15904,2916,-77,127,-150
6.09,5.67,-1.12,12.97,-11.86,-4.28,1.13,-3.42,3.70,nan,nan,978.00,1307.00,386.00,640.00,642.00,2662.00,0.00,1742.00,,,,,,,,,,,,0,0,0,,-448,15932,2892,-135,192,-180
6.151,5.73,-1.23,-19.79,14.21,-11.95,6.38,-3.29,5.56,nan,nan,433.00,2375.00,334.00,753.00,579.00,2519.00,0.00,1392.00,,,,,,,,,,,,0,0,0,,-516,15868,2984,-135,146,-126
6.192,5.79,-0.93,inf,inf,-8.08,8.40,4.74,-4.33,nan,nan,0.00,1614.00,279.00,612.00,855.00,2391.00,0.00,1107.00,,,,,,,,,,,,0,0,0,,-316,15856,3040,-129,101,-170
6.253,5.84,-1.13,32.49,-24.75,11.40,-10.41,-5.02,4.21,nan,nan,1377.00,853.00,542.00,469.00,643.00,2797.00,0.00,1892.00,,,,,,,,,,,,0,0,0,,-428,16100,2932,-45,151,-245
6.296,5.89,-1.43,-22.15,13.29,-18.34,8.59,-7.14,11.55,nan,nan,475.00,2672.00,333.00,914.00,449.00,2498.00,0.00,1424.00,,,,,,,,,,,,0,0,0,,-452,15872,2924,-92,100,-183
6.421,5.95,-1.00,inf,inf,-14.79,18.55,7.19,-6.99,nan,nan,0.00,1681.00,182.00,608.00,944.00,2330.00,0.00,1085.00,,,,,,,,,,,,0,0,0,,-504,15792,3136,26,147,-138
6.441,6.00,-1.16,21.53,-18.13,12.42,-12.69,-4.18,3.70,nan,nan,1175.00,1102.00,602.00,479.00,651.00,2743.00,0.00,1730.00,,,,,,,,,,,,0,0,0,,-432,15916,2980,-7,211,-167
6.462,6.06,-1.32,-10.24,5.34,-14.85,7.30,-4.37,7.46,nan,nan,588.00,2064.00,335.00,824.00,533.00,2499.00,0.00,1424.00,,,,,,,,,,,,0,0,0,,-372,15952,2892,-117,133,-136
6.524,6.12,-1.10,-29.99,40.14,-8.96,10.51,3.14,-2.54,nan,nan,128.00,1773.00,253.00,599.00,799.00,2428.00,0.00,1214.00,,,,,,,,,,,,0,0,0,,-496,15996,3044,-137,87,-142
6.585,6.17,-1.19,-0.30,1.97,2.14,-5.44,-2.98,4.53,nan,nan,589.00,1525.00,490.00,592.00,609.00,2559.00,0.00,1374.00,,,,,,,,,,,,0,0,0,,-508,15996,2936,-90,216,-178
6.626,6.22,-1.24,7.05,-6.82,-7.90,3.95,-2.15,3.30,nan,nan,829.00,1443.00,354.00,685.00,641.00,2559.00,0.00,1559.00,,,,,,,,,,,,0,0,0,,-464,15936,2956,-34,154,-178
6.686,6.28,-1.26,-16.74,12.55,-8.51,4.58,-1.64,3.22,nan,nan,448.00,2200.00,346.00,690.00,638.00,2513.00,0.00,1361.00,,,,,,,,,,,,0,0,0,,-512,15928,2932,-82,111,-120
6.769,6.33,-1.04,inf,inf,-4.46,3.37,3.22,-2.71,nan,nan,0.00,1606.00,343.00,607.00,805.00,2431.00,0.00,1152.00,,,,,,,,,,,,0,0,0,,-528,16000,3004,-44,132,-153
6.789,6.39,-1.20,28.04,-22.20,5.88,-7.10,-4.37,3.82,nan,nan,1301.00,950.00,501.00,534.00,649.00,2755.00,0.00,1812.00,,,,,,,,,,,,0,0,0,,-472,15932,2980,-58,102,-166
6.851,6.45,-1.48,-20.21,12.25,-15.08,7.32,-6.76,10.62,nan,nan,485.00,2544.00,336.00,831.00,469.00,2523.00,0.00,1382.00,,,,,,,,,,,,0,0,0,,-428,15884,2920,-141,75,-164
6.892,6.50,-1.03,inf,inf,-14.11,17.24,7.59,-7.74,nan,nan,0.00,1667.00,193.00,613.00,976.00,2340.00,0.00,994.00,,,,,,,,,,,,0,0,0,,-520,15888,2988,-150,119,-45
6.953,6.55,-1.24,30.51,-24.44,15.47,-14.53,-5.30,4.25,nan,nan,1404.00,915.00,629.00,446.00,645.00,2826.00,0.00,1803.00,,,,,,,,,,,,0,0,0,,-428,15960,3108,-172,44,-217
7.015,6.61,-1.41,-12.99,5.83,-16.20,7.11,-4.52,7.27,nan,nan,602.00,2271.00,347.00,874.00,540.00,2527.00,0.00,1420.00,,,,,,,,,,,,0,0,0,,-592,15932,3024,-18,170,-127
7.137,6.66,-1.11,-38.44,53.35,-8.79,9.94,4.43,-4.12,nan,nan,73.00,1738.00,260.00,604.00,850.00,2407.00,0.00,1171.00,,,,,,,,,,,,0,0,0,,-380,15912,2928,5,207,-103
7.158,6.72,-1.23,8.66,-5.34,6.57,-7.70,-3.43,3.76,nan,nan,743.00,1301.00,511.00,528.00,640.00,2659.00,0.00,1502.00,,,,,,,,,,,,0,0,0,,-424,15908,2920,-70,199,-128
7.198,6.78,-1.25,1.63,-2.72,-9.86,5.19,-1.69,3.03,nan,nan,733.00,1602.00,343.00,716.00,645.00,2531.00,0.00,1487.00,,,,,,,,,,,,0,0,0,,-420,16032,3024,-7,157,-130
7.24,6.83,-1.25,-14.50,12.47,-5.86,3.47,-1.17,2.55,nan,nan,432.00,2018.00,350.00,640.00,656.00,2512.00,0.00,1335.00,,,,,,,,,,,,0,0,0,,-412,15860,2872,-1,95,-207
7.304,6.88,-1.08,-39.37,58.23,-3.40,1.57,2.09,-1.75,nan,nan,57.00,1582.00,371.00,611.00,780.00,2477.00,0.00,1201.00,,,,,,,,,,,,0,0,0,,-568,15880,2904,-73,109,-215
7.345,6.94,-1.23,22.26,-19.23,1.70,-4.71,-4.06,4.06,nan,nan,1231.00,1103.00,475.00,591.00,637.00,2704.00,0.00,1753.00,,,,,,,,,,,,0,0,0,,-560,15904,2720,-145,77,-167
7.406,7.00,-1.45,-20.10,13.43,-13.39,6.54,-5.54,9.07,nan,nan,454.00,2454.00,340.00,794.00,499.00,2507.00,0.00,1351.00,,,,,,,,,,,,0,0,0,,-524,15948,2900,-132,41,-97
7.488,7.05,-1.05,inf,inf,-11.39,13.16,6.42,-5.87,nan,nan,0.00,1646.00,229.00,614.00,901.00,2331.00,0.00,979.00,,,,,,,,,,,,0,0,0,,-504,15912,2948,-132,115,-135
7.51,7.11,-1.29,36.52,-28.35,16.52,-15.40,-5.87,4.61,nan,nan,1555.00,801.00,647.00,438.00,639.00,2862.00,0.00,1885.00,,,,,,,,,,,,0,0,0,,-496,16020,2900,-106,140,-127
7.55,7.16,-1.57,-17.36,9.00,-18.17,8.59,-6.83,10.65,nan,nan,549.00,2480.00,332.00,908.00,469.00,2529.00,0.00,1426.00,,,,,,,,,,,,0,0,0,,-436,15892,3112,-58,101,-185
7.61,7.21,-1.25,-79.44,113.29,-10.73,11.17,4.75,-4.99,nan,nan,6.00,1764.00,252.00,631.00,886.00,2433.00,0.00,1163.00,,,,,,,,,,,,0,0,0,,-432,15988,2984,-59,160,-148
7.672,7.27,-1.39,14.15,-10.97,8.90,-9.84,-4.06,4.23,nan,nan,912.00,1218.00,550.00,510.00,631.00,2691.00,0.00,1571.00,,,,,,,,,,,,0,0,0,,-436,16052,2904,-130,156,-163
7.713,7.33,-1.49,-4.21,1.23,-13.27,6.83,-3.33,5.77,nan,nan,658.00,1815.00,334.00,784.00,573.00,2509.00,0.00,1422.00,,,,,,,,,,,,0,0,0,,-488,15824,3108,-94,65,-122
7.776,7.38,-1.43,-13.64,13.32,-5.70,4.17,-0.18,1.33,nan,nan,406.00,1906.00,336.00,624.00,688.00,2495.00,0.00,1311.00,,,,,,,,,,,,0,0,0,,-384,15968,3140,-124,241,-98
7.86,7.43,-1.34,-14.93,22.13,-1.88,-0.42,0.20,0.81,nan,nan,258.00,1584.00,402.00,607.00,703.00,2493.00,0.00,1231.00,,,,,,,,,,,,0,0,0,,-332,16004,2960,-88,228,-166
7.878,7.49,-1.47,17.92,-16.19,-1.62,-1.84,-3.77,4.31,nan,nan,1130.00,1207.00,432.00,624.00,625.00,2655.00,0.00,1680.00,,,,,,,,,,,,0,0,0,,-440,15892,2800,-44,26,-223
7.941,7.54,-1.59,-20.08,14.13,-12.37,6.41,-4.00,7.13,nan,nan,437.00,2407.00,336.00,765.00,539.00,2485.00,0.00,1323.00,,,,,,,,,,,,0,0,0,,-476,16072,2924,-78,115,-184
8.002,7.60,-1.24,inf,inf,-8.00,9.47,5.53,-4.64,nan,nan,0.00,1601.00,263.00,593.00,857.00,2337.00,0.00,986.00,,,,,,,,,,,,0,0,0,,-432,15904,2920,-57,184,-176
8.043,7.66,-1.46,36.03,-26.63,13.59,-11.85,-5.75,5.01,nan,nan,1430.00,780.00,563.00,447.00,624.00,2818.00,0.00,1874.00,,,,,,,,,,,,0,0,0,,-580,15832,2892,-73,112,-171
8.126,7.71,-1.76,-20.64,11.65,-18.30,8.41,-7.45,12.37,nan,nan,505.00,2630.00,336.00,917.00,432.00,2474.00,0.00,1337.00,,,,,,,,,,,,0,0,0,,-440,15932,2976,-173,79,-115
8.167,7.76,-1.37,inf,inf,-14.54,17.57,6.09,-6.00,nan,nan,0.00,1717.00,191.00,618.00,913.00,2370.00,0.00,1066.00,,,,,,,,,,,,0,0,0,,-512,15844,3024,-235,191,-103
8.32,7.82,-1.50,17.62,-15.19,8.80,-10.85,-4.08,3.72,nan,nan,1076.00,1189.00,582.00,526.00,649.00,2731.00,0.00,1590.00,,,,,,,,,,,,0,0,0,,-360,15996,2944,-110,176,-106
8.338,7.87,-1.64,-8.70,4.61,-14.76,7.50,-4.24,7.07,nan,nan,595.00,1981.00,331.00,817.00,543.00,2512.00,0.00,1376.00,,,,,,,,,,,,0,0,0,,-460,15948,3036,-63,182,-33
8.359,7.93,-1.48,-23.96,29.69,-8.39,9.04,1.68,-1.18,nan,nan,202.00,1849.00,271.00,609.00,762.00,2480.00,0.00,1269.00,,,,,,,,,,,,0,0,0,,-444,15964,2960,-165,95,-183
8.379,7.99,-1.45,-8.83,13.17,-2.68,0.07,-0.91,2.18,nan,nan,375.00,1582.00,397.00,618.00,666.00,2511.00,0.00,1299.00,,,,,,,,,,,,0,0,0,,-364,15988,3012,-80,71,-174
8.441,8.04,-1.51,11.79,-10.44,-4.83,1.65,-2.61,3.63,nan,nan,925.00,1318.00,379.00,645.00,635.00,2583.00,0.00,1585.00,,,,,,,,,,,,0,0,0,,-392,15916,3120,-7,119,-123
8.501,8.10,-1.56,-19.40,13.99,-11.67,6.12,-2.66,5.38,nan,nan,435.00,2352.00,337.00,750.00,578.00,2469.00,0.00,1282.00,,,,,,,,,,,,0,0,0,,-480,15964,2988,-111,225,-136
8.583,8.15,-1.25,inf,inf,-5.93,6.03,4.79,-3.83,nan,nan,0.00,1584.00,305.00,599.00,831.00,2354.00,0.00,913.00,,,,,,,,,,,,0,0,0,,-412,16028,2852,-120,144,-152
8.603,8.21,-1.41,32.88,-24.84,9.98,-9.49,-4.48,4.32,nan,nan,1374.00,842.00,529.00,484.00,633.00,2730.00,0.00,1692.00,,,,,,,,,,,,0,0,0,,-484,15896,3048,-99,191,-113
8.665,8.26,-1.70,-22.01,13.55,-17.29,8.46,-7.24,12.17,nan,nan,467.00,2638.00,329.00,880.00,435.00,2467.00,0.00,1215.00,,,,,,,,,,,,0,0,0,,-396,16056,2880,-82,191,-151
8.708,8.32,-1.24,inf,inf,-14.73,19.15,7.57,-7.19,nan,nan,0.00,1655.00,176.00,597.00,948.00,2308.00,0.00,863.00,,,,,,,,,,,,0,0,0,,-388,15920,3028,-82,142,-191
8.767,8.37,-1.39,24.65,-20.40,13.59,-13.24,-4.36,3.87,nan,nan,1255.00,1035.00,607.00,464.00,647.00,2750.00,0.00,1597.00,,,,,,,,,,,,0,0,0,,-376,15884,3028,-106,37,-145
8.828,8.43,-1.53,-9.96,4.18,-15.60,7.12,-4.24,7.52,nan,nan,623.00,2106.00,343.00,853.00,530.00,2482.00,0.00,1296.00,,,,,,,,,,,,0,0,0,,-372,15944,3096,-120,135,-151
8.89,8.48,-1.27,-34.21,46.87,-8.46,10.34,3.71,-3.06,nan,nan,96.00,1749.00,253.00,590.00,813.00,2407.00,0.00,1117.00,,,,,,,,,,,,0,0,0,,-520,16028,3000,-134,123,-163
8.971,8.54,-1.29,1.19,1.22,3.06,-5.63,-1.73,2.68,nan,nan,597.00,1467.00,487.00,574.00,658.00,2559.00,0.00,1335.00,,,,,,,,,,,,0,0,0,,-396,15984,3020,-93,54,-156
8.992,8.59,-1.34,6.66,-6.55,-7.48,3.55,-2.17,3.34,nan,nan,823.00,1455.00,359.00,681.00,640.00,2558.00,0.00,1489.00,,,,,,,,,,,,0,0,0,,-356,16056,3012,-73,198,-130
9.075,8.65,-1.35,-17.24,13.39,-8.17,4.84,-1.60,3.62,nan,nan,432.00,2194.00,339.00,676.00,624.00,2483.00,0.00,1274.00,,,,,,,,,,,,0,0,0,,-276,15888,2928,-137,148,-192
9.096,8.70,-1.09,inf,inf,-3.64,3.10,3.84,-2.90,nan,nan,0.00,1568.00,343.00,592.00,804.00,2384.00,0.00,1062.00,,,,,,,,,,,,0,0,0,,-444,15848,2984,-26,88,-172
9.158,8.76,-1.24,30.67,-23.52,7.45,-7.48,-4.13,4.29,nan,nan,1332.00,887.00,497.00,507.00,630.00,2695.00,0.00,1708.00,,,,,,,,,,,,0,0,0,,-396,15880,3028,-34,179,-109
9.198,8.81,-1.50,-20.83,13.32,-14.48,7.12,-6.47,11.29,nan,nan,463.00,2534.00,336.00,816.00,450.00,2450.00,0.00,1266.00,,,,,,,,,,,,0,0,0,,-304,15908,3040,-73,205,-214
9.26,8.87,-1.00,inf,inf,-13.96,18.89,8.53,-7.81,nan,nan,0.00,1615.00,176.00,583.00,963.00,2259.00,0.00,882.00,,,,,,,,,,,,0,0,0,,-172,15976,2808,-15,15,-206
9.343,8.92,-1.22,33.26,-25.44,17.85,-15.36,-5.31,4.51,nan,nan,1410.00,843.00,630.00,415.00,636.00,2807.00,0.00,1715.00,,,,,,,,,,,,0,0,0,,-448,16028,2992,43,56,-221
9.383,8.98,-1.37,-13.38,7.00,-15.78,7.56,-4.18,7.46,nan,nan,569.00,2235.00,336.00,849.00,531.00,2480.00,0.00,1328.00,,,,,,,,,,,,0,0,0,,-468,15824,3016,-21,157,-219
9.425,9.03,-1.06,-42.52,60.64,-7.64,10.21,4.76,-3.93,nan,nan,53.00,1680.00,251.00,573.00,836.00,2363.00,0.00,1075.00,,,,,,,,,,,,0,0,0,,-436,15744,2756,-150,188,-105
9.485,9.09,-1.15,8.25,-4.67,7.64,-7.77,-2.76,3.34,nan,nan,722.00,1299.00,503.00,507.00,647.00,2619.00,0.00,1392.00,,,,,,,,,,,,0,0,0,,-424,15960,2904,-132,140,-93
9.566,9.14,-1.15,3.47,-3.79,-8.46,4.61,-1.32,2.77,nan,nan,751.00,1533.00,345.00,688.00,650.00,2512.00,0.00,1424.00,,,,,,,,,,,,0,0,0,,-436,15980,3120,-66,86,-110
9.587,9.20,-1.14,-14.58,12.24,-5.84,3.73,-0.91,2.40,nan,nan,438.00,2037.00,345.00,635.00,658.00,2496.00,0.00,1273.00,,,,,,,,,,,,0,0,0,,-348,15976,2984,-110,185,-71
9.689,9.25,-0.94,inf,inf,-3.05,1.60,2.83,-2.35,nan,nan,0.00,1569.00,368.00,602.00,795.00,2445.00,0.00,1125.00,,,,,,,,,,,,0,0,0,,-388,16084,2836,-104,159,-188
9.73,9.31,-1.10,25.74,-21.01,3.44,-5.33,-3.97,4.00,nan,nan,1272.00,1008.00,476.00,561.00,638.00,2699.00,0.00,1712.00,,,,,,,,,,,,0,0,0,,-412,16124,2796,-114,84,-58
9.771,9.36,-1.31,-20.35,13.12,-13.79,7.17,-5.45,9.34,nan,nan,464.00,2500.00,331.00,793.00,491.00,2480.00,0.00,1313.00,,,,,,,,,,,,0,0,0,,-412,15956,3036,-138,61,-201
9.813,9.41,-0.85,inf,inf,-12.36,16.08,7.85,-6.93,nan,nan,0.00,1600.00,199.00,590.00,930.00,2267.00,0.00,897.00,,,,,,,,,,,,0,0,0,,-496,15980,3092,-50,318,-190
9.876,9.47,-1.06,38.51,-28.78,19.31,-16.14,-4.96,4.39,nan,nan,1535.00,749.00,640.00,400.00,636.00,2777.00,0.00,1764.00,,,,,,,,,,,,0,0,0,,-356,15880,2844,-66,222,-109
9.917,9.53,-1.28,-15.46,8.06,-16.61,7.84,-5.42,9.55,nan,nan,558.00,2359.00,336.00,871.00,485.00,2463.00,0.00,1317.00,,,,,,,,,,,,0,0,0,,-384,15864,2960,-171,158,-111
9.978,9.58,-0.95,-50.51,71.52,-8.68,10.34,5.31,-4.61,nan,nan,34.00,1721.00,254.00,595.00,859.00,2355.00,0.00,1070.00,,,,,,,,,,,,0,0,0,,-344,16100,2924,-129,56,-160
10.081,9.64,-1.06,13.94,-9.71,10.56,-9.65,-3.27,3.97,nan,nan,855.00,1187.00,528.00,475.00,631.00,2627.00,0.00,1421.00,,,,,,,,,,,,0,0,0,,-364,15896,3048,-104,21,-198
10.102,9.69,-1.12,-1.71,-0.40,-11.81,6.73,-2.12,4.30,nan,nan,687.00,1718.00,327.00,742.00,607.00,2488.00,0.00,1378.00,,,,,,,,,,,,0,0,0,,-440,15996,2848,-105,76,-225
10.143,9.75,-1.07,-13.03,11.80,-4.61,3.53,-0.17,1.57,nan,nan,436.00,1938.00,341.00,608.00,679.00,2478.00,0.00,1264.00,,,,,,,,,,,,0,0,0,,-484,15808,3052,-151,157,-173
10.207,9.80,-0.94,-22.91,35.08,-1.64,0.34,1.48,-0.57,nan,nan,148.00,1535.00,384.00,589.00,740.00,2459.00,0.00,1162.00,,,,,,,,,,,,0,0,0,,-356,16008,2940,-131,51,-166
10.267,9.86,-1.07,21.77,-19.09,1.28,-4.10,-3.55,3.95,nan,nan,1232.00,1120.00,463.00,591.00,635.00,2658.00,0.00,1661.00,,,,,,,,,,,,0,0,0,,-448,15860,3184,-85,44,-165
10.33,9.91,-1.26,-20.28,13.78,-12.45,6.39,-4.76,8.37,nan,nan,447.00,2449.00,337.00,768.00,511.00,2477.00,0.00,1277.00,,,,,,,,,,,,0,0,0,,-424,15872,3012,-110,110,-157
10.436,9.97,-0.86,inf,inf,-9.48,11.66,6.72,-5.88,nan,nan,0.00,1600.00,240.00,593.00,897.00,2305.00,0.00,918.00,,,,,,,,,,,,0,0,0,,-356,15980,2868,-106,165,-119
10.456,10.02,-1.09,38.38,-28.73,17.01,-14.39,-5.45,4.35,nan,nan,1535.00,752.00,607.00,418.00,643.00,2834.00,0.00,1809.00,,,,,,,,,,,,0,0,0,,-384,16012,2888,-94,248,-75
10.476,10.08,-1.38,-18.43,10.08,-17.86,8.54,-7.02,11.68,nan,nan,528.00,2513.00,331.00,898.00,445.00,2478.00,0.00,1296.00,,,,,,,,,,,,0,0,0,,-372,16064,2992,-149,37,-211
10.538,10.13,-1.01,inf,inf,-11.73,14.97,6.02,-5.61,nan,nan,0.00,1701.00,209.00,593.00,895.00,2352.00,0.00,1072.00,,,,,,,,,,,,0,0,0,,-384,15928,2900,-78,34,-197
10.578,10.19,-1.15,16.41,-12.13,10.77,-10.57,-3.82,4.30,nan,nan,932.00,1149.00,553.00,483.00,626.00,2661.00,0.00,1488.00,,,,,,,,,,,,0,0,0,,-412,15904,3060,-55,143,-124
10.641,10.24,-1.24,-4.89,2.53,-13.43,8.08,-2.89,6.05,nan,nan,621.00,1801.00,313.00,763.00,560.00,2448.00,0.00,1356.00,,,,,,,,,,,,0,0,0,,-256,16028,2936,-163,271,-118
10.705,10.30,-1.14,-14.36,15.38,-4.49,4.66,0.77,0.64,nan,nan,368.00,1856.00,320.00,587.00,702.00,2448.00,0.00,1280.00,,,,,,,,,,,,0,0,0,,-360,16056,3052,-22,114,-155
10.744,10.35,-1.07,-13.65,21.63,-0.67,-1.29,0.33,1.08,nan,nan,259.00,1526.00,412.00,592.00,691.00,2462.00,0.00,1197.00,,,,,,,,,,,,0,0,0,,-392,15936,3024,-60,66,-129
10.806,10.41,-1.18,17.99,-15.81,-1.39,-0.91,-3.32,4.10,nan,nan,1105.00,1191.00,409.00,603.00,627.00,2623.00,0.00,1635.00,,,,,,,,,,,,0,0,0,,-512,15900,3032,-137,171,-102
10.845,10.46,-1.30,-19.34,13.55,-11.24,6.09,-3.49,6.82,nan,nan,445.00,2374.00,335.00,738.00,543.00,2455.00,0.00,1259.00,,,,,,,,,,,,0,0,0,,-280,16008,2824,-143,177,-134
10.907,10.52,-0.93,inf,inf,-8.24,10.71,6.10,-5.01,nan,nan,0.00,1580.00,247.00,579.00,865.00,2307.00,0.00,931.00,,,,,,,,,,,,0,0,0,,-420,15960,3000,-139,68,-118
10.969,10.57,-1.15,36.89,-27.08,14.98,-12.19,-5.40,4.80,nan,nan,1442.00,763.00,559.00,427.00,627.00,2795.00,0.00,1831.00,,,,,,,,,,,,0,0,0,,-344,15980,2928,-90,109,-134
11.05,10.63,-1.45,-20.00,11.29,-18.23,9.00,-7.14,12.10,nan,nan,509.00,2589.00,325.00,900.00,436.00,2462.00,0.00,1318.00,,,,,,,,,,,,0,0,0,,-344,15904,3068,-100,181,-141
11.09,10.68,-1.06,inf,inf,-13.89,18.35,6.37,-6.07,nan,nan,0.00,1689.00,181.00,590.00,912.00,2349.00,0.00,1077.00,,,,,,,,,,,,0,0,0,,-232,15908,3108,-113,130,-113
11.173,10.74,-1.21,18.02,-14.96,10.85,-10.99,-4.05,4.20,nan,nan,1055.00,1163.00,565.00,487.00,632.00,2693.00,0.00,1581.00,,,,,,,,,,,,0,0,0,,-300,15940,2964,-114,117,-185
11.193,10.79,-1.32,-7.89,4.36,-13.96,7.85,-3.51,6.62,nan,nan,594.00,1931.00,320.00,784.00,549.00,2470.00,0.00,1374.00,,,,,,,,,,,,0,0,0,,-248,15968,2788,-126,130,-158
11.234,10.85,-1.18,-20.76,25.05,-7.40,8.64,1.54,-0.49,nan,nan,245.00,1845.00,272.00,592.00,736.00,2448.00,0.00,1265.00,,,,,,,,,,,,0,0,0,,-324,16092,3120,-167,137,-121
11.295,10.90,-1.15,-9.72,15.61,-0.63,-1.35,-0.51,2.16,nan,nan,334.00,1535.00,413.00,592.00,662.00,2473.00,0.00,1234.00,,,,,,,,,,,,0,0,0,,-284,15832,3048,25,100,-186
11.357,10.96,-1.22,14.56,-12.40,-4.06,1.94,-2.54,3.87,nan,nan,978.00,1245.00,368.00,621.00,626.00,2559.00,0.00,1588.00,,,,,,,,,,,,0,0,0,,-376,16012,2856,-43,122,-168
11.419,11.01,-1.29,-19.25,14.02,-11.57,6.93,-2.66,5.94,nan,nan,433.00,2336.00,322.00,731.00,561.00,2433.00,0.00,1258.00,,,,,,,,,,,,0,0,0,,-400,15940,2896,-68,105,-209
11.541,11.07,-0.93,inf,inf,-7.14,8.90,5.83,-4.35,nan,nan,0.00,1535.00,267.00,582.00,839.00,2291.00,0.00,958.00,,,,,,,,,,,,0,0,0,,-372,16004,3088,-60,37,-172
11.561,11.12,-1.11,35.34,-25.91,13.22,-10.54,-4.55,4.61,nan,nan,1392.00,786.00,528.00,438.00,624.00,2717.00,0.00,1760.00,,,,,,,,,,,,0,0,0,,-376,15920,2936,-68,140,-196
11.582,11.18,-1.42,-21.23,12.60,-18.35,9.27,-7.30,12.80,nan,nan,485.00,2625.00,321.00,898.00,421.00,2432.00,0.00,1269.00,,,,,,,,,,,,0,0,0,,-420,15956,2868,-71,118,-213
11.623,11.23,-0.97,inf,inf,-15.82,21.51,7.56,-6.86,nan,nan,0.00,1658.00,158.00,585.00,931.00,2288.00,0.00,978.00,,,,,,,,,,,,0,0,0,,-444,15960,2880,-57,17,-172
11.686,11.29,-1.12,20.15,-17.03,11.85,-12.62,-3.81,4.15,nan,nan,1135.00,1130.00,606.00,489.00,631.00,2671.00,0.00,1578.00,,,,,,,,,,,,0,0,0,,-328,15896,2980,-203,116,-140
11.747,11.34,-1.24,-8.75,4.81,-14.21,7.93,-3.61,7.31,nan,nan,589.00,1974.00,320.00,790.00,530.00,2435.00,0.00,1334.00,,,,,,,,,,,,0,0,0,,-440,15928,2988,-210,157,-155
11.809,11.40,-1.03,-25.14,32.63,-8.38,10.53,3.05,-2.16,nan,nan,176.00,1790.00,250.00,585.00,784.00,2412.00,0.00,1219.00,,,,,,,,,,,,0,0,0,,-384,15872,2940,-114,156,-68
11.912,11.45,-0.99,-6.55,10.54,-0.10,-2.57,-0.36,1.56,nan,nan,415.00,1552.00,437.00,599.00,682.00,2498.00,0.00,1281.00,,,,,,,,,,,,0,0,0,,-304,16008,2868,-51,112,-155
11.932,11.51,-1.05,11.33,-9.90,-4.88,2.67,-2.24,3.45,nan,nan,906.00,1323.00,359.00,629.00,637.00,2558.00,0.00,1535.00,,,,,,,,,,,,0,0,0,,-388,15800,2888,23,89,-27
12.013,11.56,-1.11,-19.29,13.99,-11.35,6.46,-2.08,4.93,nan,nan,434.00,2341.00,329.00,734.00,586.00,2442.00,0.00,1291.00,,,,,,,,,,,,0,0,0,,-356,15972,2884,-139,41,-209
12.033,11.62,-0.79,inf,inf,-5.97,6.54,5.31,-3.96,nan,nan,0.00,1567.00,297.00,592.00,829.00,2314.00,0.00,1008.00,,,,,,,,,,,,0,0,0,,-380,15900,2912,-102,203,-124
12.054,11.67,-0.95,34.52,-25.44,11.67,-9.84,-4.09,4.45,nan,nan,1378.00,802.00,523.00,457.00,624.00,2679.00,0.00,1749.00,,,,,,,,,,,,0,0,0,,-232,15860,2848,-120,183,-70
12.136,11.73,-1.25,-21.54,13.08,-17.81,9.26,-6.90,12.62,nan,nan,475.00,2623.00,318.00,879.00,422.00,2405.00,0.00,1255.00,,,,,,,,,,,,0,0,0,,-304,15996,2944,-86,209,-106
12.197,11.78,-0.77,inf,inf,-13.65,19.21,8.32,-7.03,nan,nan,0.00,1622.00,172.00,571.00,927.00,2231.00,0.00,931.00,,,,,,,,,,,,0,0,0,,-272,15956,2796,-52,129,-171
12.279,11.84,-0.91,23.32,-19.32,13.25,-12.97,-3.66,3.98,nan,nan,1213.00,1060.00,602.00,467.00,635.00,2667.00,0.00,1577.00,,,,,,,,,,,,0,0,0,,-292,16004,2928,-103,81,-182
12.299,11.89,-1.04,-9.47,5.30,-14.51,8.32,-3.51,7.55,nan,nan,581.00,2004.00,315.00,791.00,522.00,2409.00,0.00,1294.00,,,,,,,,,,,,0,0,0,,-272,15952,3052,-98,166,-195
12.36,11.95,-0.81,-31.86,43.23,-8.61,11.52,3.69,-2.21,nan,nan,112.00,1757.00,238.00,575.00,777.00,2355.00,0.00,1170.00,,,,,,,,,,,,0,0,0,,-436,15828,2864,-113,136,-227
12.423,12.00,-0.81,-3.73,7.09,1.22,-3.18,-0.93,2.84,nan,nan,475.00,1522.00,441.00,578.00,643.00,2469.00,0.00,1281.00,,,,,,,,,,,,0,0,0,,-436,15880,3036,-118,40,-112
12.463,12.06,-0.84,10.30,-8.55,-6.38,4.24,-1.39,3.13,nan,nan,858.00,1329.00,339.00,640.00,638.00,2494.00,0.00,1492.00,,,,,,,,,,,,0,0,0,,-332,15944,3152,-125,98,-126
12.524,12.11,-0.89,-19.38,14.67,-10.70,6.52,-1.71,4.78,nan,nan,419.00,2307.00,324.00,714.00,587.00,2417.00,0.00,1259.00,,,,,,,,,,,,0,0,0,,-324,15856,3136,-74,143,-129
12.587,12.16,-0.58,inf,inf,-5.27,5.69,5.16,-3.64,nan,nan,0.00,1559.00,307.00,589.00,817.00,2308.00,0.00,1014.00,,,,,,,,,,,,0,0,0,,-380,16020,3044,-120,158,-104
12.649,12.22,-0.77,33.00,-24.70,10.30,-8.63,-4.24,4.50,nan,nan,1361.00,835.00,502.00,467.00,624.00,2691.00,0.00,1718.00,,,,,,,,,,,,0,0,0,,-384,15820,2988,-104,79,-216
12.671,12.28,-1.09,-21.44,13.01,-17.45,9.55,-7.15,12.66,nan,nan,476.00,2617.00,311.00,860.00,423.00,2426.00,0.00,1267.00,,,,,,,,,,,,0,0,0,,-300,16076,2992,-67,84,-181
12.732,12.33,-0.60,inf,inf,-16.79,22.19,8.58,-7.42,nan,nan,0.00,1644.00,155.00,597.00,942.00,2231.00,0.00,918.00,,,,,,,,,,,,0,0,0,,-344,15928,3072,-109,150,-110
12.773,12.39,-0.76,25.84,-20.45,14.78,-13.18,-3.80,4.21,nan,nan,1232.00,989.00,592.00,442.00,629.00,2666.00,0.00,1594.00,,,,,,,,,,,,0,0,0,,-356,15916,2932,-13,144,-92
12.835,12.44,-0.91,-9.52,4.88,-14.78,8.07,-3.77,8.32,nan,nan,595.00,2031.00,321.00,805.00,503.00,2384.00,0.00,1287.00,,,,,,,,,,,,0,0,0,,-284,15940,2968,-27,213,-80
12.896,12.50,-0.65,-33.98,47.18,-11.24,13.19,4.33,-2.52,nan,nan,94.00,1719.00,228.00,610.00,781.00,2315.00,0.00,1117.00,,,,,,,,,,,,0,0,0,,-344,15896,3016,-43,159,-133
12.936,12.55,-0.67,-1.25,4.91,2.80,-4.53,-1.09,3.29,nan,nan,511.00,1463.00,461.00,563.00,629.00,2454.00,0.00,1249.00,,,,,,,,,,,,0,0,0,,-260,15952,2860,-86,30,-190
13.039,12.61,-0.71,9.61,-7.94,-6.92,4.97,-1.39,3.54,nan,nan,841.00,1344.00,329.00,641.00,624.00,2467.00,0.00,1438.00,,,,,,,,,,,,0,0,0,,-292,16064,3112,-161,127,-115
13.06,12.66,-0.73,-18.27,13.95,-9.54,6.36,-1.14,4.52,nan,nan,427.00,2251.00,320.00,685.00,589.00,2379.00,0.00,1213.00,,,,,,,,,,,,0,0,0,,-256,15984,2952,-150,180,-163
13.101,12.72,-0.44,inf,inf,-4.54,5.45,5.05,-3.23,nan,nan,0.00,1535.00,307.00,576.00,801.00,2293.00,0.00,995.00,,,,,,,,,,,,0,0,0,,-264,15916,2924,-102,76,-135
13.163,12.77,-0.63,34.10,-24.96,10.44,-8.67,-4.19,4.97,nan,nan,1353.00,805.00,502.00,465.00,608.00,2653.00,0.00,1681.00,,,,,,,,,,,,0,0,0,,-384,15980,3124,-129,80,-157
13.227,12.83,-0.93,-21.12,13.37,-16.15,8.65,-6.71,12.38,nan,nan,464.00,2559.00,319.00,837.00,426.00,2402.00,0.00,1266.00,,,,,,,,,,,,0,0,0,,-336,15924,2996,-135,178,-157
13.267,12.88,-0.45,inf,inf,-15.41,22.33,8.75,-7.55,nan,nan,0.00,1630.00,150.00,563.00,946.00,2224.00,0.00,921.00,,,,,,,,,,,,0,0,0,,-344,16016,3076,-93,163,-149
13.37,12.94,-0.64,27.39,-21.67,15.87,-13.76,-4.20,4.34,nan,nan,1279.00,961.00,599.00,430.00,629.00,2699.00,0.00,1631.00,,,,,,,,,,,,0,0,0,,-216,15988,2920,-59,102,-144
13.41,12.99,-0.81,-10.57,5.55,-15.03,8.21,-4.03,8.27,nan,nan,585.00,2080.00,320.00,810.00,507.00,2413.00,0.00,1297.00,,,,,,,,,,,,0,0,0,,-248,16028,3008,-73,83,-189
13.431,13.05,-0.57,-38.12,52.74,-8.59,12.14,3.89,-2.47,nan,nan,75.00,1744.00,230.00,565.00,785.00,2352.00,0.00,1124.00,,,,,,,,,,,,0,0,0,,-272,16004,2936,-102,205,-148
13.493,13.10,-0.61,0.22,2.69,3.33,-5.38,-1.39,3.43,nan,nan,561.00,1465.00,478.00,564.00,628.00,2475.00,0.00,1243.00,,,,,,,,,,,,0,0,0,,-228,15980,2980,-154,172,-122
13.555,13.16,-0.65,8.61,-7.43,-6.54,4.18,-1.29,3.51,nan,nan,833.00,1379.00,341.00,645.00,624.00,2459.00,0.00,1413.00,,,,,,,,,,,,0,0,0,,-324,15932,2876,-69,118,-167
13.617,13.21,-0.69,-18.47,14.59,-8.76,5.70,-1.44,4.91,nan,nan,414.00,2231.00,327.00,676.00,580.00,2383.00,0.00,1213.00,,,,,,,,,,,,0,0,0,,-244,15992,3000,-102,176,-138
13.657,13.27,-0.39,inf,inf,-3.45,4.03,5.15,-3.22,nan,nan,0.00,1530.00,325.00,573.00,799.00,2283.00,0.00,977.00,,,,,,,,,,,,0,0,0,,-204,15904,2880,-111,167,-191
13.739,13.32,-0.58,34.07,-25.01,10.39,-8.43,-4.13,5.28,nan,nan,1357.00,807.00,496.00,463.00,597.00,2624.00,0.00,1668.00,,,,,,,,,,,,0,0,0,,-284,15988,2900,-55,18,-178
13.779,13.38,-0.92,-21.26,13.58,-15.65,8.53,-7.47,13.80,nan,nan,460.00,2559.00,318.00,823.00,400.00,2383.00,0.00,1243.00,,,,,,,,,,,,0,0,0,,-356,15960,3144,-98,123,-130
13.822,13.43,-0.42,inf,inf,-14.68,21.12,9.12,-7.64,nan,nan,0.00,1635.00,158.00,565.00,944.00,2197.00,0.00,881.00,,,,,,,,,,,,0,0,0,,-364,15920,3064,-136,211,-167
13.882,13.49,-0.60,28.15,-22.01,16.72,-14.23,-4.04,4.47,nan,nan,1285.00,941.00,605.00,421.00,623.00,2673.00,0.00,1606.00,,,,,,,,,,,,0,0,0,,-260,16000,3060,-101,52,-146
13.944,13.54,-0.78,-10.46,5.57,-15.15,8.25,-4.11,8.59,nan,nan,583.00,2069.00,320.00,813.00,499.00,2400.00,0.00,1278.00,,,,,,,,,,,,0,0,0,,-208,16032,3088,-113,12,-177
14.005,13.60,-0.54,-40.06,56.04,-9.39,13.31,4.01,-2.27,nan,nan,65.00,1724.00,219.00,565.00,775.00,2329.00,0.00,1125.00,,,,,,,,,,,,0,0,0,,-332,15920,3020,-102,195,-97
14.046,13.65,-0.58,0.33,2.69,3.08,-4.74,-1.36,3.30,nan,nan,560.00,1459.00,464.00,560.00,632.00,2480.00,0.00,1279.00,,,,,,,,,,,,0,0,0,,-256,15904,3036,-71,195,-67
14.107,13.71,-0.65,9.14,-7.94,-7.33,4.72,-1.90,3.92,nan,nan,848.00,1369.00,336.00,656.00,617.00,2492.00,0.00,1471.00,,,,,,,,,,,,0,0,0,,-300,15984,3068,-60,146,-98
14.169,13.76,-0.70,-18.67,14.17,-9.24,5.98,-1.64,4.60,nan,nan,425.00,2274.00,325.00,684.00,592.00,2422.00,0.00,1297.00,,,,,,,,,,,,0,0,0,,-280,16036,2880,-75,-22,-285
14.229,13.82,-0.43,inf,inf,-4.33,4.50,4.61,-3.02,nan,nan,0.00,1562.00,322.00,586.00,798.00,2320.00,0.00,1061.00,,,,,,,,,,,,0,0,0,,-208,16164,2880,-34,110,-137
14.271,13.87,-0.63,34.12,-25.46,9.83,-8.72,-4.49,5.22,nan,nan,1389.00,815.00,509.00,477.00,603.00,2666.00,0.00,1712.00,,,,,,,,,,,,0,0,0,,-200,15888,3084,-138,177,-153
14.333,13.93,-0.98,-21.82,13.65,-16.08,8.28,-7.46,13.66,nan,nan,463.00,2612.00,325.00,843.00,403.00,2391.00,0.00,1270.00,,,,,,,,,,,,0,0,0,,-268,15700,2872,-91,187,-116
14.396,13.98,-0.49,inf,inf,-14.47,20.03,8.64,-7.20,nan,nan,0.00,1620.00,167.00,577.00,930.00,2213.00,0.00,922.00,,,,,,,,,,,,0,0,0,,-300,15944,3000,-54,145,-87
14.48,14.04,-0.68,28.94,-22.45,16.03,-13.91,-4.16,4.65,nan,nan,1297.00,923.00,602.00,429.00,618.00,2672.00,0.00,1615.00,,,,,,,,,,,,0,0,0,,-124,15904,2908,-136,161,-116
14.499,14.09,-0.85,-11.50,6.63,-14.58,8.06,-4.16,8.83,nan,nan,561.00,2096.00,320.00,799.00,493.00,2389.00,0.00,1294.00,,,,,,,,,,,,0,0,0,,-164,16064,2976,-90,99,-223
14.54,14.15,-0.60,-40.92,57.20,-9.39,13.31,4.11,-2.31,nan,nan,62.00,1729.00,219.00,565.00,775.00,2322.00,0.00,1136.00,,,,,,,,,,,,0,0,0,,-216,16080,3084,-89,206,-161
14.621,14.20,-0.64,-1.05,4.31,2.21,-4.45,-1.22,3.28,nan,nan,526.00,1475.00,464.00,575.00,631.00,2468.00,0.00,1299.00,,,,,,,,,,,,0,0,0,,-356,15892,2884,-74,151,-239
14.705,14.26,-0.71,9.88,-8.32,-6.59,4.14,-2.08,4.28,nan,nan,854.00,1343.00,342.00,647.00,607.00,2485.00,0.00,1479.00,,,,,,,,,,,,0,0,0,,-316,15820,2940,-87,54,-160
14.724,14.31,-0.78,-19.34,14.75,-9.83,6.46,-2.11,5.23,nan,nan,417.00,2299.00,320.00,691.00,577.00,2426.00,0.00,1269.00,,,,,,,,,,,,0,0,0,,-212,15944,3092,-161,78,-117
14.764,14.37,-0.50,inf,inf,-5.32,5.77,4.81,-3.08,nan,nan,0.00,1553.00,306.00,589.00,798.00,2306.00,0.00,1034.00,,,,,,,,,,,,0,0,0,,-252,15988,3040,-201,202,-95
14.848,14.42,-0.71,35.10,-25.78,10.19,-8.70,-4.65,5.27,nan,nan,1389.00,791.00,505.00,470.00,603.00,2679.00,0.00,1712.00,,,,,,,,,,,,0,0,0,,-156,15820,2984,-164,144,-110
14.87,14.48,-1.08,-22.47,13.99,-17.30,9.32,-8.11,14.01,nan,nan,460.00,2656.00,314.00,860.00,400.00,2430.00,0.00,1296.00,,,,,,,,,,,,0,0,0,,-220,15928,2984,-122,49,-108
14.973,14.53,-0.61,inf,inf,-16.83,22.93,8.22,-7.31,nan,nan,0.00,1650.00,149.00,586.00,943.00,2257.00,0.00,982.00,,,,,,,,,,,,0,0,0,,-236,15856,3004,-78,55,-208
14.993,14.59,-0.79,26.62,-21.50,14.24,-13.31,-4.16,4.21,nan,nan,1285.00,986.00,602.00,453.00,633.00,2704.00,0.00,1654.00,,,,,,,,,,,,0,0,0,,-308,15988,2868,-91,117,-175
15.035,14.64,-0.97,-10.83,5.99,-15.30,8.48,-4.46,8.81,nan,nan,574.00,2077.00,317.00,813.00,496.00,2418.00,0.00,1337.00,,,,,,,,,,,,0,0,0,,-300,15948,3220,-166,203,-81
15.096,14.70,-0.74,-37.08,50.75,-9.38,12.65,3.67,-2.07,nan,nan,82.00,1766.00,227.00,575.00,771.00,2347.00,0.00,1178.00,,,,,,,,,,,,0,0,0,,-312,15836,3200,-19,149,-66
15.157,14.75,-0.77,-4.02,7.74,1.10,-3.84,-1.25,3.38,nan,nan,461.00,1513.00,458.00,591.00,628.00,2464.00,0.00,1280.00,,,,,,,,,,,,0,0,0,,-196,16028,3116,-124,188,-94
15.219,14.81,-0.81,11.41,-9.53,-6.58,4.41,-1.75,3.69,nan,nan,887.00,1306.00,337.00,642.00,623.00,2492.00,0.00,1511.00,,,,,,,,,,,,0,0,0,,-112,15868,3056,-125,176,-90
15.279,14.86,-0.88,-20.20,14.99,-10.90,6.20,-2.19,5.62,nan,nan,418.00,2363.00,331.00,726.00,566.00,2409.00,0.00,1246.00,,,,,,,,,,,,0,0,0,,-248,15848,2968,-105,45,-191
15.339,14.91,-0.58,inf,inf,-4.98,5.90,5.24,-3.44,nan,nan,0.00,1557.00,302.00,579.00,807.00,2288.00,0.00,994.00,,,,,,,,,,,,0,0,0,,-216,16076,2956,-87,82,-143
15.359,14.97,-0.79,36.49,-26.60,11.30,-9.29,-4.83,5.49,nan,nan,1415.00,765.00,511.00,457.00,598.00,2683.00,0.00,1707.00,,,,,,,,,,,,0,0,0,,-180,15932,3020,-104,141,-181
15.42,15.03,-1.15,-22.92,13.98,-18.11,9.54,-7.92,13.86,nan,nan,464.00,2704.00,315.00,883.00,402.00,2422.00,0.00,1293.00,,,,,,,,,,,,0,0,0,,-160,15944,2884,-111,93,-126
15.481,15.08,-0.69,inf,inf,-16.44,22.67,7.97,-6.91,nan,nan,0.00,1668.00,150.00,581.00,927.00,2255.00,0.00,968.00,,,,,,,,,,,,0,0,0,,-236,15892,2912,-107,105,-124
15.582,15.14,-0.87,22.33,-18.83,12.24,-12.04,-4.24,4.59,nan,nan,1203.00,1088.00,583.00,474.00,621.00,2685.00,0.00,1600.00,,,,,,,,,,,,0,0,0,,-220,16024,3148,-131,142,-144
15.603,15.19,-1.06,-9.70,5.10,-15.25,8.40,-4.70,8.90,nan,nan,590.00,2034.00,318.00,813.00,496.00,2436.00,0.00,1328.00,,,,,,,,,,,,0,0,0,,-204,15972,3012,-85,148,-162
15.645,15.25,-0.87,-30.74,40.39,-9.08,11.75,2.69,-1.59,nan,nan,128.00,1814.00,237.00,582.00,765.00,2409.00,0.00,1215.00,,,,,,,,,,,,0,0,0,,-132,15796,3004,-116,103,-149
15.707,15.30,-0.90,-7.11,10.90,-0.69,-2.37,-1.51,3.20,nan,nan,411.00,1571.00,437.00,610.00,637.00,2501.00,0.00,1293.00,,,,,,,,,,,,0,0,0,,-176,15800,3084,-123,116,-196
15.769,15.36,-1.01,12.35,-11.00,-5.41,2.39,-2.98,4.53,nan,nan,944.00,1309.00,368.00,647.00,609.00,2559.00,0.00,1535.00,,,,,,,,,,,,0,0,0,,-184,15960,2824,-142,176,-176
15.811,15.41,-1.09,-20.49,14.91,-12.06,7.15,-2.63,5.76,nan,nan,422.00,2395.00,321.00,741.00,566.00,2441.00,0.00,1326.00,,,,,,,,,,,,0,0,0,,-228,15888,3040,-151,184,-94
15.874,15.47,-0.79,inf,inf,-7.46,8.66,4.79,-3.49,nan,nan,0.00,1572.00,272.00,593.00,816.00,2333.00,0.00,991.00,,,,,,,,,,,,0,0,0,,-176,15860,2972,-14,125,-139
15.996,15.52,-1.00,36.51,-26.72,12.26,-10.22,-4.90,5.20,nan,nan,1424.00,767.00,528.00,451.00,608.00,2711.00,0.00,1746.00,,,,,,,,,,,,0,0,0,,-160,16000,3076,-40,149,-121
16.036,15.58,-1.36,-22.97,13.96,-18.91,9.52,-8.18,14.08,nan,nan,465.00,2711.00,320.00,912.00,399.00,2432.00,0.00,1286.00,,,,,,,,,,,,0,0,0,,-168,15976,2852,-94,123,-178
16.056,15.63,-0.92,inf,inf,-15.70,21.58,7.40,-6.36,nan,nan,0.00,1662.00,157.00,581.00,909.00,2272.00,0.00,1008.00,,,,,,,,,,,,0,0,0,,-124,15952,3056,-119,70,-191
16.098,15.69,-1.07,20.87,-17.83,10.54,-11.59,-3.97,4.86,nan,nan,1170.00,1122.00,587.00,501.00,609.00,2637.00,0.00,1570.00,,,,,,,,,,,,0,0,0,,-232,15944,3092,-87,165,-113
16.159,15.74,-1.26,-8.91,5.02,-15.60,9.47,-4.85,9.21,nan,nan,584.00,1975.00,302.00,801.00,489.00,2430.00,0.00,1326.00,,,,,,,,,,,,0,0,0,,-216,15980,3008,-80,170,-152
16.2,15.80,-1.11,-25.79,32.85,-8.77,10.66,1.73,-0.38,nan,nan,176.00,1826.00,250.00,592.00,729.00,2422.00,0.00,1233.00,,,,,,,,,,,,0,0,0,,-216,15936,2888,-110,55,-146
16.302,15.85,-1.11,-10.52,15.88,-1.15,-1.26,-1.10,2.92,nan,nan,334.00,1573.00,415.00,603.00,642.00,2480.00,0.00,1265.00,,,,,,,,,,,,0,0,0,,-56,15932,3104,-191,96,-138
16.323,15.91,-1.23,14.35,-12.59,-4.79,1.89,-3.45,4.66,nan,nan,992.00,1262.00,374.00,640.00,610.00,2598.00,0.00,1600.00,,,,,,,,,,,,0,0,0,,-100,16016,3140,-176,225,-131
16.386,15.96,-1.35,-20.79,14.75,-12.91,7.21,-3.60,6.89,nan,nan,428.00,2434.00,325.00,765.00,542.00,2461.00,0.00,1291.00,,,,,,,,,,,,0,0,0,,-228,16024,3092,-74,153,-138
16.427,16.01,-1.01,inf,inf,-7.76,9.18,5.30,-4.02,nan,nan,0.00,1600.00,266.00,592.00,832.00,2319.00,0.00,1005.00,,,,,,,,,,,,0,0,0,,-184,15884,3004,-97,128,-121
16.467,16.07,-1.26,37.46,-27.23,12.92,-11.03,-5.94,5.67,nan,nan,1439.00,749.00,545.00,449.00,604.00,2789.00,0.00,1841.00,,,,,,,,,,,,0,0,0,,-268,16068,3048,-99,102,-212
16.527,16.12,-1.63,-22.35,13.01,-19.88,9.90,-8.73,14.13,nan,nan,484.00,2713.00,319.00,938.00,402.00,2483.00,0.00,1343.00,,,,,,,,,,,,0,0,0,,-188,16104,3000,-49,202,-63
16.608,16.18,-1.24,inf,inf,-16.25,20.52,6.19,-5.69,nan,nan,0.00,1710.00,168.00,611.00,896.00,2341.00,0.00,1084.00,,,,,,,,,,,,0,0,0,,-92,16000,3208,-130,167,-134
16.651,16.23,-1.41,18.65,-15.47,10.06,-10.89,-4.58,5.19,nan,nan,1072.00,1150.00,570.00,501.00,605.00,2678.00,0.00,1563.00,,,,,,,,,,,,0,0,0,,-228,15840,2976,-52,155,-165
16.69,16.29,-1.57,-7.88,4.33,-15.43,8.99,-4.62,8.54,nan,nan,595.00,1932.00,309.00,806.00,505.00,2452.00,0.00,1408.00,,,,,,,,,,,,0,0,0,,-76,16000,2880,-80,119,-92
16.752,16.34,-1.46,-20.61,24.40,-7.67,8.60,0.70,0.66,nan,nan,253.00,1866.00,274.00,599.00,702.00,2453.00,0.00,1275.00,,,,,,,,,,,,0,0,0,,-204,15776,3064,-178,89,-192
16.793,16.40,-1.41,-13.43,20.65,-2.07,-0.45,-0.58,2.32,nan,nan,272.00,1553.00,404.00,612.00,657.00,2469.00,0.00,1239.00,,,,,,,,,,,,0,0,0,,-192,15948,3104,-171,47,-204
16.856,16.45,-1.53,17.24,-15.25,-2.67,-0.30,-3.78,4.80,nan,nan,1087.00,1209.00,405.00,624.00,609.00,2622.00,0.00,1639.00,,,,,,,,,,,,0,0,0,,-144,16020,2964,-54,203,-138
16.918,16.51,-1.66,-20.54,14.46,-12.35,6.68,-4.08,7.71,nan,nan,433.00,2430.00,331.00,759.00,523.00,2454.00,0.00,1299.00,,,,,,,,,,,,0,0,0,,-172,15892,2996,-74,162,-208
16.979,16.57,-1.30,inf,inf,-8.88,10.70,5.50,-4.02,nan,nan,0.00,1599.00,250.00,594.00,829.00,2301.00,0.00,1001.00,,,,,,,,,,,,0,0,0,,-172,15844,2832,-78,71,-168
17.042,16.62,-1.55,39.10,-28.23,14.81,-12.19,-6.25,5.75,nan,nan,1474.00,721.00,561.00,430.00,605.00,2818.00,0.00,1855.00,,,,,,,,,,,,0,0,0,,-176,15964,2900,-114,14,-159
17.063,16.67,-1.90,-20.53,11.50,-19.18,9.26,-8.65,14.01,nan,nan,508.00,2629.00,326.00,928.00,404.00,2483.00,0.00,1369.00,,,,,,,,,,,,0,0,0,,-280,15996,2984,-158,115,-141
17.124,16.73,-1.53,inf,inf,-14.11,17.43,5.50,-5.35,nan,nan,0.00,1745.00,191.00,610.00,891.00,2384.00,0.00,1138.00,,,,,,,,,,,,0,0,0,,-24,15944,2996,-136,156,-148
17.187,16.78,-1.70,16.62,-13.37,9.38,-10.34,-4.90,5.24,nan,nan,993.00,1178.00,560.00,507.00,607.00,2709.00,0.00,1553.00,,,,,,,,,,,,0,0,0,,-272,16036,2980,-49,101,-173
17.251,16.84,-1.85,-6.37,3.00,-14.95,9.07,-4.69,7.63,nan,nan,622.00,1886.00,305.00,789.00,531.00,2519.00,0.00,1404.00,,,,,,,,,,,,0,0,0,,-224,15748,3072,2,111,-105
17.334,16.89,-1.78,-15.86,16.19,-6.85,5.98,-0.48,1.76,nan,nan,362.00,1927.00,311.00,622.00,676.00,2496.00,0.00,1314.00,,,,,,,,,,,,0,0,0,,-224,15960,2960,-84,70,-277
17.416,16.95,-1.71,-18.95,28.28,-2.59,-0.05,-0.24,1.65,nan,nan,199.00,1575.00,399.00,618.00,677.00,2480.00,0.00,1239.00,,,,,,,,,,,,0,0,0,,-164,15896,3152,-54,222,-109
17.436,17.00,-1.82,20.02,-17.84,-1.27,-1.70,-4.08,5.05,nan,nan,1189.00,1161.00,426.00,613.00,604.00,2635.00,0.00,1649.00,,,,,,,,,,,,0,0,0,,-172,15848,2928,-14,193,-82
17.477,17.06,-2.01,-21.05,14.67,-13.13,7.06,-5.64,9.86,nan,nan,432.00,2465.00,329.00,775.00,479.00,2464.00,0.00,1296.00,,,,,,,,,,,,0,0,0,,-184,16028,2944,-1,130,-147
17.518,17.11,-1.61,inf,inf,-10.10,11.94,6.09,-4.64,nan,nan,0.00,1614.00,239.00,603.00,848.00,2285.00,0.00,958.00,,,,,,,,,,,,0,0,0,,-128,16004,3100,-61,79,-112
17.561,17.17,-1.84,39.85,-29.23,15.61,-13.55,-6.31,5.83,nan,nan,1535.00,719.00,595.00,432.00,603.00,2819.00,0.00,1807.00,,,,,,,,,,,,0,0,0,,-196,15888,3044,-93,101,-208
17.622,17.23,-2.14,-18.82,10.08,-19.19,9.84,-7.78,12.70,nan,nan,532.00,2553.00,316.00,914.00,427.00,2485.00,0.00,1326.00,,,,,,,,,,,,0,0,0,,-232,15996,2940,-78,160,-192
17.685,17.28,-1.78,inf,inf,-12.66,15.10,5.02,-4.41,nan,nan,0.00,1745.00,211.00,613.00,854.00,2369.00,0.00,1107.00,,,,,,,,,,,,0,0,0,,-164,15996,2908,-93,101,-178
17.786,17.33,-1.92,15.41,-11.77,10.02,-10.45,-4.57,5.25,nan,nan,931.00,1184.00,557.00,496.00,603.00,2673.00,0.00,1505.00,,,,,,,,,,,,0,0,0,,-224,15944,2936,-107,59,-149
17.806,17.39,-2.00,-4.11,0.95,-14.68,8.86,-3.54,6.27,nan,nan,667.00,1822.00,307.00,785.00,560.00,2497.00,0.00,1405.00,,,,,,,,,,,,0,0,0,,-228,15948,3132,-160,90,-115
17.867,17.44,-1.94,-14.06,12.75,-5.34,3.94,-0.67,2.07,nan,nan,422.00,1968.00,338.00,619.00,667.00,2494.00,0.00,1319.00,,,,,,,,,,,,0,0,0,,-244,16044,3096,-169,167,-134
17.887,17.50,-1.82,-30.09,44.18,-3.50,1.11,0.38,0.75,nan,nan,103.00,1597.00,381.00,621.00,703.00,2479.00,0.00,1238.00,,,,,,,,,,,,0,0,0,,-152,15844,2984,-84,125,-159
17.95,17.55,-1.96,21.40,-19.30,0.35,-3.79,-4.59,5.07,nan,nan,1255.00,1143.00,463.00,608.00,609.00,2688.00,0.00,1665.00,,,,,,,,,,,,0,0,0,,-136,15792,3188,-120,69,-204
18.011,17.61,-2.15,-20.80,13.51,-14.38,7.76,-5.86,9.70,nan,nan,458.00,2518.00,324.00,799.00,485.00,2496.00,0.00,1301.00,,,,,,,,,,,,0,0,0,,-84,15976,2876,-231,136,-205
18.072,17.66,-1.73,inf,inf,-11.17,12.85,6.39,-5.19,nan,nan,0.00,1625.00,232.00,614.00,869.00,2292.00,0.00,950.00,,,,,,,,,,,,0,0,0,,-244,16056,3040,-195,170,-125
18.154,17.72,-1.96,39.18,-29.77,17.33,-15.30,-6.29,5.86,nan,nan,1600.00,749.00,634.00,423.00,602.00,2815.00,0.00,1781.00,,,,,,,,,,,,0,0,0,,-220,15984,3116,-13,184,-142
18.174,17.77,-2.22,-17.34,9.00,-18.28,8.46,-7.27,12.01,nan,nan,549.00,2478.00,335.00,915.00,439.00,2480.00,0.00,1311.00,,,,,,,,,,,,0,0,0,,-172,15892,3044,-94,235,-119
18.236,17.83,-1.86,-63.15,89.69,-10.69,11.83,5.00,-4.21,nan,nan,16.00,1743.00,243.00,619.00,845.00,2358.00,0.00,1085.00,,,,,,,,,,,,0,0,0,,-200,15972,3020,-124,145,-95
18.298,17.89,-2.00,14.12,-10.21,8.70,-9.40,-4.58,5.65,nan,nan,876.00,1195.00,539.00,508.00,590.00,2645.00,0.00,1458.00,,,,,,,,,,,,0,0,0,,-212,15996,3004,-107,39,-209
18.357,17.94,-2.04,-0.95,-1.40,-13.96,8.14,-2.78,5.14,nan,nan,715.00,1712.00,315.00,778.00,587.00,2497.00,0.00,1390.00,,,,,,,,,,,,0,0,0,,-72,15916,3012,-75,75,-174
18.419,18.00,-1.99,-14.65,13.04,-5.64,4.15,-1.22,3.02,nan,nan,420.00,1999.00,336.00,623.00,640.00,2485.00,0.00,1251.00,,,,,,,,,,,,0,0,0,,-300,15924,2956,-99,169,-237
18.439,18.05,-1.82,inf,inf,-3.21,1.65,1.56,-0.47,nan,nan,0.00,1574.00,368.00,605.00,735.00,2445.00,0.00,1247.00,,,,,,,,,,,,0,0,0,,-200,15836,2820,-125,55,-194
18.542,18.10,-1.95,24.45,-20.73,1.42,-4.30,-4.55,5.09,nan,nan,1283.00,1053.00,467.00,591.00,608.00,2682.00,0.00,1644.00,,,,,,,,,,,,0,0,0,,-148,15984,3136,-204,2,-122
18.562,18.16,-2.18,-21.32,13.93,-14.90,7.88,-6.42,10.67,nan,nan,452.00,2542.00,325.00,813.00,465.00,2487.00,0.00,1267.00,,,,,,,,,,,,0,0,0,,-224,15896,3100,-142,152,-173
18.624,18.21,-1.70,inf,inf,-12.88,15.80,7.27,-6.52,nan,nan,0.00,1645.00,204.00,607.00,919.00,2294.00,0.00,936.00,,,,,,,,,,,,0,0,0,,-136,15912,3080,-128,87,-131
18.667,18.27,-1.94,37.49,-28.89,17.71,-15.60,-6.50,5.80,nan,nan,1573.00,782.00,640.00,420.00,606.00,2842.00,0.00,1771.00,,,,,,,,,,,,0,0,0,,-200,16132,3224,-47,73,-195
18.729,18.32,-2.18,-15.45,7.16,-17.69,8.37,-6.65,10.59,nan,nan,586.00,2416.00,333.00,896.00,469.00,2515.00,0.00,1328.00,,,,,,,,,,,,0,0,0,,-172,16028,3148,44,156,-119
18.79,18.38,-1.85,-55.93,79.02,-10.36,11.95,4.49,-3.75,nan,nan,25.00,1744.00,240.00,609.00,832.00,2377.00,0.00,1075.00,,,,,,,,,,,,0,0,0,,-268,15768,3104,-106,83,-202
18.915,18.43,-1.97,11.10,-7.71,8.20,-8.89,-4.23,5.22,nan,nan,808.00,1259.00,529.00,511.00,600.00,2639.00,0.00,1394.00,,,,,,,,,,,,0,0,0,,-352,15856,3124,-83,67,-229
18.955,18.49,-1.97,3.00,-3.80,-11.17,6.91,-2.02,4.08,nan,nan,758.00,1562.00,320.00,720.00,613.00,2493.00,0.00,1358.00,,,,,,,,,,,,0,0,0,,-244,15884,3076,-60,103,-83
18.975,18.55,-1.94,-15.25,12.72,-6.63,4.43,-1.35,3.53,nan,nan,432.00,2065.00,337.00,643.00,624.00,2464.00,0.00,1203.00,,,,,,,,,,,,0,0,0,,-104,15968,2952,-97,204,-193
19.016,18.60,-1.70,inf,inf,-4.30,2.89,2.73,-1.56,nan,nan,0.00,1575.00,351.00,611.00,763.00,2403.00,0.00,1047.00,,,,,,,,,,,,0,0,0,,-84,16012,2892,-9,61,-163
19.077,18.66,-1.85,29.60,-22.98,3.84,-5.39,-4.59,5.31,nan,nan,1319.00,912.00,474.00,553.00,601.00,2670.00,0.00,1593.00,,,,,,,,,,,,0,0,0,,-176,15984,3088,-26,67,-157
19.099,18.71,-2.12,-21.50,13.99,-15.08,8.05,-7.22,12.30,nan,nan,452.00,2556.00,323.00,815.00,432.00,2457.00,0.00,1231.00,,,,,,,,,,,,0,0,0,,-196,15920,2964,-34,138,-247
19.182,18.76,-1.60,inf,inf,-14.57,19.09,8.25,-7.34,nan,nan,0.00,1622.00,176.00,594.00,944.00,2256.00,0.00,855.00,,,,,,,,,,,,0,0,0,,-184,15888,2904,-73,49,-196
19.243,18.82,-1.81,35.98,-27.73,17.58,-15.59,-5.73,5.42,nan,nan,1519.00,805.00,641.00,422.00,610.00,2785.00,0.00,1621.00,,,,,,,,,,,,0,0,0,,-280,15956,2904,-138,101,-118
19.265,18.87,-1.98,-13.61,6.16,-16.98,8.13,-5.37,9.12,nan,nan,598.00,2307.00,333.00,877.00,496.00,2486.00,0.00,1261.00,,,,,,,,,,,,0,0,0,,-252,15932,3136,-144,153,-107
19.326,18.93,-1.67,-63.22,89.72,-9.94,12.20,4.22,-3.25,nan,nan,16.00,1747.00,235.00,595.00,814.00,2371.00,0.00,1040.00,,,,,,,,,,,,0,0,0,,-200,15928,2980,-99,99,-94
19.387,18.98,-1.75,6.88,-3.51,5.82,-7.01,-3.24,4.19,nan,nan,695.00,1329.00,499.00,534.00,623.00,2608.00,0.00,1317.00,,,,,,,,,,,,0,0,0,,-112,16064,2964,-65,48,-204
19.449,19.04,-1.79,5.73,-6.01,-9.08,5.31,-2.45,4.23,nan,nan,813.00,1488.00,336.00,692.00,613.00,2526.00,0.00,1361.00,,,,,,,,,,,,0,0,0,,-272,16032,3044,-43,89,-89
19.491,19.09,-1.81,-16.60,12.75,-7.88,4.79,-2.17,4.59,nan,nan,442.00,2176.00,338.00,669.00,598.00,2474.00,0.00,1200.00,,,,,,,,,,,,0,0,0,,-156,15896,3140,-160,51,-175
19.551,19.15,-1.56,inf,inf,-4.04,3.50,3.12,-1.78,nan,nan,0.00,1559.00,338.00,595.00,767.00,2381.00,0.00,1006.00,,,,,,,,,,,,0,0,0,,-280,15892,3064,-103,132,-150
19.614,19.20,-1.72,33.29,-24.87,6.99,-6.80,-4.86,5.68,nan,nan,1366.00,829.00,483.00,507.00,592.00,2672.00,0.00,1600.00,,,,,,,,,,,,0,0,0,,-52,15968,3096,-67,142,-124
19.675,19.26,-2.02,-21.80,13.60,-15.81,8.59,-7.67,13.37,nan,nan,464.00,2613.00,318.00,827.00,411.00,2430.00,0.00,1175.00,,,,,,,,,,,,0,0,0,,-52,15924,3108,-97,151,-220
19.716,19.32,-1.50,inf,inf,-16.52,22.10,8.50,-7.43,nan,nan,0.00,1623.00,155.00,592.00,944.00,2239.00,0.00,823.00,,,,,,,,,,,,0,0,0,,-220,16084,2956,-89,81,-230
19.756,19.37,-1.68,32.04,-24.99,16.15,-14.52,-5.15,5.35,nan,nan,1407.00,874.00,621.00,434.00,606.00,2727.00,0.00,1535.00,,,,,,,,,,,,0,0,0,,-172,15988,3056,-41,122,-159
19.818,19.42,-1.84,-10.99,4.97,-15.36,7.70,-4.81,9.05,nan,nan,608.00,2147.00,331.00,832.00,493.00,2437.00,0.00,1214.00,,,,,,,,,,,,0,0,0,,-172,16000,2944,-17,114,-214
19.881,19.48,-1.56,-53.26,75.38,-10.10,13.39,3.76,-2.45,nan,nan,29.00,1730.00,221.00,580.00,786.00,2363.00,0.00,1022.00,,,,,,,,,,,,0,0,0,,-212,15908,2964,-71,104,-165
20.003,19.53,-1.60,1.62,1.35,2.62,-4.98,-2.35,4.13,nan,nan,588.00,1437.00,474.00,574.00,615.00,2522.00,0.00,1199.00,,,,,,,,,,,,0,0,0,,-316,15872,3004,-155,64,-113
20.024,19.59,-1.66,9.06,-8.04,-7.93,5.08,-2.84,4.82,nan,nan,854.00,1377.00,333.00,665.00,598.00,2525.00,0.00,1386.00,,,,,,,,,,,,0,0,0,,-72,15996,3096,-157,116,-131
20.045,19.64,-1.70,-19.43,14.73,-10.18,6.18,-2.58,5.55,nan,nan,418.00,2308.00,327.00,706.00,572.00,2450.00,0.00,1184.00,,,,,,,,,,,,0,0,0,,-132,16008,3244,-76,164,-115
20.108,19.70,-1.42,inf,inf,-5.13,4.37,4.01,-2.63,nan,nan,0.00,1577.00,329.00,607.00,790.00,2351.00,0.00,943.00,,,,,,,,,,,,0,0,0,,-220,15988,3008,-39,115,-218
20.171,19.75,-1.60,34.35,-25.74,9.42,-8.59,-5.02,5.21,nan,nan,1405.00,814.00,509.00,483.00,609.00,2723.00,0.00,1616.00,,,,,,,,,,,,0,0,0,,-212,16040,2768,-47,133,-109
20.273,19.81,-1.93,-21.96,12.73,-17.94,9.25,-8.20,14.05,nan,nan,488.00,2692.00,319.00,884.00,400.00,2437.00,0.00,1167.00,,,,,,,,,,,,0,0,0,,-104,15936,2956,-230,140,-100
20.294,19.86,-1.43,inf,inf,-18.11,24.25,8.04,-6.94,nan,nan,0.00,1648.00,142.00,595.00,927.00,2250.00,0.00,843.00,,,,,,,,,,,,0,0,0,,-172,15868,3124,-90,124,-125
20.355,19.92,-1.58,25.02,-20.43,12.89,-12.45,-4.51,5.07,nan,nan,1249.00,1021.00,589.00,467.00,608.00,2679.00,0.00,1451.00,,,,,,,,,,,,0,0,0,,-16,15948,2964,-51,189,-90
20.375,19.98,-1.74,-10.47,6.16,-15.58,8.74,-4.81,9.50,nan,nan,565.00,2038.00,314.00,816.00,481.00,2407.00,0.00,1167.00,,,,,,,,,,,,0,0,0,,-24,15892,2964,-59,208,-125
20.459,20.03,-1.51,-31.29,41.77,-10.47,13.43,2.85,-1.28,nan,nan,120.00,1787.00,222.00,588.00,750.00,2374.00,0.00,1053.00,,,,,,,,,,,,0,0,0,,-160,15968,3172,-34,86,-184
20.481,20.08,-1.50,-7.45,12.27,-1.05,-1.47,-1.26,3.32,nan,nan,384.00,1535.00,419.00,604.00,630.00,2469.00,0.00,1125.00,,,,,,,,,,,,0,0,0,,-156,15924,2864,-85,110,-150
20.54,20.14,-1.58,12.81,-10.88,-5.82,3.40,-3.00,4.90,nan,nan,930.00,1281.00,351.00,640.00,597.00,2535.00,0.00,1383.00,,,,,,,,,,,,0,0,0,,-68,16024,2860,-176,124,-165
20.602,20.19,-1.65,-20.69,15.29,-11.65,6.84,-3.09,6.58,nan,nan,415.00,2390.00,324.00,735.00,546.00,2432.00,0.00,1111.00,,,,,,,,,,,,0,0,0,,-116,15888,2992,-142,81,-164
20.664,20.25,-1.31,inf,inf,-7.16,8.29,5.16,-3.45,nan,nan,0.00,1567.00,276.00,592.00,809.00,2297.00,0.00,835.00,,,,,,,,,,,,0,0,0,,-240,15968,3020,-159,124,-168
20.725,20.30,-1.53,38.84,-28.05,13.00,-10.81,-5.70,6.06,nan,nan,1467.00,725.00,538.00,445.00,589.00,2735.00,0.00,1598.00,,,,,,,,,,,,0,0,0,,-192,15832,3112,-104,166,-139
20.787,20.36,-1.89,-22.65,13.26,-20.24,10.91,-8.69,14.63,nan,nan,480.00,2727.00,304.00,926.00,391.00,2446.00,0.00,1151.00,,,,,,,,,,,,0,0,0,,-152,15940,3100,-84,139,-147
20.828,20.41,-1.46,inf,inf,-17.16,23.04,6.65,-5.82,nan,nan,0.00,1698.00,149.00,592.00,895.00,2307.00,0.00,885.00,,,,,,,,,,,,0,0,0,,-188,15852,3068,-41,106,-182
20.868,20.47,-1.61,19.83,-16.76,10.30,-10.88,-4.48,5.03,nan,nan,1125.00,1136.00,567.00,496.00,609.00,2679.00,0.00,1398.00,,,,,,,,,,,,0,0,0,,-168,16064,2992,-62,176,-148
20.93,20.52,-1.77,-8.50,4.82,-15.59,9.59,-4.67,8.89,nan,nan,586.00,1954.00,300.00,798.00,496.00,2434.00,0.00,1183.00,,,,,,,,,,,,0,0,0,,-272,15856,3036,-104,114,-136
21.012,20.58,-1.63,-21.88,26.35,-8.49,10.13,0.97,0.76,nan,nan,233.00,1862.00,256.00,594.00,695.00,2421.00,0.00,1107.00,,,,,,,,,,,,0,0,0,,-80,15840,2984,-9,98,-142
21.031,20.64,-1.57,-14.99,23.49,-1.03,-0.76,-0.43,2.75,nan,nan,240.00,1531.00,403.00,592.00,640.00,2426.00,0.00,1056.00,,,,,,,,,,,,0,0,0,,-212,15876,2988,-14,244,-76
21.115,20.69,-1.66,18.84,-15.72,-2.37,0.54,-3.42,5.17,nan,nan,1083.00,1149.00,385.00,603.00,593.00,2559.00,0.00,1421.00,,,,,,,,,,,,0,0,0,,-40,15956,2728,-77,217,-132
21.135,20.75,-1.81,-21.07,15.07,-12.55,7.38,-4.63,9.21,nan,nan,423.00,2441.00,320.00,751.00,487.00,2409.00,0.00,1085.00,,,,,,,,,,,,0,0,0,,-76,16040,2956,-124,53,-143
21.196,20.80,-1.41,inf,inf,-9.21,11.56,6.19,-4.27,nan,nan,0.00,1566.00,240.00,588.00,830.00,2254.00,0.00,783.00,,,,,,,,,,,,0,0,0,,-120,16088,3128,-168,103,-95
21.256,20.85,-1.65,42.68,-29.99,15.78,-12.49,-6.15,6.27,nan,nan,1519.00,656.00,560.00,417.00,587.00,2768.00,0.00,1631.00,,,,,,,,,,,,0,0,0,,-60,16084,3120,-73,184,-200
21.338,20.91,-1.93,-20.12,11.51,-19.06,9.74,-7.34,12.99,nan,nan,504.00,2586.00,317.00,912.00,417.00,2423.00,0.00,1136.00,,,,,,,,,,,,0,0,0,,-96,15948,2864,33,97,-173
21.358,20.96,-1.54,inf,inf,-13.18,16.73,5.97,-5.07,nan,nan,0.00,1712.00,195.00,599.00,870.00,2323.00,0.00,919.00,,,,,,,,,,,,0,0,0,,-152,16012,2952,-28,82,-164
21.459,21.02,-1.69,17.21,-12.93,10.31,-9.73,-4.66,5.83,nan,nan,959.00,1137.00,533.00,481.00,585.00,2640.00,0.00,1326.00,,,,,,,,,,,,0,0,0,,-124,15872,2872,-83,122,-174
21.481,21.07,-1.79,-4.53,1.86,-14.02,8.76,-3.54,6.97,nan,nan,640.00,1808.00,305.00,767.00,539.00,2450.00,0.00,1232.00,,,,,,,,,,,,0,0,0,,-52,15944,2956,-101,117,-90
21.521,21.13,-1.71,-13.85,13.35,-5.51,5.30,-0.30,2.23,nan,nan,407.00,1921.00,315.00,601.00,657.00,2448.00,0.00,1151.00,,,,,,,,,,,,0,0,0,,-120,16116,2936,-57,166,-103
21.583,21.18,-1.60,inf,inf,-2.19,0.52,0.59,1.16,nan,nan,0.00,1553.00,384.00,599.00,685.00,2432.00,0.00,1054.00,,,,,,,,,,,,0,0,0,,-216,15804,2848,69,163,15
21.645,21.24,-1.73,23.10,-20.24,0.58,-3.25,-4.29,5.40,nan,nan,1280.00,1096.00,448.00,594.00,595.00,2633.00,0.00,1481.00,,,,,,,,,,,,0,0,0,,-116,15940,2960,-98,38,-221
21.729,21.30,-1.94,-20.37,13.20,-13.54,7.71,-5.87,10.64,nan,nan,462.00,2496.00,320.00,774.00,461.00,2435.00,0.00,1119.00,,,,,,,,,,,,0,0,0,,-80,15884,3056,-93,167,-163
21.749,21.35,-1.48,inf,inf,-12.25,15.86,7.26,-5.44,nan,nan,0.00,1585.00,201.00,591.00,867.00,2229.00,0.00,783.00,,,,,,,,,,,,0,0,0,,-144,15940,2756,-96,143,-71
21.831,21.41,-1.71,42.01,-30.78,18.82,-15.42,-6.14,6.24,nan,nan,1605.00,688.00,621.00,400.00,588.00,2769.00,0.00,1595.00,,,,,,,,,,,,0,0,0,,-20,15984,2880,-119,173,-96
21.851,21.46,-1.98,-16.98,9.35,-18.41,9.52,-7.15,12.53,nan,nan,535.00,2420.00,317.00,894.00,426.00,2435.00,0.00,1167.00,,,,,,,,,,,,0,0,0,,-48,16100,2864,-52,74,-165
21.912,21.51,-1.62,inf,inf,-10.08,12.72,5.34,-4.03,nan,nan,0.00,1731.00,229.00,590.00,832.00,2316.00,0.00,942.00,,,,,,,,,,,,0,0,0,,-168,16004,3004,-17,63,-203
21.971,21.57,-1.75,14.08,-9.49,8.23,-6.60,-4.36,5.86,nan,nan,843.00,1174.00,467.00,480.00,581.00,2607.00,0.00,1292.00,,,,,,,,,,,,0,0,0,,-80,15944,2864,22,117,-246
22.032,21.62,-1.78,0.51,-1.78,-11.68,7.14,-2.21,4.79,nan,nan,711.00,1633.00,319.00,730.00,592.00,2464.00,0.00,1233.00,,,,,,,,,,,,0,0,0,,-144,15936,2844,-40,66,-230
22.096,21.68,-1.74,-13.98,12.04,-5.06,4.01,-0.99,3.32,nan,nan,438.00,2000.00,335.00,611.00,627.00,2443.00,0.00,1122.00,,,,,,,,,,,,0,0,0,,-68,15916,2828,-129,78,-156
22.136,21.73,-1.52,inf,inf,-2.96,1.72,2.65,-1.58,nan,nan,0.00,1553.00,365.00,598.00,765.00,2412.00,0.00,999.00,,,,,,,,,,,,0,0,0,,-56,15892,3028,-96,177,-154
22.197,21.79,-1.66,28.21,-22.41,3.54,-4.82,-4.41,5.22,nan,nan,1312.00,949.00,462.00,551.00,602.00,2658.00,0.00,1507.00,,,,,,,,,,,,0,0,0,,-28,15920,2844,-14,163,-207
22.26,21.84,-1.92,-21.29,13.63,-14.60,7.95,-6.78,11.73,nan,nan,459.00,2559.00,322.00,802.00,442.00,2452.00,0.00,1155.00,,,,,,,,,,,,0,0,0,,-96,16028,2912,23,78,-173
22.32,21.90,-1.41,inf,inf,-13.82,18.95,8.26,-7.31,nan,nan,0.00,1626.00,175.00,579.00,942.00,2253.00,0.00,816.00,,,,,,,,,,,,0,0,0,,-152,16008,2948,28,154,-66
22.382,21.95,-1.63,37.90,-28.57,18.59,-15.64,-5.86,5.68,nan,nan,1535.00,763.00,631.00,406.00,603.00,2780.00,0.00,1573.00,,,,,,,,,,,,0,0,0,,-140,15796,2876,-71,105,-263
22.403,22.01,-1.82,-14.43,6.94,-17.15,8.81,-5.29,9.59,nan,nan,582.00,2334.00,322.00,867.00,483.00,2448.00,0.00,1185.00,,,,,,,,,,,,0,0,0,,-196,15852,2864,-64,121,-188
22.463,22.07,-1.49,-67.09,96.33,-9.92,12.99,4.71,-3.21,nan,nan,12.00,1705.00,225.00,582.00,805.00,2323.00,0.00,944.00,,,,,,,,,,,,0,0,0,,-208,15864,2796,-67,151,-73
22.564,22.12,-1.57,8.31,-4.35,7.77,-7.52,-3.06,4.65,nan,nan,709.00,1285.00,495.00,501.00,606.00,2559.00,0.00,1223.00,,,,,,,,,,,,0,0,0,,-44,16008,2772,-160,222,-102
22.585,22.17,-1.58,5.27,-4.81,-9.25,6.21,-1.87,4.18,nan,nan,768.00,1467.00,321.00,680.00,608.00,2471.00,0.00,1261.00,,,,,,,,,,,,0,0,0,,-116,16064,2844,-120,113,-119
22.646,22.23,-1.59,-16.10,13.00,-7.67,5.62,-1.76,4.45,nan,nan,432.00,2119.00,322.00,649.00,598.00,2443.00,0.00,1146.00,,,,,,,,,,,,0,0,0,,-200,15952,2980,-43,50,-216
22.709,22.28,-1.35,inf,inf,-3.88,3.45,3.27,-1.79,nan,nan,0.00,1553.00,338.00,592.00,765.00,2367.00,0.00,951.00,,,,,,,,,,,,0,0,0,,-168,15972,2988,-18,111,-196
22.73,22.34,-1.53,32.25,-24.48,7.57,-6.92,-4.93,5.80,nan,nan,1363.00,855.00,481.00,497.00,589.00,2671.00,0.00,1535.00,,,,,,,,,,,,0,0,0,,-240,15976,2836,-50,114,-178
22.789,22.39,-1.85,-21.40,13.11,-16.03,8.78,-7.99,13.56,nan,nan,473.00,2606.00,316.00,830.00,409.00,2448.00,0.00,1155.00,,,,,,,,,,,,0,0,0,,-128,16012,2840,-64,55,-121
22.871,22.45,-1.35,inf,inf,-16.35,22.04,8.18,-7.32,nan,nan,0.00,1627.00,155.00,589.00,944.00,2261.00,0.00,811.00,,,,,,,,,,,,0,0,0,,-140,15964,2864,-141,113,-120
22.954,22.50,-1.56,32.41,-25.20,17.12,-14.82,-5.47,5.30,nan,nan,1413.00,866.00,620.00,421.00,611.00,2765.00,0.00,1499.00,,,,,,,,,,,,0,0,0,,-80,15924,2864,-163,179,-106
22.974,22.56,-1.73,-10.94,4.63,-16.21,8.55,-5.10,9.11,nan,nan,619.00,2163.00,321.00,841.00,494.00,2461.00,0.00,1185.00,,,,,,,,,,,,0,0,0,,-72,15932,2736,-121,137,-90
23.015,22.61,-1.47,-41.04,56.66,-9.65,12.99,3.47,-2.35,nan,nan,64.00,1763.00,224.00,576.00,786.00,2384.00,0.00,997.00,,,,,,,,,,,,0,0,0,,-100,15800,2976,-41,114,-111
23.077,22.67,-1.52,0.76,1.64,2.39,-5.10,-2.36,3.90,nan,nan,588.00,1475.00,479.00,581.00,623.00,2539.00,0.00,1170.00,,,,,,,,,,,,0,0,0,,-212,16052,2844,-106,109,-248
23.136,22.73,-1.57,9.20,-8.64,-7.55,4.20,-2.50,4.46,nan,nan,880.00,1392.00,347.00,671.00,606.00,2515.00,0.00,1330.00,,,,,,,,,,,,0,0,0,,-60,16012,2904,-102,147,-146
23.179,22.78,-1.62,-18.54,13.28,-10.31,6.00,-2.59,5.65,nan,nan,445.00,2317.00,331.00,713.00,569.00,2445.00,0.00,1111.00,,,,,,,,,,,,0,0,0,,-96,15952,2896,-57,115,-78
23.239,22.83,-1.32,inf,inf,-6.04,6.01,4.35,-2.65,nan,nan,0.00,1571.00,306.00,602.00,786.00,2321.00,0.00,881.00,,,,,,,,,,,,0,0,0,,-92,16044,2796,-155,214,-115
23.301,22.89,-1.51,35.73,-26.43,10.00,-8.82,-5.17,5.72,nan,nan,1422.00,785.00,510.00,475.00,594.00,2702.00,0.00,1569.00,,,,,,,,,,,,0,0,0,,-80,16032,2896,-132,115,-151
23.362,22.94,-1.87,-23.01,13.77,-17.70,8.94,-8.68,14.63,nan,nan,470.00,2729.00,323.00,883.00,391.00,2445.00,0.00,1152.00,,,,,,,,,,,,0,0,0,,-116,15988,3052,-129,94,-138
23.402,23.00,-1.38,inf,inf,-16.11,21.49,7.97,-7.05,nan,nan,0.00,1675.00,159.00,592.00,934.00,2263.00,0.00,848.00,,,,,,,,,,,,0,0,0,,-100,15948,2916,-87,211,-145
23.464,23.05,-1.54,24.77,-20.57,12.48,-12.31,-4.56,4.73,nan,nan,1264.00,1035.00,589.00,473.00,620.00,2709.00,0.00,1462.00,,,,,,,,,,,,0,0,0,,-40,16040,2968,-60,182,-148
23.526,23.11,-1.70,-9.03,3.87,-14.90,7.65,-4.85,8.99,nan,nan,623.00,2047.00,329.00,818.00,495.00,2445.00,0.00,1207.00,,,,,,,,,,,,0,0,0,,-120,16004,2832,-28,88,-166
23.568,23.16,-1.49,-29.38,38.15,-10.39,12.99,2.47,-1.52,nan,nan,141.00,1826.00,227.00,593.00,765.00,2425.00,0.00,1102.00,,,,,,,,,,,,0,0,0,,-60,15920,2900,-73,131,-151
23.691,23.22,-1.50,-10.00,14.79,-1.01,-1.83,-1.64,3.07,nan,nan,351.00,1587.00,427.00,609.00,643.00,2523.00,0.00,1170.00,,,,,,,,,,,,0,0,0,,-56,16068,2792,-60,188,-143
23.712,23.27,-1.59,12.96,-11.54,-6.19,3.37,-3.37,4.48,nan,nan,961.00,1296.00,354.00,650.00,615.00,2602.00,0.00,1458.00,,,,,,,,,,,,0,0,0,,-20,15912,2816,-86,100,-148
23.732,23.33,-1.74,-20.82,14.59,-12.61,7.17,-4.47,7.70,nan,nan,432.00,2448.00,324.00,757.00,527.00,2493.00,0.00,1185.00,,,,,,,,,,,,0,0,0,,-116,16052,2920,-73,73,-89
23.794,23.39,-1.40,inf,inf,-8.90,9.56,5.13,-4.25,nan,nan,0.00,1616.00,266.00,613.00,845.00,2349.00,0.00,880.00,,,,,,,,,,,,0,0,0,,-108,15888,2880,-111,183,-7
23.853,23.44,-1.64,39.41,-28.64,12.62,-10.99,-6.25,6.15,nan,nan,1499.00,720.00,547.00,454.00,592.00,2788.00,0.00,1607.00,,,,,,,,,,,,0,0,0,,-32,16056,3004,-147,154,-224
23.937,23.50,-1.99,-22.40,12.57,-19.45,9.58,-8.73,14.23,nan,nan,496.00,2751.00,322.00,930.00,400.00,2477.00,0.00,1121.00,,,,,,,,,,,,0,0,0,,-88,16024,2932,-18,190,-169
23.979,23.55,-1.57,inf,inf,-17.56,22.21,6.43,-5.71,nan,nan,0.00,1719.00,157.00,615.00,893.00,2320.00,0.00,859.00,,,,,,,,,,,,0,0,0,,-44,15900,2828,15,149,-75
24.04,23.60,-1.71,19.42,-16.15,9.72,-10.61,-4.43,4.86,nan,nan,1097.00,1136.00,565.00,504.00,614.00,2685.00,0.00,1328.00,,,,,,,,,,,,0,0,0,,-92,15952,2984,-141,160,-141
24.062,23.66,-1.87,-7.21,3.55,-14.98,8.37,-4.80,8.71,nan,nan,613.00,1921.00,317.00,805.00,502.00,2458.00,0.00,1178.00,,,,,,,,,,,,0,0,0,,-52,16016,2620,-104,82,-158
24.122,23.71,-1.77,-19.17,21.98,-8.45,9.20,0.19,1.16,nan,nan,281.00,1881.00,269.00,608.00,690.00,2471.00,0.00,1161.00,,,,,,,,,,,,0,0,0,,-64,15932,2972,-66,62,-185
24.184,23.77,-1.72,-16.47,24.45,-2.07,-0.45,-0.85,2.64,nan,nan,234.00,1582.00,404.00,612.00,649.00,2474.00,0.00,1040.00,,,,,,,,,,,,0,0,0,,-108,15992,2896,8,186,-178
24.246,23.82,-1.85,18.77,-16.58,-2.31,-0.64,-4.27,5.21,nan,nan,1136.00,1179.00,410.00,621.00,601.00,2644.00,0.00,1402.00,,,,,,,,,,,,0,0,0,,-80,16020,2868,-35,91,-170
24.286,23.88,-2.01,-20.55,13.58,-12.29,6.44,-5.16,8.90,nan,nan,454.00,2488.00,335.00,762.00,500.00,2480.00,0.00,1087.00,,,,,,,,,,,,0,0,0,,-12,16004,2916,-49,8,-202
24.39,23.93,-1.61,inf,inf,-10.49,12.15,5.94,-4.70,nan,nan,0.00,1616.00,238.00,609.00,853.00,2302.00,0.00,780.00,,,,,,,,,,,,0,0,0,,48,15912,2780,-123,63,-162
24.411,23.99,-1.86,42.83,-30.78,15.07,-12.67,-6.61,5.87,nan,nan,1581.00,666.00,573.00,431.00,605.00,2849.00,0.00,1671.00,,,,,,,,,,,,0,0,0,,-84,15976,2888,-139,124,-155
24.431,24.05,-2.20,-19.99,10.61,-19.98,10.88,-8.56,13.89,nan,nan,528.00,2636.00,303.00,917.00,406.00,2482.00,0.00,1168.00,,,,,,,,,,,,0,0,0,,-24,16016,2712,-129,118,-204
24.493,24.10,-1.83,inf,inf,-14.79,18.25,5.20,-4.92,nan,nan,0.00,1773.00,185.00,613.00,875.00,2385.00,0.00,912.00,,,,,,,,,,,,0,0,0,,-16,15956,2952,-110,25,-320
24.554,24.16,-1.99,15.96,-12.33,9.08,-9.15,-5.08,5.79,nan,nan,950.00,1176.00,528.00,497.00,591.00,2688.00,0.00,1292.00,,,,,,,,,,,,0,0,0,,-80,16172,2712,-49,90,-193
24.617,24.21,-2.09,-3.61,0.24,-13.75,8.07,-3.97,6.91,nan,nan,687.00,1821.00,315.00,773.00,545.00,2496.00,0.00,1182.00,,,,,,,,,,,,0,0,0,,-128,15892,2984,-145,148,-198
24.679,24.26,-2.02,-13.68,12.41,-5.15,4.94,-0.63,2.39,nan,nan,427.00,1957.00,319.00,598.00,655.00,2469.00,0.00,1105.00,,,,,,,,,,,,0,0,0,,-92,15936,2864,-22,144,-175
24.72,24.32,-1.89,inf,inf,-2.42,0.79,0.46,1.12,nan,nan,0.00,1583.00,380.00,600.00,688.00,2447.00,0.00,1087.00,,,,,,,,,,,,0,0,0,,-48,15884,2916,-34,132,-162
24.781,24.37,-2.01,23.82,-20.97,0.99,-3.35,-4.27,5.17,nan,nan,1314.00,1086.00,447.00,586.00,602.00,2646.00,0.00,1413.00,,,,,,,,,,,,0,0,0,,-32,15924,2720,-63,150,-169
24.822,24.43,-2.22,-21.25,13.99,-14.41,8.47,-6.13,10.61,nan,nan,450.00,2531.00,312.00,785.00,464.00,2462.00,0.00,1065.00,,,,,,,,,,,,0,0,0,,-128,16024,2872,-110,70,-258
24.884,24.48,-1.76,inf,inf,-12.58,16.34,6.96,-5.49,nan,nan,0.00,1622.00,197.00,591.00,874.00,2259.00,0.00,731.00,,,,,,,,,,,,0,0,0,,-136,16012,2984,-56,125,-221
24.926,24.54,-2.00,42.32,-31.62,18.75,-15.86,-6.56,6.32,nan,nan,1670.00,695.00,637.00,406.00,590.00,2810.00,0.00,1579.00,,,,,,,,,,,,0,0,0,,-72,15940,2764,-41,117,-242
24.986,24.59,-2.28,-17.02,8.49,-18.96,10.12,-7.66,12.44,nan,nan,561.00,2481.00,310.00,899.00,432.00,2490.00,0.00,1226.00,,,,,,,,,,,,0,0,0,,-96,15916,2788,-31,96,-141
25.047,24.65,-1.93,inf,inf,-10.61,13.06,4.81,-3.92,nan,nan,0.00,1737.00,227.00,597.00,835.00,2358.00,0.00,881.00,,,,,,,,,,,,0,0,0,,-208,16004,2860,-101,103,-131
25.128,24.70,-2.06,13.12,-9.60,9.15,-9.17,-4.49,5.59,nan,nan,863.00,1223.00,528.00,496.00,591.00,2640.00,0.00,1230.00,,,,,,,,,,,,0,0,0,,-20,15964,2820,-108,157,-142
25.149,24.76,-2.05,0.75,-2.48,-12.59,8.34,-1.93,3.87,nan,nan,735.00,1648.00,304.00,733.00,619.00,2498.00,0.00,1200.00,,,,,,,,,,,,0,0,0,,-64,15992,2792,-75,132,-126
25.21,24.82,-2.03,-15.43,12.99,-6.38,5.30,-1.62,3.53,nan,nan,427.00,2064.00,320.00,622.00,627.00,2490.00,0.00,1104.00,,,,,,,,,,,,0,0,0,,-136,16044,3024,-87,95,-227
25.273,24.87,-1.86,inf,inf,-4.66,3.55,1.29,-1.02,nan,nan,0.00,1582.00,341.00,609.00,761.00,2508.00,0.00,1009.00,,,,,,,,,,,,0,0,0,,-24,16076,2596,-24,132,-162
25.333,24.92,-2.00,28.57,-22.90,5.29,-7.27,-4.58,5.19,nan,nan,1338.00,948.00,511.00,549.00,605.00,2678.00,0.00,1566.00,,,,,,,,,,,,0,0,0,,-180,15976,2804,-111,118,-165
25.394,24.98,-2.26,-22.30,14.63,-15.50,9.13,-7.13,12.18,nan,nan,443.00,2593.00,307.00,805.00,434.00,2456.00,0.00,1074.00,,,,,,,,,,,,0,0,0,,-100,15844,2948,-17,139,-144
25.435,25.03,-1.74,inf,inf,-14.40,19.04,8.10,-7.04,nan,nan,0.00,1607.00,176.00,591.00,931.00,2251.00,0.00,716.00,,,,,,,,,,,,0,0,0,,-40,16028,2924,-45,156,-94
25.498,25.09,-1.95,40.08,-29.67,18.87,-15.50,-5.93,5.95,nan,nan,1566.00,721.00,623.00,400.00,595.00,2768.00,0.00,1499.00,,,,,,,,,,,,0,0,0,,-56,16088,2612,-73,169,-94
25.58,25.14,-2.11,-13.83,6.33,-16.32,7.96,-5.23,9.30,nan,nan,595.00,2317.00,332.00,858.00,490.00,2461.00,0.00,1135.00,,,,,,,,,,,,0,0,0,,-168,15996,2688,-81,21,-196
25.621,25.20,-1.78,-81.76,117.43,-11.56,14.91,4.50,-3.19,nan,nan,5.00,1730.00,209.00,590.00,807.00,2341.00,0.00,884.00,,,,,,,,,,,,0,0,0,,-164,16076,2856,-31,104,-182
25.682,25.25,-1.85,8.66,-4.76,7.74,-7.54,-3.14,4.43,nan,nan,720.00,1281.00,496.00,502.00,614.00,2582.00,0.00,1189.00,,,,,,,,,,,,0,0,0,,-120,15960,2812,-66,128,-222
25.702,25.31,-1.87,5.57,-5.43,-10.15,7.16,-2.30,4.48,nan,nan,790.00,1474.00,310.00,687.00,603.00,2494.00,0.00,1236.00,,,,,,,,,,,,0,0,0,,-168,16012,2752,-63,81,-169
25.763,25.36,-1.87,-17.14,13.87,-7.42,5.65,-1.87,4.52,nan,nan,420.00,2157.00,320.00,642.00,597.00,2449.00,0.00,1109.00,,,,,,,,,,,,0,0,0,,-108,15968,2792,-116,82,-135
25.865,25.42,-1.62,inf,inf,-4.76,4.76,3.17,-1.80,nan,nan,0.00,1565.00,320.00,592.00,767.00,2377.00,0.00,910.00,,,,,,,,,,,,0,0,0,,-76,16080,2816,-133,167,-122
25.885,25.48,-1.79,33.35,-25.35,6.70,-6.08,-5.03,5.74,nan,nan,1401.00,838.00,467.00,503.00,592.00,2686.00,0.00,1465.00,,,,,,,,,,,,0,0,0,,-80,16000,2828,-89,160,-112
25.927,25.53,-2.13,-22.07,13.42,-16.61,9.63,-8.64,14.24,nan,nan,471.00,2654.00,305.00,830.00,399.00,2467.00,0.00,1078.00,,,,,,,,,,,,0,0,0,,-100,16036,2748,-39,91,-102
26.01,25.58,-1.62,inf,inf,-16.42,21.94,8.02,-7.21,nan,nan,0.00,1661.00,156.00,592.00,941.00,2268.00,0.00,727.00,,,,,,,,,,,,0,0,0,,-108,15964,2852,-7,135,-52
26.029,25.64,-1.82,32.41,-25.40,16.84,-14.75,-5.47,5.46,nan,nan,1429.00,871.00,621.00,425.00,606.00,2754.00,0.00,1429.00,,,,,,,,,,,,0,0,0,,-100,15932,2824,-106,65,-257
26.092,25.69,-1.98,-11.54,5.07,-16.02,8.54,-5.02,9.45,nan,nan,611.00,2189.00,320.00,835.00,484.00,2430.00,0.00,1088.00,,,,,,,,,,,,0,0,0,,-136,15948,2824,-81,119,-166
26.154,25.75,-1.68,-60.36,85.58,-11.04,15.36,3.92,-2.31,nan,nan,19.00,1743.00,202.00,571.00,778.00,2340.00,0.00,895.00,,,,,,,,,,,,0,0,0,,-84,16000,2792,-4,117,-121
26.258,25.80,-1.71,2.94,-0.10,5.29,-5.88,-2.25,4.37,nan,nan,621.00,1418.00,474.00,529.00,606.00,2496.00,0.00,1075.00,,,,,,,,,,,,0,0,0,,-124,15972,2760,-59,197,-175
26.278,25.86,-1.75,9.00,-7.89,-8.23,6.10,-2.48,4.91,nan,nan,848.00,1375.00,317.00,655.00,591.00,2483.00,0.00,1221.00,,,,,,,,,,,,0,0,0,,24,16052,2468,-84,81,-193
26.342,25.91,-1.78,-18.89,14.25,-9.21,6.25,-2.45,5.74,nan,nan,425.00,2289.00,320.00,678.00,565.00,2426.00,0.00,1041.00,,,,,,,,,,,,0,0,0,,-164,15988,2684,-113,64,-174
26.361,25.97,-1.48,inf,inf,-5.15,5.89,4.26,-2.36,nan,nan,0.00,1535.00,303.00,583.00,775.00,2311.00,0.00,817.00,,,,,,,,,,,,0,0,0,,-72,15924,2784,-94,147,-189
26.423,26.02,-1.67,37.27,-27.00,9.43,-7.51,-5.23,6.22,nan,nan,1426.00,750.00,480.00,469.00,579.00,2673.00,0.00,1463.00,,,,,,,,,,,,0,0,0,,-108,15948,2684,-106,126,-161
26.483,26.08,-2.04,-23.05,13.99,-17.48,9.98,-9.02,15.51,nan,nan,465.00,2718.00,304.00,851.00,375.00,2420.00,0.00,1095.00,,,,,,,,,,,,0,0,0,,-96,16084,2900,-120,65,-159
26.605,26.14,-1.53,inf,inf,-18.75,25.95,8.17,-7.04,nan,nan,0.00,1639.00,131.00,583.00,930.00,2245.00,0.00,848.00,,,,,,,,,,,,0,0,0,,-140,16020,2884,-141,134,-150
26.626,26.19,-1.71,27.80,-22.47,11.69,-10.27,-5.14,5.65,nan,nan,1326.00,966.00,535.00,462.00,596.00,2704.00,0.00,1423.00,,,,,,,,,,,,0,0,0,,-188,15972,2780,-128,160,-127
26.646,26.25,-1.89,-10.73,5.47,-16.87,10.84,-5.31,9.94,nan,nan,589.00,2097.00,287.00,812.00,474.00,2427.00,0.00,1123.00,,,,,,,,,,,,0,0,0,,80,16028,2776,-116,110,-155
26.709,26.30,-1.67,-38.01,51.52,-10.63,14.68,2.52,-1.04,nan,nan,80.00,1795.00,208.00,572.00,745.00,2390.00,0.00,1009.00,,,,,,,,,,,,0,0,0,,-92,16132,2740,-115,52,-184
26.749,26.35,-1.68,-6.84,10.72,-0.93,-1.47,-1.92,3.72,nan,nan,413.00,1562.00,418.00,601.00,624.00,2507.00,0.00,1219.00,,,,,,,,,,,,0,0,0,,-108,15844,2880,-121,77,-232
26.812,26.41,-1.75,12.48,-11.22,-6.53,4.29,-3.11,4.91,nan,nan,953.00,1310.00,339.00,643.00,598.00,2546.00,0.00,1322.00,,,,,,,,,,,,0,0,0,,-148,16128,2932,-94,194,-204
26.854,26.46,-1.82,-21.92,16.39,-12.40,8.21,-3.14,6.77,nan,nan,400.00,2437.00,305.00,730.00,541.00,2425.00,0.00,1066.00,,,,,,,,,,,,0,0,0,,-80,15996,2732,-113,158,-145
26.98,26.52,-1.48,inf,inf,-7.37,9.05,4.93,-2.96,nan,nan,0.00,1557.00,266.00,585.00,791.00,2287.00,0.00,816.00,,,,,,,,,,,,0,0,0,,-60,15880,2900,-15,85,-113
27.0,26.57,-1.68,41.46,-29.19,12.47,-9.68,-5.48,6.37,nan,nan,1488.00,674.00,511.00,441.00,577.00,2689.00,0.00,1619.00,,,,,,,,,,,,0,0,0,,-20,16096,2852,-79,147,-126
27.041,26.63,-2.05,-23.17,13.44,-19.24,10.45,-8.93,15.63,nan,nan,480.00,2771.00,306.00,901.00,372.00,2404.00,0.00,1072.00,,,,,,,,,,,,0,0,0,,-64,15956,2828,-72,147,-130
27.101,26.68,-1.57,inf,inf,-15.83,22.11,7.53,-6.12,nan,nan,0.00,1655.00,153.00,576.00,895.00,2246.00,0.00,794.00,,,,,,,,,,,,0,0,0,,-128,16056,2760,-133,44,-157
27.142,26.74,-1.72,22.95,-19.09,11.52,-11.61,-4.69,5.85,nan,nan,1206.00,1069.00,577.00,482.00,585.00,2643.00,0.00,1329.00,,,,,,,,,,,,0,0,0,,-88,16056,2800,-103,135,-195
27.206,26.80,-1.89,-8.64,4.58,-15.40,9.84,-4.96,9.82,nan,nan,595.00,1977.00,295.00,787.00,474.00,2401.00,0.00,1159.00,,,,,,,,,,,,0,0,0,,-92,16020,2788,-88,137,-233
27.268,26.85,-1.71,-27.31,35.12,-9.19,12.51,1.63,0.07,nan,nan,160.00,1825.00,228.00,573.00,713.00,2403.00,0.00,1021.00,,,,,,,,,,,,0,0,0,,-64,16004,2796,-90,63,-164
27.372,26.91,-1.68,-18.69,28.85,-0.89,-0.57,-1.14,3.46,nan,nan,192.00,1535.00,398.00,586.00,624.00,2448.00,0.00,1040.00,,,,,,,,,,,,0,0,0,,-96,16028,2840,-140,30,-188
27.392,26.96,-1.78,16.19,-13.61,-4.78,3.00,-3.72,5.30,nan,nan,1014.00,1206.00,352.00,621.00,592.00,2581.00,0.00,1373.00,,,,,,,,,,,,0,0,0,,-136,16064,2776,-131,79,-155
27.432,27.01,-1.87,-21.88,16.14,-12.34,8.07,-3.50,7.34,nan,nan,405.00,2449.00,307.00,731.00,528.00,2422.00,0.00,1129.00,,,,,,,,,,,,0,0,0,,-88,16016,2812,-96,147,-136
27.495,27.07,-1.51,inf,inf,-9.80,12.63,5.35,-3.54,nan,nan,0.00,1571.00,229.00,585.00,810.00,2285.00,0.00,925.00,,,,,,,,,,,,0,0,0,,-72,16020,2660,-125,109,-142
27.516,27.12,-1.75,44.33,-30.73,13.44,-10.01,-6.29,6.57,nan,nan,1535.00,627.00,511.00,428.00,579.00,2761.00,0.00,1591.00,,,,,,,,,,,,0,0,0,,-48,15676,2916,-117,42,-255
27.577,27.18,-2.10,-23.37,13.51,-19.74,10.74,-8.84,15.30,nan,nan,480.00,2788.00,304.00,912.00,378.00,2416.00,0.00,1136.00,,,,,,,,,,,,0,0,0,,-100,16240,2888,-125,88,-207
27.638,27.23,-1.69,inf,inf,-17.05,22.88,6.16,-4.98,nan,nan,0.00,1712.00,150.00,592.00,863.00,2300.00,0.00,909.00,,,,,,,,,,,,0,0,0,,-72,15972,2944,-182,188,-116
27.719,27.29,-1.85,21.06,-16.75,10.30,-10.64,-4.83,6.18,nan,nan,1100.00,1082.00,560.00,493.00,576.00,2634.00,0.00,1295.00,,,,,,,,,,,,0,0,0,,28,15920,2792,-82,168,-78
27.741,27.34,-1.89,-7.44,4.34,-13.86,7.99,-2.68,6.28,nan,nan,590.00,1898.00,317.00,778.00,551.00,2413.00,0.00,1123.00,,,,,,,,,,,,0,0,0,,-28,16128,2772,-105,171,-94
27.802,27.40,-1.77,-19.93,23.60,-7.88,9.93,0.39,1.72,nan,nan,261.00,1856.00,256.00,583.00,667.00,2415.00,0.00,1222.00,,,,,,,,,,,,0,0,0,,-88,16092,2776,-94,141,-118
27.884,27.45,-1.71,inf,inf,-1.64,0.34,-0.55,2.85,nan,nan,0.00,1533.00,384.00,589.00,638.00,2431.00,0.00,1034.00,,,,,,,,,,,,0,0,0,,-140,15952,2712,-108,91,-232
27.906,27.51,-1.81,20.24,-17.05,-3.01,1.49,-3.61,5.45,nan,nan,1135.00,1127.00,370.00,603.00,586.00,2559.00,0.00,1524.00,,,,,,,,,,,,0,0,0,,12,15964,2772,-109,88,-188
27.966,27.57,-1.97,-22.12,15.95,-13.19,9.22,-5.07,9.86,nan,nan,411.00,2485.00,293.00,733.00,474.00,2409.00,0.00,1051.00,,,,,,,,,,,,0,0,0,,-64,15960,2760,-209,61,-176
28.028,27.62,-1.57,inf,inf,-9.48,12.93,6.00,-3.87,nan,nan,0.00,1558.00,224.00,573.00,815.00,2247.00,0.00,768.00,,,,,,,,,,,,0,0,0,,-116,16012,2840,-164,163,-95
28.088,27.67,-1.82,45.89,-31.83,15.72,-11.76,-6.47,6.89,nan,nan,1583.00,607.00,539.00,410.00,571.00,2757.00,0.00,1713.00,,,,,,,,,,,,0,0,0,,-120,15956,2808,-144,172,-95
28.13,27.73,-2.16,-22.43,13.62,-19.20,10.56,-8.58,14.93,nan,nan,469.00,2678.00,304.00,897.00,384.00,2416.00,0.00,1140.00,,,,,,,,,,,,0,0,0,,-72,16052,2752,-131,179,-98
28.212,27.78,-1.76,inf,inf,-14.13,18.94,5.78,-4.75,nan,nan,0.00,1722.00,176.00,586.00,858.00,2320.00,0.00,912.00,,,,,,,,,,,,0,0,0,,4,16072,2888,-100,136,-121
28.233,27.84,-1.92,18.98,-14.41,10.27,-9.44,-5.07,6.42,nan,nan,1006.00,1103.00,525.00,478.00,571.00,2642.00,0.00,1302.00,,,,,,,,,,,,0,0,0,,0,15948,2888,-138,105,-124
28.294,27.89,-2.05,-5.29,1.94,-15.48,10.96,-4.54,8.47,nan,nan,646.00,1859.00,278.00,766.00,506.00,2448.00,0.00,1194.00,,,,,,,,,,,,0,0,0,,24,15756,2848,-71,106,-139
28.357,27.95,-1.97,-16.56,17.15,-6.48,7.60,-0.31,2.46,nan,nan,348.00,1931.00,283.00,587.00,649.00,2434.00,0.00,1237.00,,,,,,,,,,,,0,0,0,,56,16012,2904,-146,83,-205
28.438,28.00,-1.88,inf,inf,-1.32,0.38,-0.17,2.52,nan,nan,0.00,1535.00,381.00,581.00,645.00,2416.00,0.00,1049.00,,,,,,,,,,,,0,0,0,,-80,16076,2928,-144,203,-113
28.458,28.06,-2.02,23.05,-19.73,-0.24,-1.34,-4.65,6.28,nan,nan,1246.00,1083.00,410.00,583.00,571.00,2608.00,0.00,1462.00,,,,,,,,,,,,0,0,0,,24,15904,3004,-33,168,-28
28.522,28.11,-2.18,-22.48,15.89,-13.17,8.53,-5.23,10.38,nan,nan,415.00,2524.00,304.00,746.00,462.00,2390.00,0.00,1105.00,,,,,,,,,,,,0,0,0,,0,15964,2912,-92,215,-85
28.562,28.17,-1.74,inf,inf,-11.87,16.39,6.63,-4.24,nan,nan,0.00,1566.00,194.00,574.00,822.00,2213.00,0.00,971.00,,,,,,,,,,,,0,0,0,,12,15948,2876,-93,158,-133
28.625,28.23,-1.97,48.19,-33.40,18.74,-13.97,-6.42,6.88,nan,nan,1653.00,578.00,575.00,386.00,571.00,2753.00,0.00,1643.00,,,,,,,,,,,,0,0,0,,24,15912,2812,-102,82,-164
28.686,28.28,-2.30,-20.47,11.45,-19.80,11.57,-8.46,14.89,nan,nan,509.00,2627.00,291.00,894.00,384.00,2407.00,0.00,1285.00,,,,,,,,,,,,0,0,0,,36,15964,2996,-72,113,-152
28.81,28.33,-1.90,inf,inf,-12.95,17.53,5.62,-4.21,nan,nan,0.00,1707.00,186.00,581.00,836.00,2302.00,0.00,954.00,,,,,,,,,,,,0,0,0,,-44,15960,2772,-146,124,-128
28.83,28.39,-2.05,19.07,-13.61,10.91,-9.12,-4.99,6.56,nan,nan,962.00,1076.00,510.00,462.00,566.00,2624.00,0.00,1497.00,,,,,,,,,,,,0,0,0,,16,15920,2764,-209,119,-89
28.851,28.44,-2.14,-4.19,1.48,-13.99,9.30,-3.77,7.61,nan,nan,649.00,1802.00,296.00,755.00,523.00,2431.00,0.00,1456.00,,,,,,,,,,,,0,0,0,,96,15900,2936,-220,116,-89
28.891,28.50,-2.06,-15.19,14.64,-5.92,6.46,-0.50,2.78,nan,nan,389.00,1957.00,298.00,592.00,640.00,2431.00,0.00,1166.00,,,,,,,,,,,,0,0,0,,68,16052,2956,-158,163,-93
28.952,28.55,-1.95,inf,inf,-2.81,2.13,0.10,1.92,nan,nan,0.00,1552.00,356.00,588.00,663.00,2429.00,0.00,1094.00,,,,,,,,,,,,0,0,0,,12,15940,2908,-102,164,-98
29.013,28.61,-2.08,26.15,-22.16,1.02,-2.94,-4.55,5.86,nan,nan,1344.00,1023.00,437.00,579.00,583.00,2627.00,0.00,1521.00,,,,,,,,,,,,0,0,0,,0,15908,2828,-87,111,-155
29.056,28.66,-2.29,-22.96,15.40,-14.27,9.52,-6.18,10.83,nan,nan,430.00,2607.00,294.00,759.00,459.00,2453.00,0.00,1200.00,,,,,,,,,,,,0,0,0,,-60,15912,2948,-135,49,-207
29.116,28.72,-1.86,inf,inf,-12.60,16.83,6.31,-4.77,nan,nan,0.00,1617.00,192.00,584.00,851.00,2274.00,0.00,877.00,,,,,,,,,,,,0,0,0,,-4,16052,2664,-211,117,-149
29.197,28.77,-2.10,47.53,-34.00,17.94,-14.11,-6.78,6.80,nan,nan,1728.00,603.00,588.00,400.00,577.00,2798.00,0.00,1691.00,,,,,,,,,,,,0,0,0,,36,15980,2916,-250,151,-72
29.219,28.83,-2.41,-19.25,10.01,-18.45,10.25,-8.16,13.89,nan,nan,538.00,2601.00,305.00,878.00,403.00,2443.00,0.00,1258.00,,,,,,,,,,,,0,0,0,,-28,15900,3092,-138,109,-95
29.282,28.89,-2.01,inf,inf,-11.07,15.01,5.40,-4.08,nan,nan,0.00,1726.00,206.00,577.00,833.00,2313.00,0.00,1063.00,,,,,,,,,,,,0,0,0,,108,15936,2968,-142,150,-118
29.341,28.94,-2.15,17.96,-12.55,10.90,-8.86,-4.70,6.33,nan,nan,927.00,1093.00,503.00,459.00,570.00,2610.00,0.00,1570.00,,,,,,,,,,,,0,0,0,,48,16140,3108,-33,112,-165
29.405,29.00,-2.23,-2.84,-0.08,-13.62,10.47,-3.79,6.92,nan,nan,689.00,1781.00,276.00,721.00,543.00,2478.00,0.00,1424.00,,,,,,,,,,,,0,0,0,,-56,15944,2868,-30,65,-166
29.445,29.05,-2.17,-15.35,13.85,-4.90,6.30,-1.08,2.88,nan,nan,407.00,2011.00,295.00,571.00,643.00,2480.00,0.00,1167.00,,,,,,,,,,,,0,0,0,,64,15984,3020,-130,83,-115
29.548,29.10,-2.07,inf,inf,-1.91,2.62,-0.19,1.58,nan,nan,0.00,1578.00,341.00,560.00,679.00,2480.00,0.00,1039.00,,,,,,,,,,,,0,0,0,,8,15868,3044,-135,116,-209
29.568,29.16,-2.20,24.84,-21.94,0.55,-2.31,-4.65,5.12,nan,nan,1360.00,1071.00,426.00,580.00,608.00,2690.00,0.00,1472.00,,,,,,,,,,,,0,0,0,,-76,16028,2804,-103,22,-164
29.629,29.21,-2.40,-22.74,14.57,-12.86,8.43,-6.23,10.06,nan,nan,448.00,2643.00,304.00,739.00,479.00,2509.00,0.00,1141.00,,,,,,,,,,,,0,0,0,,16,15916,2964,-126,88,-154
29.69,29.27,-1.97,inf,inf,-12.29,18.33,6.24,-5.48,nan,nan,0.00,1646.00,176.00,554.00,885.00,2323.00,0.00,819.00,,,,,,,,,,,,0,0,0,,44,15884,2808,-171,163,-136
29.73,29.32,-2.21,43.65,-32.65,20.48,-15.86,-6.74,5.85,nan,nan,1724.00,678.00,617.00,379.00,607.00,2865.00,0.00,1641.00,,,,,,,,,,,,0,0,0,,28,15920,2836,-184,40,-135
29.792,29.38,-2.48,-19.17,9.75,-18.29,11.32,-7.63,11.76,nan,nan,545.00,2611.00,287.00,848.00,448.00,2533.00,0.00,1226.00,,,,,,,,,,,,0,0,0,,104,15932,3044,-258,55,-103
29.856,29.43,-2.15,inf,inf,-10.84,14.93,4.14,-4.00,nan,nan,0.00,1806.00,206.00,573.00,849.00,2427.00,0.00,1040.00,,,,,,,,,,,,0,0,0,,84,16060,2988,-223,29,-246
29.937,29.49,-2.30,14.93,-11.35,11.39,-8.43,-5.22,5.65,nan,nan,918.00,1193.00,487.00,445.00,597.00,2713.00,0.00,1427.00,,,,,,,,,,,,0,0,0,,196,16096,2976,-215,62,-88
29.957,29.55,-2.36,-2.85,-0.52,-12.77,9.52,-3.34,5.52,nan,nan,706.00,1803.00,286.00,715.00,581.00,2527.00,0.00,1325.00,,,,,,,,,,,,0,0,0,,100,15896,3088,-304,58,-135
29.996,29.60,-2.30,-15.73,13.45,-5.12,6.69,-1.34,3.03,nan,nan,419.00,2064.00,290.00,570.00,641.00,2496.00,0.00,1225.00,,,,,,,,,,,,0,0,0,,84,15828,2908,-200,102,-134
30.058,29.66,-2.13,inf,inf,-1.36,2.01,1.12,0.06,nan,nan,0.00,1583.00,349.00,557.00,720.00,2453.00,0.00,1111.00,,,,,,,,,,,,1,1,0,,156,15940,3212,-263,80,-84
30.099,29.71,-2.26,26.33,-22.43,2.37,-2.62,-4.72,5.73,nan,nan,1359.00,1023.00,419.00,544.00,589.00,2654.00,0.00,1584.00,,,,,,,,,,,,1,1,0,,36,15748,2992,-333,84,-111
30.159,29.76,-2.48,-23.40,15.76,-13.36,9.21,-6.52,11.43,nan,nan,425.00,2627.00,294.00,738.00,447.00,2446.00,0.00,1267.00,,,,,,,,,,,,1,1,0,,64,16044,3144,-262,-52,-226
30.22,29.82,-2.04,inf,inf,-13.43,20.02,6.29,-5.09,nan,nan,0.00,1607.00,164.00,554.00,866.00,2295.00,0.00,913.00,,,,,,,,,,,,1,1,0,,180,16020,3116,-106,5,-275
30.281,29.87,-2.28,46.52,-33.60,20.88,-15.36,-6.86,6.86,nan,nan,1723.00,621.00,596.00,368.00,576.00,2802.00,0.00,1728.00,,,,,,,,,,,,1,1,0,,88,15864,3032,-38,39,-344
30.342,29.93,-2.54,-18.18,9.05,-18.10,11.25,-7.60,12.25,nan,nan,556.00,2559.00,287.00,843.00,436.00,2497.00,0.00,1296.00,,,,,,,,,,,,1,1,0,,60,15940,3192,-108,53,-281
30.404,29.98,-2.20,inf,inf,-9.91,14.89,4.37,-3.71,nan,nan,0.00,1770.00,203.00,553.00,832.00,2386.00,0.00,1061.00,,,,,,,,,,,,1,1,0,,-4,15916,3052,-179,-15,-225
30.506,30.04,-2.33,15.05,-11.03,11.31,-8.48,-4.91,5.54,nan,nan,900.00,1177.00,489.00,447.00,597.00,2687.00,0.00,1387.00,,,,,,,,,,,,1,1,0,,64,15912,3252,-160,49,-166
30.524,30.09,-2.38,-1.44,-1.49,-12.93,10.51,-3.19,5.18,nan,nan,725.00,1750.00,272.00,701.00,590.00,2535.00,0.00,1295.00,,,,,,,,,,,,1,1,0,,140,15948,3248,-132,-142,-121
30.544,30.15,-2.34,-16.47,14.05,-5.75,7.36,-1.59,3.00,nan,nan,411.00,2091.00,283.00,574.00,645.00,2523.00,0.00,1201.00,,,,,,,,,,,,1,1,0,,40,16148,3136,-134,-142,-154
30.646,30.20,-2.18,inf,inf,-2.59,3.68,0.85,-0.18,nan,nan,0.00,1593.00,326.00,559.00,733.00,2495.00,0.00,1111.00,,,,,,,,,,,,1,1,0,,-80,15776,3076,-114,-146,-133
30.689,30.26,-2.32,26.91,-23.07,2.25,-2.58,-4.98,5.41,nan,nan,1392.00,1017.00,419.00,546.00,602.00,2704.00,0.00,1576.00,,,,,,,,,,,,1,1,0,,20,15800,3288,-336,-171,-250
30.708,30.32,-2.53,-23.65,15.55,-14.42,10.94,-6.59,11.00,nan,nan,432.00,2669.00,273.00,735.00,458.00,2481.00,0.00,1232.00,,,,,,,,,,,,1,1,0,,32,15892,3244,-292,97,-217
30.77,30.37,-2.07,inf,inf,-12.34,19.99,6.75,-5.54,nan,nan,0.00,1629.00,161.00,531.00,880.00,2281.00,0.00,894.00,,,,,,,,,,,,1,1,0,,-100,15784,3144,-155,161,-52
30.811,30.42,-2.29,47.63,-34.03,21.29,-15.24,-6.54,6.22,nan,nan,1728.00,601.00,588.00,361.00,593.00,2815.00,0.00,1670.00,,,,,,,,,,,,1,1,0,,188,15872,3388,-301,182,-43
30.894,30.48,-2.56,-18.49,9.59,-18.30,12.04,-7.60,12.47,nan,nan,543.00,2553.00,276.00,832.00,431.00,2483.00,0.00,1265.00,,,,,,,,,,,,1,1,0,,120,15876,3088,-348,46,-62
30.937,30.53,-2.23,inf,inf,-8.77,13.88,4.04,-2.94,nan,nan,0.00,1739.00,210.00,543.00,803.00,2368.00,0.00,1056.00,,,,,,,,,,,,1,1,0,,136,15824,3412,-334,26,-111
31.017,30.59,-2.34,15.85,-10.99,12.08,-8.44,-4.55,5.61,nan,nan,885.00,1139.00,481.00,433.00,591.00,2645.00,0.00,1392.00,,,,,,,,,,,,1,1,0,,156,15896,3216,-406,111,-127
31.039,30.64,-2.38,-0.79,-1.60,-11.84,9.54,-3.03,5.38,nan,nan,721.00,1711.00,281.00,689.00,582.00,2506.00,0.00,1328.00,,,,,,,,,,,,1,1,0,,96,15904,3420,-315,56,-156
31.099,30.70,-2.32,-16.03,14.36,-4.94,7.08,-1.21,2.99,nan,nan,401.00,2038.00,283.00,560.00,641.00,2486.00,0.00,1245.00,,,,,,,,,,,,1,1,0,,104,15860,3508,-174,54,-145
31.161,30.75,-2.15,inf,inf,-1.71,3.62,1.08,-0.16,nan,nan,0.00,1567.00,322.00,541.00,729.00,2471.00,0.00,1152.00,,,,,,,,,,,,1,1,0,,80,15784,3368,-257,85,-113
31.202,30.81,-2.29,27.87,-23.18,3.49,-2.73,-4.95,5.56,nan,nan,1376.00,982.00,413.00,522.00,597.00,2691.00,0.00,1595.00,,,,,,,,,,,,1,1,0,,192,15864,3588,-307,132,-24
31.263,30.86,-2.57,-23.96,16.04,-13.37,9.79,-7.83,12.58,nan,nan,423.00,2666.00,285.00,727.00,430.00,2497.00,0.00,1260.00,,,,,,,,,,,,1,1,0,,164,15876,3440,-295,113,-21
31.387,30.92,-2.12,inf,inf,-12.87,20.63,6.42,-5.43,nan,nan,0.00,1633.00,157.00,533.00,880.00,2304.00,0.00,938.00,,,,,,,,,,,,1,1,0,,224,15832,3392,-283,153,6
31.406,30.98,-2.34,46.40,-33.62,20.99,-15.20,-6.51,6.08,nan,nan,1728.00,624.00,590.00,365.00,597.00,2822.00,0.00,1712.00,,,,,,,,,,,,1,1,0,,224,15820,3620,-299,37,-227
31.447,31.03,-2.57,-17.68,8.45,-16.51,10.02,-7.04,11.56,nan,nan,569.00,2549.00,298.00,818.00,448.00,2488.00,0.00,1324.00,,,,,,,,,,,,1,1,0,,188,15872,3612,-209,31,-189
31.489,31.08,-2.21,inf,inf,-8.96,14.30,4.73,-3.81,nan,nan,0.00,1749.00,206.00,541.00,831.00,2358.00,0.00,1087.00,,,,,,,,,,,,1,1,0,,168,15696,3632,-135,76,-135
31.55,31.14,-2.33,16.71,-11.69,12.30,-8.59,-4.62,5.79,nan,nan,905.00,1122.00,483.00,431.00,586.00,2639.00,0.00,1424.00,,,,,,,,,,,,1,1,0,,236,15964,3588,-148,177,-252
31.591,31.19,-2.36,-0.51,-1.80,-11.34,8.85,-2.98,5.72,nan,nan,725.00,1701.00,289.00,688.00,571.00,2478.00,0.00,1434.00,,,,,,,,,,,,1,1,0,,196,15808,3576,-227,110,-185
31.653,31.25,-2.30,-15.65,14.18,-2.98,5.41,-1.25,3.35,nan,nan,402.00,2017.00,299.00,542.00,629.00,2466.00,0.00,1323.00,,,,,,,,,,,,1,1,0,,164,15892,3560,-89,16,-159
31.755,31.30,-2.13,inf,inf,-0.90,2.56,1.10,0.32,nan,nan,0.00,1532.00,336.00,539.00,710.00,2437.00,0.00,1138.00,,,,,,,,,,,,1,1,0,,176,15836,3448,51,41,-265
31.776,31.36,-2.25,28.92,-23.39,4.02,-2.64,-4.50,5.37,nan,nan,1365.00,947.00,407.00,510.00,598.00,2656.00,0.00,1563.00,,,,,,,,,,,,1,1,0,,228,15748,3392,93,-26,-295
31.819,31.41,-2.47,-23.13,15.33,-12.77,9.52,-6.71,11.33,nan,nan,433.00,2630.00,286.00,715.00,451.00,2471.00,0.00,1248.00,,,,,,,,,,,,1,1,0,,124,15864,3340,29,-80,-227
31.879,31.47,-2.03,inf,inf,-10.46,17.71,6.33,-5.08,nan,nan,0.00,1606.00,176.00,524.00,865.00,2291.00,0.00,912.00,,,,,,,,,,,,1,1,0,,168,15812,3432,34,-52,-320
31.941,31.52,-2.26,46.55,-33.84,22.56,-15.64,-6.60,6.27,nan,nan,1744.00,624.00,587.00,347.00,592.00,2818.00,0.00,1713.00,,,,,,,,,,,,1,1,0,,68,15824,3356,-39,-83,-254
31.982,31.58,-2.53,-18.07,8.88,-16.52,10.28,-7.58,12.16,nan,nan,560.00,2559.00,294.00,813.00,438.00,2501.00,0.00,1322.00,,,,,,,,,,,,1,1,0,,72,15600,3452,-35,-83,-227
32.022,31.64,-2.17,inf,inf,-10.40,16.09,4.60,-4.07,nan,nan,0.00,1764.00,192.00,546.00,845.00,2387.00,0.00,1178.00,,,,,,,,,,,,1,1,0,,68,15956,3192,-194,14,-121
32.126,31.69,-2.30,16.69,-11.82,12.64,-8.39,-4.67,5.62,nan,nan,912.00,1127.00,475.00,423.00,592.00,2657.00,0.00,1461.00,,,,,,,,,,,,1,1,0,,144,15844,3492,-371,-38,-172
32.168,31.75,-2.33,-2.54,-0.20,-13.01,11.15,-3.01,5.70,nan,nan,690.00,1766.00,263.00,691.00,572.00,2483.00,0.00,1358.00,,,,,,,,,,,,1,1,0,,172,15816,3540,-348,-53,-234
32.208,31.80,-2.26,-15.40,14.19,-3.67,7.05,-0.89,2.68,nan,nan,400.00,1997.00,277.00,533.00,648.00,2475.00,0.00,1239.00,,,,,,,,,,,,1,1,0,,236,15804,3784,-183,77,-261
32.27,31.85,-2.12,inf,inf,0.05,3.14,0.54,1.01,nan,nan,0.00,1535.00,320.00,511.00,691.00,2446.00,0.00,1142.00,,,,,,,,,,,,1,1,0,,252,15836,3520,39,245,-146
32.329,31.91,-2.23,26.17,-22.02,4.15,-2.18,-4.35,5.20,nan,nan,1333.00,1018.00,396.00,501.00,602.00,2653.00,0.00,1556.00,,,,,,,,,,,,1,1,0,,120,15672,3576,-89,53,-337
32.371,31.96,-2.40,-23.24,16.06,-12.32,10.30,-5.65,9.78,nan,nan,417.00,2590.00,272.00,688.00,481.00,2470.00,0.00,1232.00,,,,,,,,,,,,1,1,0,,164,15836,3468,-91,-91,-118
32.473,32.02,-1.98,inf,inf,-10.76,19.23,6.16,-4.96,nan,nan,0.00,1590.00,163.00,509.00,862.00,2299.00,0.00,914.00,,,,,,,,,,,,1,1,0,,280,15904,3744,-92,56,-165
32.493,32.08,-2.19,46.88,-33.71,22.95,-14.90,-6.25,5.81,nan,nan,1722.00,614.00,560.00,335.00,603.00,2814.00,0.00,1693.00,,,,,,,,,,,,1,1,0,,252,15912,3624,-27,94,-223
32.514,32.13,-2.46,-19.40,10.41,-16.75,10.93,-7.70,12.41,nan,nan,528.00,2589.00,285.00,806.00,433.00,2496.00,0.00,1273.00,,,,,,,,,,,,1,1,0,,68,15944,3668,97,172,-272
32.577,32.19,-2.11,inf,inf,-9.82,16.48,4.65,-4.11,nan,nan,0.00,1731.00,186.00,528.00,846.00,2385.00,0.00,1070.00,,,,,,,,,,,,1,1,0,,220,15928,3576,278,282,-236
32.639,32.24,-2.27,17.50,-12.32,12.87,-8.20,-5.25,5.81,nan,nan,923.00,1106.00,468.00,417.00,592.00,2704.00,0.00,1398.00,,,,,,,,,,,,1,1,0,,168,16308,3580,266,-10,-184
32.701,32.30,-2.31,-3.52,0.61,-13.54,11.83,-3.24,5.80,nan,nan,672.00,1796.00,256.00,693.00,571.00,2498.00,0.00,1296.00,,,,,,,,,,,,1,1,0,,172,15744,3484,106,67,-258
32.74,32.35,-2.25,-15.01,14.06,-1.94,6.08,-0.93,2.52,nan,nan,400.00,1973.00,283.00,511.00,654.00,2490.00,0.00,1201.00,,,,,,,,,,,,1,1,0,,56,15972,3388,-22,183,-180
32.825,32.41,-2.11,inf,inf,0.19,3.15,0.39,1.14,nan,nan,0.00,1517.00,319.00,508.00,688.00,2452.00,0.00,1115.00,,,,,,,,,,,,1,1,0,,84,15788,3236,-100,109,-185
32.846,32.46,-2.23,26.30,-21.91,4.29,-2.09,-4.38,5.43,nan,nan,1322.00,1010.00,393.00,497.00,595.00,2640.00,0.00,1501.00,,,,,,,,,,,,1,1,0,,132,16080,3412,-75,123,-210
32.909,32.52,-2.41,-23.42,16.80,-11.55,10.04,-5.98,9.89,nan,nan,402.00,2557.00,272.00,672.00,481.00,2495.00,0.00,1195.00,,,,,,,,,,,,1,1,0,,112,15928,3168,225,88,-202
32.97,32.57,-1.99,inf,inf,-9.71,18.65,6.18,-5.01,nan,nan,0.00,1562.00,165.00,496.00,864.00,2300.00,0.00,880.00,,,,,,,,,,,,1,1,0,,52,15544,3228,81,-34,-301
33.03,32.63,-2.20,48.54,-34.11,23.58,-14.23,-6.22,5.44,nan,nan,1707.00,581.00,534.00,321.00,615.00,2839.00,0.00,1683.00,,,,,,,,,,,,1,1,0,,-32,15808,3580,-276,63,-90
33.092,32.68,-2.47,-20.63,11.72,-17.56,12.82,-7.64,12.01,nan,nan,503.00,2624.00,261.00,791.00,442.00,2517.00,0.00,1265.00,,,,,,,,,,,,1,1,0,,48,15768,3580,-271,233,-119
33.154,32.74,-2.10,inf,inf,-12.00,21.06,4.85,-4.90,nan,nan,0.00,1715.00,151.00,509.00,880.00,2417.00,0.00,1089.00,,,,,,,,,,,,1,1,0,,-32,15708,3288,-234,192,-55
33.257,32.79,-2.26,19.52,-13.90,15.01,-8.96,-5.16,5.20,nan,nan,969.00,1065.00,469.00,391.00,611.00,2739.00,0.00,1477.00,,,,,,,,,,,,1,1,0,,48,15856,3548,-158,185,-61
33.277,32.85,-2.33,-4.56,1.84,-12.97,12.07,-3.77,5.82,nan,nan,641.00,1811.00,250.00,673.00,576.00,2550.00,0.00,1295.00,,,,,,,,,,,,1,1,1,,92,15880,3368,-91,214,41
33.319,32.90,-2.25,-11.98,12.05,-1.27,5.53,-0.67,1.34,nan,nan,422.00,1847.00,288.00,505.00,694.00,2544.00,0.00,1151.00,,,,,,,,,,,,1,1,1,,92,16016,3244,8,126,38
33.361,32.96,-2.14,inf,inf,0.92,2.44,-0.13,0.79,nan,nan,0.00,1527.00,327.00,503.00,708.00,2527.00,0.00,1099.00,,,,,,,,,,,,1,1,1,,208,15760,3252,-65,-55,-152
33.421,33.01,-2.24,25.22,-21.38,3.56,-0.92,-4.07,4.53,nan,nan,1310.00,1039.00,374.00,496.00,621.00,2671.00,0.00,1383.00,,,,,,,,,,,,1,1,1,,108,15832,3492,-72,-53,-126
33.503,33.07,-2.38,-22.79,16.22,-11.37,10.95,-4.99,8.51,nan,nan,410.00,2533.00,258.00,651.00,509.00,2489.00,0.00,1067.00,,,,,,,,,,,,1,1,1,,240,15788,3448,-122,17,-65
33.524,33.12,-1.96,inf,inf,-8.00,16.88,5.92,-4.71,nan,nan,0.00,1535.00,176.00,486.00,854.00,2305.00,0.00,759.00,,,,,,,,,,,,1,1,1,,308,15944,3472,-140,132,-196
33.586,33.17,-2.11,50.74,-34.41,23.42,-13.29,-4.88,3.54,nan,nan,1667.00,537.00,509.00,315.00,665.00,2832.00,0.00,1535.00,,,,,,,,,,,,1,1,1,,236,15836,3332,-106,138,-163
33.646,33.23,-2.38,-22.21,13.19,-17.79,13.26,-7.61,12.30,nan,nan,478.00,2685.00,256.00,789.00,435.00,2495.00,0.00,1143.00,,,,,,,,,,,,1,1,1,,280,15764,3608,-151,1,-113
33.728,33.28,-1.98,inf,inf,-13.83,24.73,5.57,-5.38,nan,nan,0.00,1680.00,128.00,496.00,891.00,2379.00,0.00,975.00,,,,,,,,,,,,1,1,1,,316,15936,3424,-67,93,-233
33.748,33.34,-2.12,21.98,-15.72,15.09,-8.78,-4.72,5.21,nan,nan,1023.00,1015.00,464.00,388.00,606.00,2692.00,0.00,1300.00,,,,,,,,,,,,1,1,1,,164,15804,3652,17,116,-313
33.789,33.40,-2.22,-6.34,3.75,-13.49,12.85,-4.00,6.99,nan,nan,597.00,1846.00,242.00,673.00,543.00,2494.00,0.00,1231.00,,,,,,,,,,,,1,1,1,,236,15848,3240,55,181,-363
33.85,33.45,-2.10,-17.88,20.03,-2.70,9.22,0.08,0.98,nan,nan,305.00,1883.00,242.00,484.00,698.00,2493.00,0.00,1076.00,,,,,,,,,,,,1,1,1,,112,15840,3304,-43,-50,-414
33.892,33.51,-2.02,inf,inf,1.68,2.08,-0.52,1.56,nan,nan,0.00,1505.00,329.00,493.00,684.00,2514.00,0.00,1023.00,,,,,,,,,,,,1,1,1,,68,15824,3416,-61,-276,-442
33.952,33.56,-2.11,22.17,-18.90,1.13,1.55,-3.75,4.13,nan,nan,1211.00,1097.00,342.00,511.00,631.00,2666.00,0.00,1374.00,,,,,,,,,,,,1,1,1,,-84,15948,3452,19,69,-288
34.015,33.62,-2.20,-22.96,16.83,-10.35,9.91,-4.01,7.20,nan,nan,398.00,2509.00,268.00,643.00,537.00,2481.00,0.00,1072.00,,,,,,,,,,,,1,1,1,,-32,15832,3360,5,266,-345
34.077,33.67,-1.81,inf,inf,-6.67,15.62,5.75,-4.52,nan,nan,0.00,1514.00,184.00,477.00,848.00,2309.00,0.00,788.00,,,,,,,,,,,,1,1,1,,-16,15752,3160,84,127,-176
34.118,33.73,-2.01,49.93,-33.50,21.31,-11.46,-5.84,5.43,nan,nan,1610.00,541.00,479.00,326.00,611.00,2797.00,0.00,1520.00,,,,,,,,,,,,1,1,1,,96,15784,3240,134,146,-329
34.179,33.78,-2.27,-23.48,14.77,-18.64,14.66,-7.22,12.34,nan,nan,449.00,2706.00,241.00,786.00,431.00,2454.00,0.00,1085.00,,,,,,,,,,,,1,1,1,,-112,15772,3200,-162,143,-241
34.24,33.84,-1.84,inf,inf,-12.33,22.97,6.20,-5.67,nan,nan,0.00,1667.00,137.00,490.00,895.00,2339.00,0.00,912.00,,,,,,,,,,,,1,1,1,,-180,15804,3444,-339,110,-218
34.321,33.89,-1.98,23.30,-17.30,16.83,-9.88,-4.55,5.39,nan,nan,1088.00,1005.00,477.00,373.00,598.00,2660.00,0.00,1360.00,,,,,,,,,,,,1,1,1,,-128,15808,3480,-73,161,-6
34.342,33.95,-2.04,-7.62,4.84,-10.03,11.84,-3.24,6.70,nan,nan,576.00,1886.00,240.00,603.00,544.00,2439.00,0.00,1155.00,,,,,,,,,,,,1,1,1,,-44,15804,3520,31,237,27
34.404,34.00,-1.89,-22.52,28.40,-4.08,12.75,0.96,0.03,nan,nan,211.00,1808.00,205.00,465.00,723.00,2470.00,0.00,1044.00,,,,,,,,,,,,1,1,1,,24,15908,3304,152,396,88
34.467,34.06,-1.83,inf,inf,3.21,1.12,-0.56,1.92,nan,nan,0.00,1478.00,337.00,476.00,671.00,2493.00,0.00,1005.00,,,,,,,,,,,,1,1,1,,48,16008,3192,87,272,107
34.527,34.11,-1.90,20.21,-16.21,-0.40,4.54,-3.32,4.02,nan,nan,1085.00,1103.00,299.00,501.00,630.00,2629.00,0.00,1308.00,,,,,,,,,,,,1,1,1,,100,16032,3132,145,218,-73
34.569,34.17,-1.97,-22.75,17.42,-10.48,11.46,-3.32,6.19,nan,nan,384.00,2449.00,247.00,620.00,560.00,2480.00,0.00,1040.00,,,,,,,,,,,,1,1,1,,64,15652,2924,263,49,-113
34.609,34.22,-1.60,inf,inf,-5.26,14.16,5.41,-4.41,nan,nan,0.00,1497.00,194.00,469.00,848.00,2333.00,0.00,789.00,,,,,,,,,,,,1,1,1,,192,16080,3040,-138,77,-55
34.692,34.28,-1.78,52.19,-33.89,20.88,-10.49,-5.06,4.84,nan,nan,1578.00,500.00,458.00,323.00,622.00,2755.00,0.00,1453.00,,,,,,,,,,,,1,1,1,,96,15880,3264,-411,77,-134
34.734,34.33,-2.05,-23.93,14.97,-17.82,13.93,-7.37,12.91,nan,nan,448.00,2741.00,247.00,776.00,419.00,2431.00,0.00,1041.00,,,,,,,,,,,,1,1,1,,248,15836,3292,-289,118,-47
34.797,34.39,-1.59,inf,inf,-14.81,29.80,7.25,-6.11,nan,nan,0.00,1596.00,99.00,450.00,899.00,2270.00,0.00,811.00,,,,,,,,,,,,1,1,1,,216,15868,3380,-164,103,-1
34.837,34.44,-1.68,26.43,-19.75,18.38,-11.05,-3.39,4.21,nan,nan,1173.00,948.00,494.00,362.00,624.00,2622.00,0.00,1331.00,,,,,,,,,,,,1,1,1,,296,15980,3248,-66,-7,-69
34.898,34.50,-1.79,-9.24,6.54,-13.10,13.34,-3.83,8.72,nan,nan,541.00,1921.00,234.00,654.00,493.00,2365.00,0.00,1167.00,,,,,,,,,,,,1,1,1,,252,16064,3488,-74,-13,-258
34.938,34.55,-1.55,-32.18,44.36,-4.33,15.86,2.88,-1.09,nan,nan,106.00,1727.00,174.00,432.00,742.00,2359.00,0.00,1015.00,,,,,,,,,,,,1,1,1,,152,15940,3368,2,203,-332
34.999,34.60,-1.49,inf,inf,4.72,0.67,-0.33,2.66,nan,nan,0.00,1418.00,336.00,454.00,642.00,2422.00,0.00,992.00,,,,,,,,,,,,1,1,1,,48,15760,3292,-73,248,-353
35.059,34.66,-1.53,18.83,-14.32,-0.54,6.27,-2.20,3.97,nan,nan,1004.00,1107.00,273.00,481.00,619.00,2519.00,0.00,1206.00,,,,,,,,,,,,1,1,1,,48,15972,3112,-117,108,-91
35.121,34.72,-1.56,-22.64,18.27,-8.38,10.98,-2.25,5.60,nan,nan,366.00,2384.00,244.00,578.00,567.00,2415.00,0.00,944.00,,,,,,,,,,,,1,1,1,,160,16084,3112,25,-55,-86
35.162,34.77,-1.23,inf,inf,-1.35,10.87,5.03,-3.64,nan,nan,0.00,1467.00,216.00,439.00,819.00,2320.00,0.00,775.00,,,,,,,,,,,,1,1,1,,96,15824,3116,-70,95,-161
35.225,34.83,-1.38,49.47,-32.05,20.40,-9.08,-4.25,4.57,nan,nan,1501.00,530.00,428.00,317.00,622.00,2688.00,0.00,1365.00,,,,,,,,,,,,1,1,2,,128,15772,3288,-260,227,-157
35.288,34.88,-1.66,-24.85,15.99,-17.65,14.95,-6.84,12.64,nan,nan,431.00,2765.00,233.00,750.00,421.00,2398.00,0.00,974.00,,,,,,,,,,,,1,1,2,,156,16088,2928,-275,245,-121
35.329,34.94,-1.17,inf,inf,-17.26,35.03,8.19,-6.61,nan,nan,0.00,1561.00,78.00,431.00,908.00,2217.00,0.00,690.00,,,,,,,,,,,,1,1,2,,44,16056,3164,-320,8,-217
35.412,34.99,-1.27,28.42,-21.51,20.13,-11.18,-3.22,4.16,nan,nan,1245.00,919.00,482.00,339.00,624.00,2609.00,0.00,1217.00,,,,,,,,,,,,1,1,2,,160,15768,3456,-236,-100,-187
35.433,35.05,-1.37,-9.94,7.23,-13.18,14.09,-3.24,8.52,nan,nan,528.00,1939.00,225.00,643.00,493.00,2323.00,0.00,1035.00,,,,,,,,,,,,1,1,2,,180,15888,3548,-119,121,-119
35.496,35.10,-1.09,-45.56,65.52,-5.09,19.48,4.21,-1.93,nan,nan,43.00,1662.00,145.00,404.00,758.00,2289.00,0.00,959.00,,,,,,,,,,,,1,1,2,,188,15904,3268,-126,227,-135
35.559,35.16,-1.03,-20.18,34.66,7.14,-1.06,0.14,2.56,nan,nan,144.00,1393.00,353.00,432.00,640.00,2384.00,0.00,1022.00,,,,,,,,,,,,1,1,2,,296,15848,3188,-118,122,-75
35.601,35.21,-1.02,16.29,-11.52,-1.28,8.22,-0.96,3.67,nan,nan,904.00,1136.00,249.00,470.00,615.00,2417.00,0.00,1158.00,,,,,,,,,,,,1,1,2,,376,15808,3276,-200,150,-205
35.661,35.27,-1.01,-21.41,17.75,-7.43,11.43,-0.69,4.69,nan,nan,368.00,2302.00,234.00,550.00,579.00,2327.00,0.00,944.00,,,,,,,,,,,,1,1,2,,204,15888,3320,-160,119,-239
35.785,35.32,-0.66,inf,inf,1.15,9.27,5.85,-3.27,nan,nan,0.00,1405.00,225.00,415.00,791.00,2224.00,0.00,726.00,,,,,,,,,,,,1,1,2,,280,15896,3296,-31,40,-231
35.826,35.38,-0.80,49.14,-31.91,20.76,-9.37,-3.47,4.69,nan,nan,1499.00,535.00,432.00,315.00,609.00,2597.00,0.00,1319.00,,,,,,,,,,,,1,1,2,,184,15900,3112,-24,77,-306
35.846,35.43,-1.09,-25.33,17.53,-21.39,23.03,-6.58,13.05,nan,nan,400.00,2704.00,161.00,700.00,410.00,2348.00,0.00,960.00,,,,,,,,,,,,1,1,2,,288,15748,3240,-194,90,-370
35.888,35.49,-0.59,inf,inf,-16.60,35.29,8.96,-7.13,nan,nan,0.00,1511.00,76.00,417.00,921.00,2181.00,0.00,754.00,,,,,,,,,,,,1,1,2,,112,15904,3264,-238,34,-395
35.948,35.54,-0.75,34.41,-24.76,24.12,-13.13,-3.69,4.64,nan,nan,1331.00,791.00,498.00,305.00,613.00,2623.00,0.00,1360.00,,,,,,,,,,,,1,1,2,,28,16040,3208,-220,43,-206
36.01,35.60,-0.88,-11.73,8.47,-11.77,12.12,-3.42,8.65,nan,nan,510.00,2013.00,244.00,641.00,491.00,2331.00,0.00,988.00,,,,,,,,,,,,1,1,2,,-16,15720,3420,-306,61,-389
36.051,35.65,-0.59,inf,inf,-4.68,19.35,4.88,-2.38,nan,nan,0.00,1617.00,145.00,399.00,767.00,2256.00,0.00,845.00,,,,,,,,,,,,1,1,2,,-156,15664,3428,-341,95,-204
36.155,35.71,-0.59,-4.83,13.80,10.24,-3.22,-0.48,3.81,nan,nan,337.00,1328.00,375.00,405.00,605.00,2363.00,0.00,966.00,,,,,,,,,,,,1,1,2,,-116,15676,3420,-288,123,-119
36.175,35.76,-0.59,14.09,-9.32,-2.50,9.15,-0.68,4.28,nan,nan,835.00,1168.00,242.00,481.00,592.00,2352.00,0.00,1093.00,,,,,,,,,,,,1,1,2,,-132,15768,3428,-396,207,7
36.217,35.82,-0.58,-20.18,17.49,-2.13,7.99,-0.38,4.91,nan,nan,365.00,2208.00,256.00,489.00,569.00,2285.00,0.00,922.00,,,,,,,,,,,,1,1,2,,-16,15800,3428,-454,217,-41
36.279,35.87,-0.25,inf,inf,3.12,7.19,5.95,-2.52,nan,nan,0.00,1379.00,243.00,406.00,758.00,2171.00,0.00,743.00,,,,,,,,,,,,1,1,2,,-72,15696,3624,-334,169,101
36.342,35.92,-0.39,49.52,-31.55,20.22,-7.86,-2.96,5.45,nan,nan,1460.00,522.00,402.00,309.00,579.00,2494.00,0.00,1327.00,,,,,,,,,,,,1,1,2,,76,15744,3604,-256,179,112
36.402,35.98,-0.68,-23.69,16.48,-12.79,12.77,-6.24,14.04,nan,nan,411.00,2607.00,240.00,656.00,386.00,2255.00,0.00,1074.00,,,,,,,,,,,,1,1,2,,228,15984,3736,-241,218,83
36.443,36.03,-0.14,inf,inf,-8.87,25.52,10.18,-7.13,nan,nan,0.00,1446.00,112.00,399.00,901.00,2078.00,0.00,807.00,,,,,,,,,,,,1,1,2,,284,16044,3808,-16,46,42
36.523,36.09,-0.30,42.20,-28.64,28.89,-15.21,-3.44,5.43,nan,nan,1425.00,645.00,511.00,267.00,585.00,2544.00,0.00,1391.00,,,,,,,,,,,,1,1,2,,352,15808,3804,120,76,-60
36.545,36.15,-0.45,-11.19,6.73,-11.88,11.71,-3.21,9.31,nan,nan,555.00,2065.00,250.00,651.00,472.00,2271.00,0.00,992.00,,,,,,,,,,,,1,1,2,,392,15820,3492,205,229,2
36.587,36.20,-0.15,inf,inf,-4.88,19.54,5.61,-2.50,nan,nan,0.00,1561.00,144.00,400.00,762.00,2199.00,0.00,811.00,,,,,,,,,,,,1,1,2,,400,15728,3272,204,172,-26
36.651,36.26,-0.19,5.36,1.91,12.15,-3.56,-1.08,4.47,nan,nan,533.00,1221.00,369.00,379.00,590.00,2377.00,0.00,995.00,,,,,,,,,,,,1,1,2,,412,15992,3440,-34,36,-226
36.71,36.31,-0.20,11.45,-7.29,-3.64,9.92,-0.26,4.45,nan,nan,785.00,1228.00,237.00,493.00,582.00,2302.00,0.00,1040.00,,,,,,,,,,,,1,1,2,,368,15856,3516,-73,149,-370
36.772,36.37,-0.16,-18.97,17.80,-2.22,9.21,0.45,4.56,nan,nan,351.00,2087.00,240.00,475.00,571.00,2232.00,0.00,894.00,,,,,,,,,,,,1,1,2,,388,15968,3204,129,83,-352
36.815,36.42,0.13,inf,inf,8.41,-0.52,5.80,-1.85,nan,nan,0.00,1329.00,335.00,405.00,733.00,2145.00,0.00,739.00,,,,,,,,,,,,1,1,2,,224,15944,3576,434,202,-389
36.897,36.48,-0.01,47.65,-30.48,17.13,-5.97,-2.84,6.06,nan,nan,1425.00,546.00,384.00,332.00,559.00,2442.00,0.00,1238.00,,,,,,,,,,,,1,1,2,,200,15844,3180,1125,309,-312
36.917,36.53,-0.31,-23.21,17.05,-11.43,12.62,-6.00,14.20,nan,nan,395.00,2519.00,236.00,624.00,381.00,2224.00,0.00,959.00,,,,,,,,,,,,1,1,2,,-144,16528,3340,627,177,-636
36.98,36.59,0.25,inf,inf,-13.93,32.98,10.94,-7.43,nan,nan,0.00,1397.00,82.00,399.00,903.00,2033.00,0.00,824.00,,,,,,,,,,,,1,1,2,,-4,15620,3268,30,223,-204
37.041,36.64,0.08,51.46,-32.96,31.98,-16.25,-3.16,5.14,nan,nan,1521.00,502.00,511.00,243.00,591.00,2535.00,0.00,1472.00,,,,,,,,,,,,1,1,2,,-12,15988,3140,-544,99,-125
37.102,36.70,-0.07,-12.53,7.18,-10.94,10.04,-2.89,8.62,nan,nan,555.00,2151.00,269.00,656.00,487.00,2284.00,0.00,1123.00,,,,,,,,,,,,1,1,2,,36,16024,3192,-644,-21,-159
37.143,36.75,0.26,inf,inf,-4.16,19.04,6.45,-3.57,nan,nan,0.00,1515.00,146.00,394.00,795.00,2189.00,0.00,798.00,,,,,,,,,,,,1,1,2,,-88,15824,3256,-258,13,-111
37.202,36.81,0.17,12.01,-3.68,17.92,-7.81,-1.56,4.42,nan,nan,639.00,1090.00,418.00,338.00,597.00,2426.00,0.00,1039.00,,,,,,,,,,,,1,1,2,,72,15772,3368,-140,43,-76
37.265,36.86,0.15,9.03,-5.73,-4.10,9.92,-0.11,3.65,nan,nan,754.00,1296.00,239.00,502.00,606.00,2338.00,0.00,1037.00,,,,,,,,,,,,1,1,2,,68,16020,3200,-205,114,114
37.325,36.92,0.16,-17.04,16.59,0.33,7.38,0.28,3.37,nan,nan,362.00,1998.00,253.00,451.00,611.00,2320.00,0.00,914.00,,,,,,,,,,,,1,1,2,,48,15788,3356,-42,255,115
37.367,36.97,0.38,inf,inf,4.76,3.50,4.58,-1.91,nan,nan,0.00,1374.00,288.00,420.00,752.00,2255.00,0.00,778.00,,,,,,,,,,,,1,1,2,,216,15840,3368,-185,232,-4
37.449,37.03,0.22,43.93,-28.87,13.93,-4.90,-2.77,5.13,nan,nan,1398.00,606.00,384.00,366.00,587.00,2496.00,0.00,1216.00,,,,,,,,,,,,1,1,2,,260,15868,3368,-185,139,-100
37.511,37.08,-0.04,-22.88,16.66,-9.84,10.95,-4.95,11.88,nan,nan,401.00,2512.00,251.00,613.00,424.00,2271.00,0.00,871.00,,,,,,,,,,,,1,1,3,,368,15848,3288,-103,49,-141
37.533,37.14,0.50,inf,inf,-10.88,29.24,10.68,-7.48,nan,nan,0.00,1387.00,95.00,391.00,910.00,2057.00,0.00,547.00,,,,,,,,,,,,1,1,3,,236,15948,3316,-145,101,-256
37.635,37.19,0.28,57.83,-36.16,35.27,-19.85,-3.88,5.86,nan,nan,1610.00,425.00,585.00,235.00,576.00,2558.00,0.00,1253.00,,,,,,,,,,,,1,1,3,,104,15684,3284,-101,26,-252
37.656,37.25,0.10,-15.05,9.12,-12.61,12.10,-3.28,9.41,nan,nan,523.00,2256.00,248.00,663.00,470.00,2271.00,0.00,925.00,,,,,,,,,,,,1,1,3,,192,15944,3300,-136,128,-197
37.698,37.30,0.44,inf,inf,-3.52,17.72,6.78,-3.61,nan,nan,0.00,1520.00,155.00,398.00,792.00,2163.00,0.00,721.00,,,,,,,,,,,,1,1,3,,148,15832,3180,127,254,-279
37.759,37.35,0.30,17.75,-9.01,21.73,-9.48,-2.20,4.94,nan,nan,768.00,1002.00,427.00,304.00,587.00,2453.00,0.00,1138.00,,,,,,,,,,,,1,1,3,,116,15748,3168,62,37,-179
37.8,37.41,0.27,6.36,-4.06,-4.38,10.41,-0.32,4.00,nan,nan,723.00,1377.00,234.00,501.00,597.00,2336.00,0.00,1192.00,,,,,,,,,,,,1,1,3,,192,15836,3056,-104,-26,-193
37.863,37.47,0.29,-18.00,17.37,1.96,7.81,0.52,2.90,nan,nan,353.00,2032.00,240.00,418.00,624.00,2327.00,0.00,1075.00,,,,,,,,,,,,1,1,3,,136,16012,3412,-157,24,-247
37.924,37.52,0.47,inf,inf,5.37,4.15,4.06,-1.73,nan,nan,0.00,1385.00,275.00,403.00,752.00,2291.00,0.00,970.00,,,,,,,,,,,,1,1,3,,40,15916,3200,-147,44,-286
37.986,37.58,0.30,39.54,-27.62,13.06,-4.12,-2.95,4.88,nan,nan,1415.00,697.00,374.00,371.00,597.00,2531.00,0.00,1450.00,,,,,,,,,,,,1,1,3,,-16,15840,3204,-137,124,-191
38.026,37.63,0.04,-24.35,17.81,-10.13,11.80,-5.04,10.73,nan,nan,387.00,2582.00,241.00,606.00,452.00,2351.00,0.00,1157.00,,,,,,,,,,,,1,1,3,,12,15800,3212,-74,101,-47
38.088,37.69,0.49,inf,inf,-9.84,25.85,9.07,-6.68,nan,nan,0.00,1451.00,112.00,411.00,897.00,2145.00,0.00,857.00,,,,,,,,,,,,1,1,3,,8,15956,3320,-312,48,-183
38.13,37.74,0.23,62.72,-39.40,36.66,-19.11,-4.61,5.60,nan,nan,1755.00,382.00,548.00,218.00,592.00,2652.00,0.00,1599.00,,,,,,,,,,,,1,1,3,,140,15828,3212,-473,82,-226
38.19,37.80,-0.04,-18.11,10.91,-14.21,13.09,-5.18,11.40,nan,nan,502.00,2427.00,242.00,688.00,437.00,2322.00,0.00,1325.00,,,,,,,,,,,,1,1,3,,108,15856,3380,-384,-36,-86
38.251,37.85,0.32,inf,inf,-4.68,18.23,7.11,-4.56,nan,nan,0.00,1584.00,154.00,411.00,829.00,2190.00,0.00,1022.00,,,,,,,,,,,,1,1,3,,132,15968,3620,-443,56,-107
38.394,37.91,0.17,23.21,-13.15,23.35,-10.50,-2.62,5.40,nan,nan,870.00,902.00,438.00,293.00,577.00,2464.00,0.00,1404.00,,,,,,,,,,,,1,1,3,,212,15968,3432,-399,56,-253
38.415,37.96,0.14,1.46,-1.30,-8.70,11.78,-0.52,4.96,nan,nan,681.00,1553.00,235.00,573.00,569.00,2295.00,0.00,1301.00,,,,,,,,,,,,1,1,3,,124,15780,3752,-427,-106,-151
38.434,38.02,0.20,-14.96,16.35,2.65,6.97,1.43,2.18,nan,nan,353.00,1852.00,248.00,416.00,638.00,2288.00,0.00,1295.00,,,,,,,,,,,,1,1,3,,196,15924,3736,-244,4,-206
38.476,38.07,0.33,inf,inf,6.37,2.77,2.73,0.49,inf,inf,0.00,1360.00,291.00,402.00,683.00,2275.00,80.00,1296.00,,,,,,,,,,,,1,1,3,,212,15920,3644,-67,157,-246
38.517,38.13,0.19,33.70,-24.75,9.91,-2.56,-2.41,5.17,nan,nan,1347.00,813.00,364.00,403.00,582.00,2459.00,0.00,1703.00,,,,,,,,,,,,1,1,3,,112,15820,3484,3,84,-191
38.578,38.18,-0.02,-23.59,18.24,-8.92,11.39,-3.97,9.88,nan,nan,373.00,2477.00,241.00,584.00,464.00,2305.00,0.00,1445.00,,,,,,,,,,,,1,1,3,,172,15800,3384,-75,-18,-219
38.638,38.24,0.38,inf,inf,-5.45,19.73,7.93,-5.06,inf,inf,0.00,1425.00,144.00,407.00,839.00,2149.00,329.00,1162.00,,,,,,,,,,,,1,1,3,,248,15860,3784,-43,38,-215
38.74,38.29,0.12,60.26,-38.67,34.09,-17.31,-4.80,5.45,nan,nan,1765.00,413.00,521.00,230.00,599.00,2683.00,0.00,1903.00,,,,,,,,,,,,1,1,3,,116,15928,3584,31,158,-137
38.76,38.35,-0.20,-20.77,12.86,-15.63,13.65,-6.28,12.59,nan,nan,474.00,2559.00,241.00,717.00,418.00,2349.00,0.00,1488.00,,,,,,,,,,,,1,1,3,,96,15724,3452,116,199,-29
38.821,38.40,0.15,inf,inf,-7.13,20.95,6.70,-4.71,inf,inf,0.00,1615.00,139.00,421.00,842.00,2235.00,61.00,1267.00,,,,,,,,,,,,1,1,3,,68,15812,3500,-36,38,-247
38.864,38.46,-0.02,25.11,-15.95,22.05,-10.56,-3.09,5.18,nan,nan,978.00,902.00,450.00,309.00,589.00,2525.00,0.00,1636.00,,,,,,,,,,,,1,1,3,,40,15764,3324,32,137,-194
38.925,38.51,-0.11,-3.89,2.26,-9.34,12.39,-1.99,6.83,nan,nan,619.00,1744.00,230.00,578.00,528.00,2313.00,0.00,1490.00,,,,,,,,,,,,1,1,3,,56,15912,3380,108,217,-138
39.006,38.57,-0.02,-14.45,16.82,2.38,7.29,1.76,1.56,nan,nan,341.00,1792.00,245.00,417.00,656.00,2297.00,0.00,1426.00,,,,,,,,,,,,1,1,3,,120,15868,3360,17,334,-168
39.026,38.62,0.05,inf,inf,6.70,0.73,1.40,1.99,inf,inf,0.00,1369.00,323.00,419.00,645.00,2303.00,151.00,1438.00,,,,,,,,,,,,1,1,3,,40,15872,3180,-112,195,-143
39.089,38.67,-0.07,30.60,-23.16,7.23,-1.20,-2.42,5.08,nan,nan,1308.00,881.00,355.00,432.00,585.00,2466.00,0.00,1759.00,,,,,,,,,,,,1,1,3,,184,15828,3368,-91,65,-102
39.13,38.73,-0.24,-23.34,18.06,-8.59,11.36,-3.47,9.20,nan,nan,375.00,2465.00,240.00,577.00,477.00,2301.00,0.00,1436.00,,,,,,,,,,,,1,1,3,,128,15908,3324,-79,89,-145
39.171,38.78,0.16,inf,inf,-5.05,18.24,7.78,-4.50,inf,inf,0.00,1424.00,155.00,417.00,816.00,2129.00,293.00,1194.00,,,,,,,,,,,,1,1,3,,60,15836,3392,-94,165,-71
39.233,38.84,-0.10,62.48,-38.65,30.07,-14.49,-5.02,6.24,nan,nan,1693.00,378.00,481.00,250.00,576.00,2649.00,0.00,1894.00,,,,,,,,,,,,1,1,3,,20,15856,3284,-24,94,-38
39.296,38.90,-0.46,-22.81,14.55,-15.72,14.14,-7.30,14.59,nan,nan,449.00,2651.00,235.00,710.00,382.00,2317.00,0.00,1424.00,,,,,,,,,,,,1,1,3,,184,15936,3472,-116,118,-48
39.337,38.95,-0.08,inf,inf,-14.09,29.74,7.24,-5.18,nan,nan,0.00,1583.00,98.00,438.00,855.00,2215.00,0.00,1213.00,,,,,,,,,,,,1,1,3,,176,15868,3424,-102,293,-69
39.398,39.01,-0.23,27.12,-18.57,19.91,-10.52,-3.15,4.95,nan,nan,1087.00,894.00,467.00,336.00,597.00,2547.00,0.00,1587.00,,,,,,,,,,,,1,1,3,,336,15640,3356,-61,313,-37
39.46,39.06,-0.39,-6.48,4.78,-12.15,13.74,-3.39,8.53,nan,nan,566.00,1806.00,225.00,623.00,494.00,2336.00,0.00,1408.00,,,,,,,,,,,,1,1,3,,248,16020,3172,103,185,46
39.522,39.12,-0.27,-20.25,25.96,-0.01,9.74,2.02,0.76,nan,nan,231.00,1764.00,224.00,429.00,682.00,2323.00,0.00,1287.00,,,,,,,,,,,,1,1,3,,212,15904,3456,-75,221,57
39.564,39.17,-0.23,inf,inf,6.53,-0.16,0.52,2.84,nan,nan,0.00,1371.00,340.00,432.00,626.00,2331.00,0.00,1296.00,,,,,,,,,,,,1,1,3,,268,15840,3572,-135,223,-54
39.667,39.23,-0.32,25.75,-19.09,3.98,2.16,-2.10,4.79,nan,nan,1146.00,957.00,314.00,449.00,591.00,2454.00,0.00,1479.00,,,,,,,,,,,,1,1,3,,336,15864,3264,-224,278,4
39.688,39.28,-0.45,-22.78,18.37,-7.53,10.85,-2.96,8.42,nan,nan,365.00,2391.00,242.00,561.00,493.00,2303.00,0.00,1078.00,,,,,,,,,,,,1,1,3,,428,16032,3408,-284,187,-181
39.73,39.34,-0.09,inf,inf,-0.60,11.85,6.81,-3.83,nan,nan,0.00,1393.00,202.00,415.00,801.00,2173.00,0.00,766.00,,,,,,,,,,,,1,1,3,,208,15776,3424,-258,-92,-220
39.835,39.39,-0.32,62.81,-38.02,25.67,-11.70,-4.62,5.92,nan,nan,1627.00,367.00,448.00,276.00,582.00,2630.00,0.00,1327.00,,,,,,,,,,,,1,1,3,,264,16188,3644,260,1,-321
39.855,39.45,-0.67,-24.59,15.99,-16.85,14.37,-7.32,14.41,nan,nan,429.00,2737.00,237.00,738.00,386.00,2331.00,0.00,928.00,,,,,,,,,,,,1,1,3,,172,15980,3448,97,64,-255
39.897,39.50,-0.23,inf,inf,-13.35,29.68,8.03,-6.20,nan,nan,0.00,1533.00,97.00,426.00,891.00,2207.00,0.00,693.00,,,,,,,,,,,,1,1,3,,228,15920,3316,73,-45,-134
39.959,39.56,-0.39,29.91,-21.51,20.72,-11.72,-3.42,4.71,nan,nan,1211.00,866.00,491.00,336.00,608.00,2591.00,0.00,1117.00,,,,,,,,,,,,1,1,3,,212,16072,3492,86,20,-185
40.001,39.61,-0.56,-9.44,6.82,-12.03,12.51,-3.71,8.53,nan,nan,535.00,1922.00,240.00,641.00,497.00,2366.00,0.00,917.00,,,,,,,,,,,,1,1,3,,184,15828,3476,-88,197,-166
40.062,39.67,-0.39,-39.18,54.64,-3.52,15.27,2.74,-1.17,nan,nan,69.00,1729.00,177.00,425.00,747.00,2377.00,0.00,830.00,,,,,,,,,,,,1,1,3,,284,15832,3388,-146,162,-153
40.124,39.72,-0.41,inf,inf,5.22,0.50,-0.72,2.94,nan,nan,0.00,1392.00,336.00,447.00,637.00,2442.00,0.00,854.00,,,,,,,,,,,,1,1,3,,240,15884,3204,43,249,-115
40.205,39.78,-0.46,15.43,-13.14,-1.45,6.24,-1.47,3.66,nan,nan,1002.00,1227.00,278.00,499.00,621.00,2467.00,0.00,994.00,,,,,,,,,,,,1,1,4,,208,16008,3276,-49,169,-222
40.225,39.83,-0.52,-22.52,18.23,-6.91,9.60,-1.64,5.66,nan,nan,366.00,2375.00,256.00,566.00,559.00,2354.00,0.00,746.00,,,,,,,,,,,,1,1,4,,168,15796,3176,-86,-59,-155
40.307,39.89,-0.20,inf,inf,-0.04,10.95,5.80,-3.16,nan,nan,0.00,1386.00,210.00,416.00,787.00,2222.00,0.00,510.00,,,,,,,,,,,,1,1,4,,200,15940,3392,-25,149,-167
40.329,39.94,-0.40,58.09,-35.75,23.13,-10.17,-4.10,5.71,nan,nan,1567.00,416.00,432.00,293.00,583.00,2591.00,0.00,1083.00,,,,,,,,,,,,1,1,4,,224,15764,3380,43,294,-127
40.389,40.00,-0.72,-26.35,17.78,-15.75,13.76,-6.75,13.56,nan,nan,402.00,2797.00,240.00,718.00,400.00,2331.00,0.00,716.00,,,,,,,,,,,,1,1,4,,152,15816,3144,-50,254,-159
40.451,40.05,-0.23,inf,inf,-15.14,32.94,9.08,-6.94,nan,nan,0.00,1487.00,84.00,419.00,910.00,2160.00,0.00,464.00,,,,,,,,,,,,1,1,4,,308,15928,3164,-143,193,-104
40.492,40.10,-0.40,35.49,-25.31,23.09,-12.93,-3.69,4.89,nan,nan,1344.00,769.00,502.00,316.00,605.00,2606.00,0.00,985.00,,,,,,,,,,,,1,1,4,,228,15812,3508,-186,81,-150
40.575,40.16,-0.57,-10.62,6.87,-12.12,12.47,-3.82,9.05,nan,nan,545.00,2011.00,241.00,644.00,484.00,2343.00,0.00,721.00,,,,,,,,,,,,1,1,4,,184,16004,3396,-90,4,-165
40.637,40.22,-0.32,inf,inf,-4.30,18.23,4.36,-2.53,nan,nan,0.00,1632.00,153.00,405.00,781.00,2313.00,0.00,595.00,,,,,,,,,,,,1,1,4,,268,15860,3236,18,70,-228
40.679,40.27,-0.37,inf,inf,8.61,-2.62,-1.21,3.48,nan,nan,0.00,1364.00,374.00,425.00,624.00,2453.00,0.00,708.00,,,,,,,,,,,,1,1,4,,212,15880,3328,-68,134,-209
40.74,40.33,-0.43,15.18,-10.74,-2.65,8.24,-1.53,3.86,nan,nan,884.00,1162.00,255.00,496.00,615.00,2460.00,0.00,834.00,,,,,,,,,,,,1,1,4,,348,15728,3476,-208,12,-265
40.8,40.38,-0.46,-22.36,18.68,-5.43,8.88,-1.10,4.14,nan,nan,356.00,2331.00,259.00,544.00,601.00,2400.00,0.00,711.00,,,,,,,,,,,,1,1,4,,204,16016,3348,-230,150,-181
40.842,40.44,-0.22,inf,inf,1.27,8.04,4.41,-2.17,nan,nan,0.00,1392.00,240.00,427.00,765.00,2286.00,0.00,553.00,,,,,,,,,,,,1,1,4,,220,16012,3584,-166,287,-115
40.964,40.49,-0.40,52.67,-33.54,17.97,-8.00,-3.86,5.16,nan,nan,1535.00,486.00,422.00,339.00,598.00,2605.00,0.00,1066.00,,,,,,,,,,,,1,1,4,,376,15824,3280,19,287,3
40.985,40.55,-0.73,-25.58,17.90,-13.07,12.56,-6.94,13.53,nan,nan,394.00,2705.00,244.00,667.00,402.00,2351.00,0.00,741.00,,,,,,,,,,,,1,1,4,,384,15884,3108,-98,215,-114
41.006,40.60,-0.24,inf,inf,-15.10,33.15,9.02,-7.02,nan,nan,0.00,1473.00,83.00,416.00,915.00,2170.00,0.00,543.00,,,,,,,,,,,,1,1,4,,316,15812,3276,-131,32,-64
41.067,40.66,-0.42,45.21,-30.52,28.72,-15.65,-3.85,4.55,nan,nan,1493.00,602.00,525.00,272.00,618.00,2647.00,0.00,1089.00,,,,,,,,,,,,1,1,4,,280,15956,3376,-154,38,-168
41.129,40.71,-0.58,-11.43,5.96,-11.21,10.55,-3.51,8.42,nan,nan,581.00,2128.00,263.00,654.00,498.00,2354.00,0.00,784.00,,,,,,,,,,,,1,1,4,,264,16016,3588,-21,169,-213
41.17,40.77,-0.29,inf,inf,-4.88,19.54,5.21,-3.22,nan,nan,0.00,1561.00,144.00,400.00,798.00,2278.00,0.00,701.00,,,,,,,,,,,,1,1,4,,116,15856,3176,55,100,-218
41.231,40.82,-0.34,4.37,4.14,14.47,-6.69,-1.30,3.60,nan,nan,481.00,1196.00,419.00,376.00,621.00,2454.00,0.00,885.00,,,,,,,,,,,,1,1,4,,232,15784,3300,51,93,-139
41.293,40.88,-0.37,10.87,-7.61,-4.02,9.14,-1.04,3.63,nan,nan,807.00,1267.00,249.00,511.00,617.00,2427.00,0.00,816.00,,,,,,,,,,,,1,1,4,,344,15908,3172,110,61,-85
41.334,40.93,-0.37,-19.01,17.15,-0.11,7.46,-0.25,2.98,nan,nan,364.00,2128.00,254.00,458.00,630.00,2394.00,0.00,708.00,,,,,,,,,,,,1,1,4,,360,15776,3308,-168,126,-101
