Time_Host,Time_Arduino,easingdata,CH1_Oxy,CH1_Deoxy,CH2_Oxy,CH2_Deoxy,CH3_Oxy,CH3_Deoxy,CH4_Oxy,CH4_Deoxy,CH1_PD730,CH1_PD850,CH2_PD730,CH2_PD850,CH3_PD730,CH3_PD850,CH4_PD730,CH4_PD850,Answers,airplane_playstate,trail_times,frameRate,Airplane X,Airplane Y,Correct,Wrong,Slow,AnswerRate,CorrectRate,VFTstates,VFTchoose,VFTCount,Culfstates,ax,ay,az,gx,gy,gz
0.056,18.82,-0.06,-2.49,-5.47,-17.89,-23.40,-3.06,6.43,16.81,23.08,237.00,689.00,213.00,527.00,304.00,962.00,641.00,1134.00,,,,,,,,,,,,0,0,0,,-3412,16048,1028,-1650,154,-725
1.264,0.04,0.00,0.00,0.00,0.00,0.00,0.00,0.00,0.00,0.00,243.00,650.00,194.00,459.00,342.00,943.00,688.00,1136.00,,,,,,,,,,,,0,0,0,,-3396,15824,1896,-188,293,-114
1.285,0.10,0.00,0.00,0.00,0.00,0.00,0.00,0.00,0.00,0.00,252.00,646.00,226.00,432.00,329.00,976.00,661.00,1189.00,,,,,,,,,,,,0,0,0,,-3348,15636,2172,-192,102,-139
1.305,0.15,0.00,0.00,0.00,0.00,0.00,0.00,0.00,0.00,0.00,229.00,700.00,208.00,509.00,299.00,928.00,630.00,1147.00,,,,,,,,,,,,0,0,0,,-3404,15728,2332,-255,200,-67
1.326,0.21,0.00,0.00,0.00,0.00,0.00,0.00,0.00,0.00,0.00,205.00,642.00,150.00,451.00,383.00,873.00,726.00,1093.00,,,,,,,,,,,,0,0,0,,-3464,15796,2164,-223,325,28
1.347,0.26,0.00,0.00,0.00,0.00,0.00,0.00,0.00,0.00,0.00,290.00,592.00,261.00,384.00,327.00,984.00,656.00,1232.00,,,,,,,,,,,,0,0,0,,-3328,15708,2216,-261,183,117
1.367,1.05,0.00,0.00,0.00,0.00,0.00,0.00,0.00,0.00,0.00,231.00,776.00,224.00,560.00,226.00,917.00,551.00,1155.00,,,,,,,,,,,,0,0,0,,-3308,15668,2544,-65,-15,-285
1.387,1.11,0.00,0.00,0.00,0.00,0.00,0.00,0.00,0.00,0.00,157.00,667.00,107.00,462.00,384.00,839.00,763.00,1089.00,,,,,,,,,,,,0,0,0,,-3296,15656,2428,-29,-13,-240
1.429,1.16,0.00,0.00,0.00,0.00,0.00,0.00,0.00,0.00,0.00,311.00,622.00,272.00,404.00,329.00,951.00,674.00,1244.00,,,,,,,,,,,,0,0,0,,-3344,15668,2572,-169,83,-207
1.511,1.22,0.00,0.00,0.00,0.00,0.00,0.00,0.00,0.00,0.00,246.00,718.00,208.00,482.00,271.00,939.00,597.00,1197.00,,,,,,,,,,,,0,0,0,,-3272,15696,2416,-151,168,-119
1.552,1.27,0.00,0.00,0.00,0.00,0.00,0.00,0.00,0.00,0.00,205.00,685.00,171.00,482.00,304.00,912.00,675.00,1189.00,,,,,,,,,,,,0,0,0,,-3272,15784,2416,-76,143,-198
1.594,1.33,0.15,1.31,-1.43,-1.51,3.17,2.94,-2.46,0.76,-1.15,250.00,661.00,175.00,451.00,346.00,881.00,695.00,1168.00,,,,,,,,,,,,0,0,0,,-3316,15640,2652,-2,47,-189
1.657,1.38,0.04,3.24,-3.37,7.84,-6.34,-2.02,1.29,-2.42,0.99,268.00,645.00,247.00,402.00,309.00,969.00,656.00,1251.00,,,,,,,,,,,,0,0,0,,-3212,15736,2436,9,146,-126
1.718,1.44,-0.12,-4.24,3.05,-4.25,1.26,-3.07,5.56,-2.12,3.09,217.00,730.00,204.00,529.00,250.00,901.00,582.00,1168.00,,,,,,,,,,,,0,0,0,,-3300,15648,2312,73,252,-119
1.759,1.49,0.25,-3.83,6.26,-7.30,11.63,7.25,-5.84,4.80,-3.94,181.00,659.00,123.00,452.00,384.00,813.00,751.00,1073.00,,,,,,,,,,,,0,0,0,,-3308,15776,2248,177,77,-66
1.862,1.55,0.08,9.77,-9.69,14.75,-12.32,-3.22,1.34,-3.78,1.36,335.00,590.00,301.00,359.00,315.00,1015.00,659.00,1307.00,,,,,,,,,,,,0,0,0,,-3184,15800,2320,-15,38,-123
1.883,1.60,-0.15,-4.36,1.00,-5.27,1.24,-4.54,7.35,-3.60,4.27,243.00,775.00,208.00,551.00,233.00,910.00,561.00,1200.00,,,,,,,,,,,,0,0,0,,-3200,15716,2336,-61,244,-92
1.945,1.66,0.08,-4.19,5.29,-5.36,7.31,4.45,-3.45,3.09,-2.99,192.00,686.00,150.00,470.00,355.00,852.00,736.00,1119.00,,,,,,,,,,,,0,0,0,,-3192,15816,2152,-19,171,-161
2.007,1.71,0.05,6.68,-6.67,7.54,-5.71,-0.56,0.15,-1.82,0.75,301.00,615.00,240.00,400.00,320.00,943.00,657.00,1229.00,,,,,,,,,,,,0,0,0,,-3136,15792,2160,-92,-29,-261
2.069,1.77,-0.00,-0.61,-1.01,1.77,-2.50,-0.90,1.46,-1.76,1.28,253.00,705.00,224.00,461.00,300.00,923.00,638.00,1209.00,,,,,,,,,,,,0,0,0,,-3248,15724,2500,-74,-25,-277
2.129,1.82,-0.07,-1.53,0.66,-0.94,0.23,-1.28,2.66,-1.03,0.83,235.00,699.00,203.00,477.00,283.00,907.00,645.00,1189.00,,,,,,,,,,,,0,0,0,,-3268,15704,2368,-87,81,-166
2.15,1.88,0.16,-0.36,0.35,-2.73,4.89,4.53,-4.39,2.37,-2.97,234.00,673.00,163.00,452.00,373.00,871.00,745.00,1151.00,,,,,,,,,,,,0,0,0,,-3292,15796,2360,-91,178,-153
2.23,1.93,0.03,5.32,-6.27,9.98,-9.31,-2.46,1.14,-3.20,1.16,302.00,642.00,279.00,400.00,314.00,990.00,659.00,1284.00,,,,,,,,,,,,0,0,0,,-3352,15740,2372,-190,79,-238
2.273,1.99,-0.16,-2.56,0.62,-4.51,1.71,-3.89,6.90,-2.51,3.38,240.00,729.00,200.00,528.00,236.00,898.00,577.00,1177.00,,,,,,,,,,,,0,0,0,,-3196,15728,2684,-123,96,-90
2.313,2.04,0.27,-5.06,7.51,-7.87,13.22,8.52,-7.25,5.79,-5.09,173.00,669.00,114.00,443.00,405.00,803.00,785.00,1064.00,,,,,,,,,,,,0,0,0,,-3340,15780,2512,-34,284,-120
2.375,2.10,0.17,10.60,-10.40,15.46,-12.31,-1.67,0.58,-2.64,0.86,343.00,582.00,297.00,349.00,319.00,974.00,663.00,1266.00,,,,,,,,,,,,0,0,0,,-3276,15844,2212,-4,211,-143
2.436,2.15,0.02,-2.98,0.23,-1.90,-0.33,-2.96,4.94,-1.54,2.25,247.00,749.00,213.00,503.00,258.00,912.00,603.00,1168.00,,,,,,,,,,,,0,0,0,,-3152,15720,2452,37,28,-149
2.498,2.21,0.22,-3.94,5.69,-4.48,7.39,3.99,-2.55,2.98,-2.32,187.00,672.00,147.00,453.00,341.00,847.00,711.00,1104.00,,,,,,,,,,,,0,0,0,,-3368,15704,2360,73,41,-181
2.559,2.26,0.31,4.97,-4.69,5.93,-3.98,2.08,-1.41,0.23,-0.46,279.00,624.00,225.00,407.00,332.00,886.00,676.00,1171.00,,,,,,,,,,,,0,0,0,,-3204,15768,2368,21,190,-109
2.601,2.32,0.29,0.73,-1.53,4.67,-3.39,-0.08,0.28,-1.21,0.75,254.00,678.00,223.00,421.00,315.00,922.00,650.00,1200.00,,,,,,,,,,,,0,0,0,,-3192,15832,2236,-72,155,-154
2.642,2.37,0.20,-1.92,0.87,-1.49,-0.03,-1.52,3.48,-1.84,2.69,234.00,706.00,208.00,491.00,272.00,896.00,592.00,1168.00,,,,,,,,,,,,0,0,0,,-3184,15816,2076,-43,122,-194
2.703,2.43,0.52,2.53,-3.13,-3.11,5.95,6.53,-5.50,3.60,-3.24,268.00,659.00,155.00,446.00,382.00,829.00,739.00,1104.00,,,,,,,,,,,,0,0,0,,-3248,15660,2276,-69,74,-179
2.766,2.48,0.40,6.89,-6.98,12.94,-10.57,-1.87,0.65,-3.02,1.16,305.00,615.00,283.00,368.00,319.00,980.00,657.00,1275.00,,,,,,,,,,,,0,0,0,,-3268,15764,2384,-98,154,-119
2.828,2.54,0.09,-4.57,1.30,-5.62,1.36,-5.64,8.62,-3.04,3.92,240.00,775.00,208.00,557.00,222.00,919.00,566.00,1185.00,,,,,,,,,,,,0,0,0,,-3228,15836,2212,-155,229,-221
2.889,2.59,0.46,-6.53,9.68,-8.75,13.84,7.35,-6.40,5.12,-4.70,158.00,669.00,112.00,451.00,395.00,822.00,778.00,1081.00,,,,,,,,,,,,0,0,0,,-3292,15692,2376,-121,4,-257
2.93,2.65,0.44,7.45,-8.23,9.82,-8.79,0.20,-0.73,-1.66,0.29,323.00,622.00,272.00,397.00,331.00,937.00,672.00,1237.00,,,,,,,,,,,,0,0,0,,-3268,15756,2396,-85,88,-155
2.99,2.70,0.29,-1.62,-0.30,-0.23,-0.89,-2.57,4.73,-1.59,2.60,248.00,720.00,213.00,478.00,259.00,903.00,592.00,1159.00,,,,,,,,,,,,0,0,0,,-3252,15820,2464,-79,290,-124
3.05,2.76,0.36,-3.77,5.44,-4.05,6.74,1.71,-0.61,1.25,-0.83,189.00,672.00,151.00,453.00,320.00,880.00,677.00,1136.00,,,,,,,,,,,,0,0,0,,-3236,15688,2172,-111,248,-57
3.111,2.81,0.51,1.68,-1.71,-0.32,2.25,3.23,-1.91,0.86,-0.62,252.00,656.00,180.00,441.00,334.00,858.00,674.00,1147.00,,,,,,,,,,,,0,0,0,,-3344,15724,2288,22,89,-107
3.131,2.87,0.39,3.00,-3.08,6.80,-5.00,-1.86,1.60,-2.28,1.19,265.00,646.00,234.00,404.00,303.00,955.00,647.00,1237.00,,,,,,,,,,,,0,0,0,,-3224,15764,2292,11,164,-79
3.192,2.92,0.21,-2.88,1.20,-3.52,1.85,-3.18,6.35,-1.20,2.25,234.00,727.00,195.00,506.00,240.00,886.00,599.00,1152.00,,,,,,,,,,,,0,0,0,,-3200,15816,2140,-23,166,-103
3.275,2.98,0.55,-2.95,5.06,-6.91,11.80,7.00,-5.51,4.60,-3.82,190.00,657.00,121.00,443.00,379.00,814.00,749.00,1078.00,,,,,,,,,,,,0,0,0,,-3192,15828,2244,-46,93,-180
3.337,3.03,0.39,8.59,-8.38,15.30,-11.43,-2.70,1.17,-3.68,1.52,319.00,597.00,284.00,343.00,315.00,999.00,652.00,1296.00,,,,,,,,,,,,0,0,0,,-3316,15800,2240,-30,82,-220
3.358,3.09,0.11,-3.84,0.52,-5.82,2.06,-5.14,8.20,-2.72,4.21,247.00,769.00,201.00,551.00,225.00,911.00,554.00,1161.00,,,,,,,,,,,,0,0,0,,-3240,15676,2296,-88,44,-243
3.42,3.14,0.36,-4.80,6.08,-5.26,8.29,5.13,-4.24,3.49,-3.38,186.00,688.00,142.00,456.00,366.00,847.00,746.00,1113.00,,,,,,,,,,,,0,0,0,,-3400,15608,2360,-125,148,-120
3.481,3.20,0.33,6.42,-6.76,8.57,-6.29,-0.21,0.04,-1.87,0.80,304.00,623.00,243.00,390.00,320.00,933.00,656.00,1230.00,,,,,,,,,,,,0,0,0,,-3216,15872,2320,-48,223,-101
3.522,3.25,0.23,-1.12,-1.20,1.92,-2.54,-1.67,2.80,-1.90,1.73,258.00,723.00,224.00,459.00,283.00,918.00,624.00,1201.00,,,,,,,,,,,,0,0,0,,-3220,15772,2148,-161,99,-223
3.582,3.31,0.24,-0.24,-0.16,0.20,-0.42,0.28,0.82,-0.03,0.18,240.00,679.00,206.00,464.00,304.00,896.00,656.00,1163.00,,,,,,,,,,,,0,0,0,,-3328,15644,2284,-120,-29,-230
3.644,3.36,0.48,0.48,0.46,-1.26,4.06,5.18,-4.31,2.56,-2.31,229.00,649.00,166.00,436.00,367.00,847.00,716.00,1122.00,,,,,,,,,,,,0,0,0,,-3400,15788,2476,-72,112,-115
3.705,3.42,0.38,6.10,-6.47,11.24,-9.06,-1.66,1.11,-2.20,1.08,301.00,626.00,269.00,378.00,310.00,960.00,650.00,1237.00,,,,,,,,,,,,0,0,0,,-3172,15736,2268,-82,268,-102
3.766,3.47,0.17,-2.79,1.17,-3.14,1.07,-3.67,6.90,-2.26,3.92,234.00,725.00,202.00,509.00,235.00,890.00,558.00,1149.00,,,,,,,,,,,,0,0,0,,-3152,15724,2240,-92,121,-32
3.827,3.53,0.61,-5.00,7.81,-4.89,10.37,8.93,-7.43,6.47,-5.25,170.00,662.00,126.00,425.00,406.00,794.00,782.00,1040.00,,,,,,,,,,,,0,0,0,,-3136,15848,2280,-117,61,-137
3.867,3.58,0.51,10.94,-10.51,16.12,-12.53,-1.47,0.40,-2.92,1.15,343.00,576.00,297.00,342.00,321.00,971.00,656.00,1270.00,,,,,,,,,,,,0,0,0,,-3200,15848,2336,-121,140,-175
3.929,3.64,0.35,-2.79,-0.20,-1.83,-0.35,-2.66,4.62,-1.84,2.53,252.00,752.00,213.00,502.00,261.00,909.00,597.00,1173.00,,,,,,,,,,,,0,0,0,,-3112,15752,2368,-134,65,-251
3.971,3.69,0.53,-3.33,5.29,-4.05,6.99,4.05,-2.24,3.62,-2.69,189.00,663.00,149.00,450.00,335.00,838.00,717.00,1087.00,,,,,,,,,,,,0,0,0,,-3160,15848,2208,-111,2,-318
4.076,3.75,0.60,5.32,-5.20,6.49,-4.17,1.91,-1.08,0.42,-0.36,285.00,624.00,225.00,400.00,327.00,884.00,670.00,1159.00,,,,,,,,,,,,0,0,0,,-3336,15760,2380,-204,19,-317
4.096,3.80,0.55,1.20,-1.84,5.27,-4.00,-0.43,0.52,-0.70,0.46,256.00,671.00,228.00,418.00,313.00,929.00,654.00,1185.00,,,,,,,,,,,,0,0,0,,-3360,15720,2204,-272,74,-246
4.139,3.86,0.44,-1.33,0.21,-1.36,-0.07,-1.59,3.50,-0.47,1.05,240.00,702.00,208.00,489.00,272.00,898.00,631.00,1156.00,,,,,,,,,,,,0,0,0,,-3348,15756,2328,-249,84,-99
4.201,3.91,0.75,-1.06,1.72,-3.86,6.81,6.49,-5.44,3.69,-3.37,220.00,667.00,150.00,449.00,381.00,829.00,743.00,1104.00,,,,,,,,,,,,0,0,0,,-3292,15748,2612,-261,200,-43
4.262,3.97,0.63,6.99,-7.67,12.86,-10.15,-1.67,0.47,-2.54,0.77,316.00,624.00,277.00,365.00,321.00,977.00,665.00,1264.00,,,,,,,,,,,,0,0,0,,-3276,15876,2324,-91,247,-118
4.304,4.02,0.33,-4.48,0.74,-5.80,1.42,-5.39,8.62,-3.22,4.21,247.00,784.00,208.00,560.00,221.00,910.00,559.00,1184.00,,,,,,,,,,,,0,0,0,,-3196,15808,2256,-162,67,-132
4.344,4.08,0.67,-6.66,9.37,-9.72,15.36,7.27,-6.32,5.20,-4.61,161.00,678.00,105.00,450.00,394.00,823.00,773.00,1075.00,,,,,,,,,,,,0,0,0,,-3304,15748,2656,-192,-7,-184
4.449,4.13,0.65,7.50,-8.25,10.12,-8.96,0.18,-0.77,-1.45,0.24,323.00,621.00,273.00,394.00,332.00,939.00,671.00,1228.00,,,,,,,,,,,,0,0,0,,-3260,15696,2592,-150,187,-175
4.471,4.19,0.42,-1.82,-0.01,0.38,-0.92,-3.93,6.37,-1.45,2.55,245.00,720.00,211.00,467.00,243.00,912.00,592.00,1154.00,,,,,,,,,,,,0,0,0,,-3288,15764,2352,-89,176,-76
4.531,4.24,0.42,-3.65,5.20,-3.98,6.24,0.51,0.86,0.69,-0.34,191.00,673.00,155.00,458.00,302.00,887.00,666.00,1146.00,,,,,,,,,,,,0,0,0,,-3180,15736,2548,-75,103,45
4.573,4.30,0.59,0.64,-0.46,0.02,2.34,3.77,-2.31,1.12,-0.65,240.00,661.00,178.00,434.00,338.00,849.00,672.00,1136.00,,,,,,,,,,,,0,0,0,,-3200,15760,2504,-162,156,-178
4.637,4.35,0.45,3.17,-3.28,9.05,-6.22,-2.31,1.27,-2.40,1.38,267.00,645.00,240.00,382.00,311.00,981.00,642.00,1237.00,,,,,,,,,,,,0,0,0,,-3216,15872,2340,-112,116,-214
4.678,4.41,0.28,-1.92,-0.13,-3.13,0.97,-2.89,5.50,-0.92,1.95,247.00,725.00,203.00,510.00,250.00,896.00,606.00,1149.00,,,,,,,,,,,,0,0,0,,-3088,15768,2556,-53,-18,-225
4.74,4.46,0.62,-2.67,4.49,-5.18,9.33,7.05,-5.68,4.76,-3.95,195.00,660.00,134.00,442.00,382.00,816.00,752.00,1075.00,,,,,,,,,,,,0,0,0,,-3256,15792,2520,19,44,-235
4.804,4.52,0.44,9.96,-10.02,15.97,-12.85,-2.84,1.04,-3.46,1.19,340.00,591.00,303.00,347.00,318.00,1008.00,661.00,1296.00,,,,,,,,,,,,0,0,0,,-3260,15696,2468,56,159,-177
4.865,4.57,0.21,-5.33,2.42,-4.50,1.07,-4.20,6.77,-2.65,3.89,229.00,775.00,207.00,537.00,239.00,912.00,563.00,1168.00,,,,,,,,,,,,0,0,0,,-3228,15684,2412,-19,149,-99
4.906,4.63,0.46,-3.79,4.59,-4.58,6.56,5.14,-4.29,3.41,-3.13,198.00,688.00,154.00,465.00,367.00,848.00,737.00,1109.00,,,,,,,,,,,,0,0,0,,-3160,15724,2484,-120,187,21
4.946,4.68,0.45,6.52,-6.55,8.37,-5.99,0.23,-0.46,-1.29,0.19,300.00,617.00,240.00,390.00,326.00,929.00,671.00,1222.00,,,,,,,,,,,,0,0,0,,-3244,15772,2392,-60,253,-130
5.007,4.74,0.37,0.06,-1.95,3.15,-3.04,-1.16,1.00,-1.24,0.73,263.00,704.00,225.00,443.00,309.00,944.00,651.00,1202.00,,,,,,,,,,,,0,0,0,,-3176,15792,2444,-124,148,-88
5.069,4.79,0.30,-0.76,0.02,0.51,-0.79,-0.98,2.30,-0.15,0.48,240.00,690.00,209.00,463.00,287.00,905.00,647.00,1159.00,,,,,,,,,,,,0,0,0,,-3188,15736,2560,-119,85,-135
5.13,4.85,0.56,-0.23,1.11,-2.66,5.44,5.43,-4.59,3.29,-2.99,224.00,656.00,158.00,444.00,371.00,845.00,733.00,1110.00,,,,,,,,,,,,0,0,0,,-3172,15808,2412,-149,267,-192
5.211,4.90,0.43,6.36,-6.75,12.24,-9.53,-2.00,1.22,-2.03,0.77,304.00,624.00,271.00,368.00,310.00,970.00,659.00,1239.00,,,,,,,,,,,,0,0,0,,-3228,15832,2332,-7,208,-182
5.232,4.96,0.19,-2.56,0.62,-2.80,0.41,-4.28,7.50,-1.92,3.51,240.00,729.00,208.00,511.00,230.00,897.00,567.00,1146.00,,,,,,,,,,,,0,0,0,,-3240,15912,2572,-24,4,-134
5.294,5.01,0.65,-5.68,8.59,-8.98,14.76,9.30,-7.78,6.78,-5.52,165.00,666.00,107.00,444.00,411.00,790.00,789.00,1035.00,,,,,,,,,,,,0,0,0,,-3172,15748,2496,21,82,-230
5.335,5.07,0.55,10.75,-10.56,16.76,-12.81,-1.38,0.43,-2.31,0.70,345.00,581.00,298.00,336.00,320.00,967.00,665.00,1255.00,,,,,,,,,,,,0,0,0,,-3280,15780,2472,-2,142,-129
5.418,5.12,0.40,-1.62,-0.67,-1.59,-0.26,-2.33,4.09,-1.43,2.21,253.00,727.00,211.00,496.00,267.00,910.00,603.00,1164.00,,,,,,,,,,,,0,0,0,,-3180,15820,2304,-31,96,-138
5.481,5.18,0.52,-3.96,5.50,-3.86,7.30,2.73,-0.78,2.87,-2.10,189.00,676.00,146.00,443.00,317.00,849.00,704.00,1102.00,,,,,,,,,,,,0,0,0,,-3128,15872,2348,-20,130,-187
5.543,5.23,0.60,3.48,-3.79,3.39,-1.94,2.20,-1.34,0.34,-0.50,273.00,646.00,211.00,426.00,330.00,880.00,676.00,1167.00,,,,,,,,,,,,0,0,0,,-3176,15788,2352,17,43,-240
5.564,5.29,0.52,1.44,-1.92,5.44,-3.89,-1.07,1.15,-1.11,0.55,256.00,666.00,226.00,414.00,306.00,937.00,656.00,1202.00,,,,,,,,,,,,0,0,0,,-3200,15712,2352,-100,57,-175
5.626,5.34,0.40,-3.18,1.38,-4.13,1.58,-1.85,3.59,-0.74,1.25,233.00,732.00,200.00,522.00,272.00,905.00,627.00,1162.00,,,,,,,,,,,,0,0,0,,-3256,15732,2392,-154,214,-100
5.667,5.40,0.70,-1.88,3.21,-4.42,7.87,6.28,-5.70,3.99,-3.64,206.00,662.00,143.00,446.00,388.00,842.00,750.00,1099.00,,,,,,,,,,,,0,0,0,,-3092,15804,2388,-147,230,-148
5.728,5.45,0.55,7.68,-7.79,13.22,-10.27,-2.13,0.63,-2.84,1.07,314.00,609.00,277.00,361.00,321.00,991.00,658.00,1269.00,,,,,,,,,,,,0,0,0,,-3216,15728,2260,-138,105,-228
5.789,5.51,0.26,-4.82,1.38,-4.97,1.14,-5.33,8.84,-2.46,4.12,240.00,781.00,208.00,546.00,218.00,902.00,554.00,1152.00,,,,,,,,,,,,0,0,0,,-3176,15684,2444,-176,86,-125
5.85,5.56,0.54,-7.33,11.03,-8.82,14.20,5.91,-4.85,4.99,-4.15,149.00,666.00,110.00,448.00,373.00,835.00,757.00,1071.00,,,,,,,,,,,,0,0,0,,-3172,15788,2568,-95,227,-120
5.911,5.62,0.51,6.95,-6.94,9.69,-7.26,-0.07,-0.01,-1.18,0.71,304.00,613.00,251.00,383.00,320.00,929.00,651.00,1200.00,,,,,,,,,,,,0,0,0,,-3040,15820,2368,-52,224,-112
5.974,5.67,0.34,-0.81,-0.50,1.10,-1.25,-2.85,4.90,-1.47,2.69,247.00,701.00,212.00,458.00,258.00,909.00,588.00,1151.00,,,,,,,,,,,,0,0,0,,-3088,15784,2432,30,101,-85
6.036,5.73,0.32,-2.23,2.89,-1.64,3.10,-0.22,1.86,0.76,-0.11,211.00,677.00,176.00,454.00,290.00,889.00,657.00,1136.00,,,,,,,,,,,,0,0,0,,-3164,15664,2256,-3,137,-165
6.057,5.78,0.50,1.34,-0.69,-0.01,2.56,3.95,-2.75,1.98,-1.35,240.00,647.00,176.00,432.00,345.00,853.00,687.00,1119.00,,,,,,,,,,,,0,0,0,,-3236,15784,2228,-68,130,-120
6.121,5.84,0.38,5.48,-6.39,10.90,-8.95,-1.83,1.29,-2.07,1.07,303.00,640.00,269.00,382.00,308.00,962.00,649.00,1231.00,,,,,,,,,,,,0,0,0,,-3140,15872,2428,-7,111,-163
6.161,5.89,0.19,-2.43,0.58,-3.13,1.34,-3.46,6.21,-1.18,2.68,240.00,726.00,199.00,505.00,243.00,899.00,585.00,1138.00,,,,,,,,,,,,0,0,0,,-3292,15872,2444,-7,141,-192
6.223,5.95,0.55,-4.33,7.05,-6.48,11.50,7.46,-6.01,5.74,-4.28,175.00,658.00,122.00,439.00,386.00,810.00,752.00,1043.00,,,,,,,,,,,,0,0,0,,-3244,15720,2444,-63,59,-228
6.286,6.00,0.39,11.32,-11.33,16.60,-13.12,-2.69,1.22,-3.40,1.40,356.00,580.00,304.00,341.00,314.00,997.00,653.00,1286.00,,,,,,,,,,,,0,0,0,,-3224,15684,2340,-123,161,-150
6.348,6.06,0.12,-3.22,0.09,-2.72,0.30,-5.10,6.54,-2.79,3.93,250.00,759.00,209.00,511.00,246.00,951.00,563.00,1173.00,,,,,,,,,,,,0,0,0,,-3176,15860,2440,-101,225,-73
6.39,6.11,0.33,-3.14,3.91,-3.73,6.27,4.33,-3.41,3.44,-3.04,203.00,683.00,154.00,453.00,355.00,855.00,733.00,1105.00,,,,,,,,,,,,0,0,0,,-3176,15796,2240,-119,145,-189
6.473,6.17,0.36,6.03,-5.89,7.90,-5.21,1.05,-1.18,-0.67,-0.05,292.00,618.00,232.00,389.00,334.00,917.00,672.00,1200.00,,,,,,,,,,,,0,0,0,,-3164,15780,2240,-86,13,-216
6.493,6.22,0.33,1.37,-2.04,5.29,-3.76,-0.26,0.88,-0.73,0.70,258.00,670.00,225.00,415.00,306.00,914.00,646.00,1179.00,,,,,,,,,,,,0,0,0,,-3232,15800,2396,-66,118,-157
6.555,6.28,0.26,-0.51,0.24,-0.11,0.05,-1.16,3.15,-0.13,1.20,236.00,679.00,202.00,464.00,275.00,891.00,622.00,1136.00,,,,,,,,,,,,0,0,0,,-3168,15800,2368,-73,263,-115
6.656,6.33,0.58,0.22,1.38,-1.84,5.52,6.62,-5.04,3.77,-2.94,219.00,640.00,155.00,429.00,372.00,816.00,725.00,1088.00,,,,,,,,,,,,0,0,0,,-3180,15764,2344,-74,129,-134
6.676,6.39,0.46,7.37,-7.15,13.75,-10.11,-1.78,1.33,-1.99,0.98,305.00,606.00,272.00,352.00,307.00,959.00,651.00,1230.00,,,,,,,,,,,,0,0,0,,-3224,15916,2276,-49,72,-134
6.738,6.44,0.23,-2.68,0.89,-2.80,0.41,-4.08,7.68,-2.07,4.22,237.00,727.00,208.00,511.00,227.00,886.00,547.00,1131.00,,,,,,,,,,,,0,0,0,,-3148,15700,2240,-4,163,-143
6.798,6.50,0.66,-8.62,11.71,-9.09,15.87,8.77,-7.15,7.05,-5.49,147.00,688.00,101.00,433.00,401.00,793.00,784.00,1023.00,,,,,,,,,,,,0,0,0,,-3144,15868,2220,-33,108,-139
6.838,6.55,0.58,11.96,-13.04,14.72,-10.57,-0.80,0.23,-1.60,0.40,386.00,592.00,274.00,343.00,320.00,950.00,667.00,1230.00,,,,,,,,,,,,0,0,0,,-3056,15892,2380,-11,104,-194
6.899,6.61,0.44,-1.49,-0.49,-0.41,-0.39,-2.23,4.48,-1.25,2.39,250.00,720.00,208.00,475.00,261.00,897.00,595.00,1150.00,,,,,,,,,,,,0,0,0,,-3232,15752,2268,-63,81,-244
6.94,6.66,0.54,-3.80,5.64,0.45,0.60,2.41,-0.96,2.58,-1.74,187.00,669.00,194.00,447.00,322.00,864.00,694.00,1104.00,,,,,,,,,,,,0,0,0,,-3304,15604,2280,-96,23,-165
7.021,6.72,0.65,1.98,-1.29,0.72,1.39,2.67,-1.56,1.19,-0.97,245.00,641.00,185.00,433.00,331.00,869.00,683.00,1143.00,,,,,,,,,,,,0,0,0,,-3204,15764,2552,-138,169,-108
7.042,6.77,0.54,2.15,-2.51,6.65,-4.30,-1.45,0.80,-1.86,0.94,261.00,658.00,226.00,399.00,314.00,960.00,651.00,1225.00,,,,,,,,,,,,0,0,0,,-3180,15696,2372,-116,161,-72
7.125,6.83,0.40,-2.79,1.17,-3.68,1.71,-2.29,4.08,-0.79,1.42,234.00,725.00,197.00,511.00,267.00,909.00,622.00,1159.00,,,,,,,,,,,,0,0,0,,-3060,15800,2188,-38,155,-11
7.187,6.88,0.73,-3.36,5.11,-5.47,10.28,6.94,-5.83,4.34,-3.79,191.00,667.00,128.00,436.00,386.00,823.00,751.00,1088.00,,,,,,,,,,,,0,0,0,,-3076,15892,2444,-17,192,-173
7.23,6.94,0.53,8.46,-7.87,13.73,-10.70,-3.31,1.72,-3.68,1.38,311.00,592.00,281.00,358.00,309.00,1008.00,657.00,1301.00,,,,,,,,,,,,0,0,0,,-3144,15780,2192,-65,20,-276
7.291,6.99,0.24,-4.14,1.15,-4.98,1.50,-5.14,8.78,-2.12,3.90,240.00,765.00,204.00,541.00,218.00,897.00,557.00,1143.00,,,,,,,,,,,,0,0,0,,-3128,15756,2508,-83,39,-148
7.332,7.05,0.50,-5.58,8.33,-8.18,12.85,5.44,-4.29,4.27,-3.62,167.00,668.00,117.00,453.00,365.00,838.00,745.00,1086.00,,,,,,,,,,,,0,0,0,,-3176,15744,2492,-120,294,-102
7.374,7.10,0.49,7.65,-7.18,9.29,-6.37,0.23,0.24,-0.50,0.17,304.00,600.00,241.00,380.00,314.00,912.00,662.00,1185.00,,,,,,,,,,,,0,0,0,,-3152,15784,2424,-122,143,-78
7.437,7.16,0.39,1.20,-1.62,1.44,-1.01,-1.55,3.35,-0.99,1.88,253.00,667.00,208.00,449.00,274.00,900.00,609.00,1154.00,,,,,,,,,,,,0,0,0,,-3076,15792,2452,-64,60,-102
7.498,7.21,0.35,-0.00,-0.01,0.71,0.14,-0.40,2.50,0.71,-0.01,237.00,670.00,198.00,448.00,281.00,880.00,654.00,1135.00,,,,,,,,,,,,0,0,0,,-3128,15708,2320,-8,209,-172
7.559,7.27,0.61,0.10,0.92,-1.20,4.49,5.60,-4.35,2.99,-2.14,225.00,651.00,162.00,430.00,365.00,834.00,704.00,1098.00,,,,,,,,,,,,0,0,0,,-3128,15776,2236,-50,59,-211
7.62,7.32,0.51,5.53,-6.28,10.71,-8.18,-1.45,1.16,-1.71,0.77,301.00,637.00,259.00,377.00,308.00,951.00,655.00,1223.00,,,,,,,,,,,,0,0,0,,-3208,15828,2160,-16,-37,-302
7.66,7.38,0.30,-3.07,1.58,-3.08,1.41,-3.58,6.56,-1.66,3.10,230.00,725.00,198.00,503.00,239.00,895.00,577.00,1147.00,,,,,,,,,,,,0,0,0,,-3300,15640,2436,-81,41,-288
7.783,7.43,0.72,-5.14,7.97,-7.35,13.21,8.73,-7.37,6.78,-5.52,169.00,663.00,113.00,434.00,406.00,799.00,789.00,1035.00,,,,,,,,,,,,0,0,0,,-3276,15756,2436,-100,103,-212
7.804,7.49,0.60,11.10,-10.94,16.46,-13.14,-1.72,0.54,-2.79,1.14,350.00,579.00,305.00,343.00,320.00,977.00,655.00,1264.00,,,,,,,,,,,,0,0,0,,-3208,15720,2520,-143,178,-85
7.845,7.54,0.46,-2.09,-0.73,-1.59,-0.26,-2.16,4.17,-1.18,2.03,256.00,742.00,211.00,496.00,265.00,902.00,606.00,1158.00,,,,,,,,,,,,0,0,0,,-3120,15828,2352,-104,172,-116
7.886,7.60,0.65,-3.38,4.92,-4.08,7.13,4.25,-2.85,3.27,-2.65,193.00,671.00,148.00,449.00,345.00,845.00,720.00,1101.00,,,,,,,,,,,,0,0,0,,-3160,15680,2348,-71,136,-174
7.946,7.65,0.71,5.43,-5.37,6.35,-3.95,1.86,-1.51,0.50,-0.80,287.00,624.00,223.00,400.00,335.00,896.00,685.00,1169.00,,,,,,,,,,,,0,0,0,,-3080,15880,2360,-36,54,-161
8.008,7.71,0.65,0.85,-1.43,4.76,-3.33,-0.50,0.54,-0.86,0.32,252.00,673.00,222.00,419.00,313.00,931.00,661.00,1197.00,,,,,,,,,,,,0,0,0,,-3196,15864,2288,-12,129,-143
8.029,7.76,0.52,-1.56,0.28,-1.18,0.04,-2.04,3.79,-0.70,1.04,240.00,707.00,206.00,484.00,270.00,907.00,634.00,1167.00,,,,,,,,,,,,0,0,0,,-3256,15804,2236,-76,111,-290
8.112,7.82,0.81,-0.72,1.11,-3.61,6.60,6.30,-5.52,3.87,-3.60,226.00,669.00,151.00,447.00,384.00,837.00,750.00,1103.00,,,,,,,,,,,,0,0,0,,-3156,15804,2256,-96,31,-210
8.153,7.87,0.66,7.79,-7.94,13.11,-9.90,-2.06,1.25,-2.42,0.99,316.00,609.00,272.00,359.00,310.00,972.00,656.00,1251.00,,,,,,,,,,,,0,0,0,,-3228,15692,2576,-141,198,-42
8.215,7.93,0.37,-4.18,1.17,-5.58,1.98,-5.14,8.70,-2.59,4.50,240.00,766.00,201.00,547.00,219.00,899.00,544.00,1146.00,,,,,,,,,,,,0,0,0,,-3228,15824,2332,-122,339,-47
8.276,7.98,0.77,-6.25,9.93,-10.22,15.35,8.36,-6.45,5.90,-4.72,155.00,657.00,106.00,459.00,389.00,791.00,768.00,1049.00,,,,,,,,,,,,0,0,0,,-3104,15844,2240,-131,99,-22
8.337,8.04,0.76,8.38,-8.94,11.20,-9.59,0.44,-0.92,-0.84,-0.29,330.00,611.00,277.00,384.00,333.00,933.00,683.00,1216.00,,,,,,,,,,,,0,0,0,,-3048,15816,2416,-125,78,-59
8.358,8.09,0.60,-0.96,-0.96,-0.26,-0.53,-2.34,4.24,-1.42,2.54,254.00,714.00,209.00,474.00,265.00,907.00,592.00,1153.00,,,,,,,,,,,,0,0,0,,-3156,15860,2476,-91,169,-175
8.418,8.15,0.60,-3.51,4.77,-3.01,5.21,0.65,0.69,0.97,-0.52,195.00,677.00,161.00,453.00,304.00,886.00,669.00,1139.00,,,,,,,,,,,,0,0,0,,-3064,15800,2336,-69,41,-229
8.482,8.20,0.75,0.80,-0.74,-0.01,2.56,3.44,-2.09,1.63,-1.20,243.00,662.00,176.00,432.00,336.00,855.00,686.00,1130.00,,,,,,,,,,,,0,0,0,,-3224,15832,2152,-58,-35,-281
8.544,8.26,0.62,3.27,-3.65,8.17,-6.08,-1.73,1.25,-2.10,1.07,272.00,649.00,242.00,394.00,308.00,959.00,649.00,1232.00,,,,,,,,,,,,0,0,0,,-3152,15700,2372,-57,50,-305
8.606,8.31,0.41,-2.92,0.90,-2.67,0.37,-3.62,6.50,-1.27,2.59,238.00,734.00,208.00,509.00,240.00,898.00,589.00,1145.00,,,,,,,,,,,,0,0,0,,-3208,15688,2388,-149,107,-235
8.648,8.37,0.75,-3.42,5.03,-6.79,11.45,7.29,-5.81,5.28,-4.27,192.00,670.00,123.00,445.00,383.00,811.00,758.00,1062.00,,,,,,,,,,,,0,0,0,,-3320,15768,2424,-201,126,-152
8.711,8.42,0.58,9.64,-10.19,16.69,-13.15,-2.74,0.89,-3.51,1.27,345.00,601.00,304.00,340.00,320.00,1008.00,659.00,1296.00,,,,,,,,,,,,0,0,0,,-3080,15672,2300,-210,192,-139
8.774,8.48,0.29,-4.09,0.46,-3.84,0.58,-5.14,7.87,-2.88,4.03,249.00,778.00,210.00,530.00,229.00,919.00,561.00,1174.00,,,,,,,,,,,,0,0,0,,-3148,15800,2452,-119,159,-123
8.858,8.53,0.50,-3.29,3.69,-5.38,7.81,4.52,-4.04,3.25,-3.12,206.00,691.00,146.00,464.00,366.00,863.00,739.00,1116.00,,,,,,,,,,,,0,0,0,,-3112,15956,2388,-52,178,-228
8.878,8.59,0.47,5.84,-6.51,7.94,-5.92,-0.18,-0.49,-1.26,-0.04,303.00,633.00,241.00,396.00,329.00,945.00,679.00,1228.00,,,,,,,,,,,,0,0,0,,-3172,15600,2280,-36,13,-389
8.919,8.64,0.39,0.40,-2.55,2.93,-2.80,-1.11,0.92,-1.40,0.47,270.00,706.00,223.00,444.00,310.00,944.00,662.00,1218.00,,,,,,,,,,,,0,0,0,,-3224,15872,2304,-187,-120,-336
8.979,8.70,0.33,0.16,-1.34,-0.60,0.21,-0.80,2.24,-0.40,0.56,254.00,690.00,202.00,471.00,287.00,900.00,647.00,1168.00,,,,,,,,,,,,0,0,0,,-3380,15608,2528,-274,106,-228
9.042,8.75,0.61,-0.65,1.17,-2.14,5.26,5.98,-5.32,3.35,-3.11,225.00,666.00,158.00,437.00,382.00,843.00,737.00,1111.00,,,,,,,,,,,,0,0,0,,-3196,15784,2416,-241,279,-171
9.105,8.81,0.46,6.68,-7.09,12.42,-9.80,-2.40,1.66,-2.19,0.77,308.00,622.00,274.00,368.00,305.00,974.00,661.00,1247.00,,,,,,,,,,,,0,0,0,,-3172,15736,2416,-157,113,-77
9.147,8.86,0.23,-3.38,0.67,-2.89,0.98,-4.27,7.66,-2.17,3.69,243.00,752.00,202.00,505.00,228.00,893.00,564.00,1152.00,,,,,,,,,,,,0,0,0,,-3272,15760,2528,-179,60,-132
9.21,8.92,0.62,-4.93,7.14,-8.91,14.91,8.04,-7.13,6.23,-5.43,176.00,672.00,106.00,441.00,406.00,816.00,793.00,1055.00,,,,,,,,,,,,0,0,0,,-3188,15764,2384,4,245,-103
9.252,8.97,0.50,10.44,-10.61,14.85,-11.73,-1.68,0.42,-2.29,0.55,348.00,589.00,291.00,352.00,322.00,979.00,670.00,1259.00,,,,,,,,,,,,0,0,0,,-3212,15668,2352,46,103,-186
9.315,9.03,0.38,-0.92,-2.11,0.41,-2.52,-2.04,3.99,-1.46,2.22,270.00,735.00,230.00,487.00,267.00,902.00,603.00,1165.00,,,,,,,,,,,,0,0,0,,-3120,15696,2316,48,-28,-203
9.377,9.08,0.53,-4.06,5.15,-5.49,7.98,3.54,-2.23,2.93,-2.25,193.00,685.00,145.00,464.00,338.00,855.00,709.00,1104.00,,,,,,,,,,,,0,0,0,,-3240,15660,2456,-27,63,-228
9.419,9.14,0.56,2.50,-3.53,2.17,-1.26,1.11,0.06,0.51,-0.72,274.00,667.00,208.00,439.00,312.00,885.00,682.00,1166.00,,,,,,,,,,,,0,0,0,,-3276,15708,2420,-34,165,-181
9.461,9.19,0.50,1.23,-2.48,5.88,-4.37,-0.64,0.47,-1.43,0.74,265.00,682.00,230.00,412.00,315.00,938.00,653.00,1211.00,,,,,,,,,,,,0,0,0,,-3176,15756,2236,-61,141,-26
9.523,9.25,0.37,-3.18,0.83,-4.32,1.65,-2.14,3.68,-0.96,1.39,240.00,743.00,200.00,525.00,272.00,913.00,625.00,1168.00,,,,,,,,,,,,0,0,0,,-3180,15812,2508,-24,247,18
9.585,9.30,0.66,-1.73,2.37,-5.72,9.37,6.07,-5.49,4.10,-3.88,215.00,673.00,135.00,451.00,385.00,844.00,758.00,1101.00,,,,,,,,,,,,0,0,0,,-3176,15816,2236,81,260,-47
9.645,9.36,0.48,7.45,-8.34,13.10,-10.49,-2.79,0.96,-3.26,0.88,325.00,624.00,281.00,365.00,319.00,1008.00,670.00,1297.00,,,,,,,,,,,,0,0,0,,-3092,15804,2232,-4,80,-209
9.687,9.41,0.16,-5.33,1.10,-5.80,1.42,-5.89,8.78,-3.29,4.13,246.00,803.00,208.00,560.00,221.00,924.00,562.00,1190.00,,,,,,,,,,,,0,0,0,,-3152,15616,2424,-72,-18,-215
9.748,9.47,0.44,-6.95,9.35,-9.54,14.44,5.64,-5.25,3.99,-3.82,162.00,686.00,110.00,458.00,383.00,853.00,757.00,1104.00,,,,,,,,,,,,0,0,0,,-3164,15744,2420,-125,161,-194
9.809,9.52,0.41,6.94,-7.77,9.08,-7.42,-0.14,-0.50,-1.69,0.57,318.00,627.00,256.00,394.00,329.00,944.00,662.00,1229.00,,,,,,,,,,,,0,0,0,,-3140,15808,2384,-52,229,-153
9.851,9.58,0.26,-1.30,-0.78,1.34,-2.10,-2.64,4.48,-1.90,2.67,253.00,720.00,221.00,464.00,263.00,912.00,593.00,1171.00,,,,,,,,,,,,0,0,0,,-3240,15628,2428,-52,56,-125
9.953,9.63,0.24,-1.12,0.92,-3.57,3.03,-0.09,1.37,0.27,0.02,230.00,683.00,183.00,491.00,297.00,896.00,658.00,1154.00,,,,,,,,,,,,0,0,0,,-3100,15796,2268,-131,111,-144
9.974,9.69,0.42,0.57,-0.96,-0.48,2.82,3.89,-2.41,1.96,-1.55,247.00,672.00,175.00,437.00,339.00,847.00,695.00,1126.00,,,,,,,,,,,,0,0,0,,-3172,15724,2572,-30,181,-165
10.014,9.74,0.30,4.73,-6.19,9.65,-8.73,-2.11,1.50,-2.43,1.30,304.00,656.00,272.00,399.00,306.00,967.00,645.00,1241.00,,,,,,,,,,,,0,0,0,,-3112,15864,2440,-33,57,-211
10.077,9.80,0.07,-2.98,0.53,-3.68,1.71,-4.15,6.91,-1.39,2.53,243.00,743.00,197.00,511.00,237.00,907.00,592.00,1152.00,,,,,,,,,,,,0,0,0,,-3200,15780,2392,5,57,-271
10.117,9.85,0.44,-4.96,6.64,-3.14,6.08,7.39,-6.17,5.21,-4.35,181.00,682.00,154.00,445.00,390.00,816.00,762.00,1067.00,,,,,,,,,,,,0,0,0,,-3220,15744,2368,23,49,-272
10.178,9.91,0.33,10.89,-11.64,16.30,-13.44,-1.78,0.57,-3.48,1.26,365.00,595.00,311.00,348.00,320.00,979.00,659.00,1295.00,,,,,,,,,,,,0,0,0,,-3236,15712,2352,-53,92,-189
10.24,9.96,0.09,-3.22,-0.35,-2.11,-0.60,-4.50,6.41,-2.59,2.97,256.00,768.00,217.00,511.00,245.00,932.00,591.00,1194.00,,,,,,,,,,,,0,0,0,,-3132,15808,2412,-74,184,-75
10.343,10.02,0.29,-3.40,3.63,-4.41,6.86,4.13,-3.55,2.90,-2.68,207.00,695.00,151.00,458.00,359.00,865.00,726.00,1118.00,,,,,,,,,,,,0,0,0,,-3224,15788,2288,-76,194,-111
10.364,10.07,0.31,6.00,-6.62,6.47,-4.32,0.65,-1.16,-1.18,-0.15,304.00,631.00,227.00,402.00,336.00,931.00,682.00,1228.00,,,,,,,,,,,,0,0,0,,-3228,15960,2172,-129,219,-130
10.406,10.13,0.25,1.18,-2.74,3.46,-2.31,-0.90,1.22,-0.54,0.30,269.00,688.00,215.00,429.00,304.00,929.00,658.00,1183.00,,,,,,,,,,,,0,0,0,,-3108,15736,2440,-113,21,-179
10.468,10.18,0.17,-0.81,0.03,-0.52,0.65,-1.34,3.42,-0.00,0.69,240.00,691.00,197.00,464.00,272.00,891.00,638.00,1146.00,,,,,,,,,,,,0,0,0,,-3280,15720,2304,-140,31,-239
10.529,10.24,0.45,-0.61,0.83,-1.94,5.31,5.89,-4.65,4.06,-3.37,229.00,671.00,157.00,433.00,369.00,831.00,738.00,1088.00,,,,,,,,,,,,0,0,0,,-3200,15756,2276,-99,130,-163
10.57,10.29,0.34,6.94,-7.54,13.26,-10.01,-1.80,1.52,-2.14,1.23,314.00,623.00,273.00,358.00,304.00,955.00,644.00,1229.00,,,,,,,,,,,,0,0,0,,-3180,15656,2528,-85,135,-96
10.632,10.35,0.04,-2.89,0.20,-3.84,1.95,-5.76,9.86,-2.47,4.29,247.00,747.00,195.00,511.00,208.00,893.00,549.00,1147.00,,,,,,,,,,,,0,0,0,,-3124,15924,2312,-23,194,-117
10.693,10.40,0.45,-5.97,8.47,-9.47,15.99,8.40,-6.98,6.61,-5.27,167.00,676.00,101.00,438.00,400.00,801.00,781.00,1035.00,,,,,,,,,,,,0,0,0,,-3140,15720,2356,-17,184,-84
10.734,10.46,0.38,9.38,-9.61,11.92,-9.76,-0.95,0.34,-1.63,0.38,336.00,598.00,276.00,375.00,319.00,953.00,668.00,1232.00,,,,,,,,,,,,0,0,0,,-3112,15776,2200,-7,74,-137
10.795,10.51,0.25,-1.89,-0.58,-0.17,-0.74,-2.31,4.65,-1.17,2.30,253.00,733.00,211.00,475.00,259.00,896.00,597.00,1149.00,,,,,,,,,,,,0,0,0,,-3212,15728,2368,-36,102,-208
10.836,10.57,0.41,-4.24,5.31,-4.60,7.81,3.43,-1.81,2.68,-1.88,192.00,687.00,144.00,450.00,331.00,849.00,698.00,1104.00,,,,,,,,,,,,0,0,0,,-3216,15844,2260,-45,89,-226
10.899,10.62,0.53,1.37,-2.04,0.52,1.86,2.77,-1.53,0.86,-0.43,258.00,670.00,181.00,431.00,330.00,865.00,667.00,1141.00,,,,,,,,,,,,0,0,0,,-3240,15764,2304,-122,43,-181
10.96,10.68,0.42,2.63,-3.51,6.64,-4.38,-1.49,1.29,-1.36,0.57,273.00,663.00,227.00,400.00,306.00,949.00,658.00,1213.00,,,,,,,,,,,,0,0,0,,-3216,15736,2372,-104,114,-53
11.062,10.73,0.27,-3.18,0.83,-3.26,1.38,-2.69,4.92,-0.77,1.62,240.00,743.00,199.00,507.00,257.00,903.00,615.00,1152.00,,,,,,,,,,,,0,0,0,,-3172,15812,2232,9,196,-113
11.083,10.79,0.60,-2.89,3.91,-5.87,10.26,6.84,-5.46,4.63,-3.91,202.00,676.00,129.00,443.00,379.00,818.00,752.00,1079.00,,,,,,,,,,,,0,0,0,,-3200,15744,2232,-141,91,-210
11.124,10.84,0.42,8.37,-8.42,14.40,-10.53,-3.02,1.93,-2.99,1.26,321.00,603.00,275.00,347.00,304.00,991.00,653.00,1270.00,,,,,,,,,,,,0,0,0,,-3104,15660,2472,-42,15,-165
11.165,10.90,0.12,-3.71,0.03,-5.20,1.76,-5.61,9.72,-2.38,4.29,253.00,775.00,202.00,542.00,209.00,891.00,548.00,1143.00,,,,,,,,,,,,0,0,0,,-3220,15696,2472,-55,222,-151
11.227,10.95,0.37,-4.93,7.14,-8.38,14.05,5.23,-3.39,5.00,-4.03,176.00,672.00,110.00,442.00,349.00,825.00,752.00,1067.00,,,,,,,,,,,,0,0,0,,-3248,15712,2132,-36,209,-160
11.289,11.01,0.37,7.69,-7.61,10.38,-6.90,0.44,0.58,-0.30,0.13,311.00,606.00,243.00,369.00,307.00,896.00,661.00,1177.00,,,,,,,,,,,,0,0,0,,-3164,15752,2296,-51,53,-134
11.329,11.06,0.28,-1.15,-0.68,1.95,-1.19,-1.59,4.12,-1.08,2.31,251.00,714.00,208.00,442.00,263.00,883.00,596.00,1145.00,,,,,,,,,,,,0,0,0,,-3184,15828,2448,41,192,-212
11.432,11.12,0.28,0.10,-0.27,0.21,0.88,0.31,2.00,0.87,0.02,240.00,672.00,192.00,448.00,285.00,867.00,651.00,1127.00,,,,,,,,,,,,0,0,0,,-3160,15756,2124,-20,148,-146
11.452,11.17,0.50,0.55,-0.04,-0.69,3.64,4.69,-2.51,3.05,-1.95,235.00,656.00,168.00,431.00,336.00,823.00,696.00,1090.00,,,,,,,,,,,,0,0,0,,-3092,15744,2208,-61,9,-189
11.513,11.23,0.41,5.64,-6.62,11.79,-9.18,-1.32,1.36,-1.33,0.65,306.00,640.00,268.00,371.00,304.00,941.00,655.00,1209.00,,,,,,,,,,,,0,0,0,,-3088,15932,2388,-53,89,-266
11.554,11.28,0.23,-2.94,0.83,-3.69,2.09,-3.13,6.56,-1.14,3.05,239.00,736.00,193.00,506.00,237.00,879.00,573.00,1125.00,,,,,,,,,,,,0,0,0,,-3256,15748,2160,-107,77,-226
11.614,11.34,0.65,-4.74,6.98,-7.93,13.90,8.69,-6.75,6.48,-5.04,177.00,670.00,110.00,436.00,393.00,787.00,773.00,1034.00,,,,,,,,,,,,0,0,0,,-3176,15716,2328,-116,83,-159
11.675,11.39,0.55,11.13,-11.37,17.47,-13.42,-1.41,0.56,-2.45,0.91,358.00,585.00,304.00,332.00,318.00,965.00,659.00,1255.00,,,,,,,,,,,,0,0,0,,-3244,15772,2336,-95,183,-90
11.716,11.45,0.40,-2.53,-0.58,-1.56,-0.53,-2.47,4.63,-1.18,2.03,256.00,752.00,214.00,499.00,260.00,902.00,606.00,1158.00,,,,,,,,,,,,0,0,0,,-3184,15852,2352,-55,189,-103
11.797,11.50,0.59,-2.98,3.67,-3.57,6.95,4.14,-2.33,3.81,-2.83,205.00,683.00,148.00,442.00,336.00,837.00,720.00,1083.00,,,,,,,,,,,,0,0,0,,-3184,15724,2228,-121,125,-185
11.858,11.56,0.64,6.52,-6.80,7.61,-4.29,1.56,-0.56,0.68,-0.75,304.00,621.00,222.00,384.00,320.00,884.00,681.00,1159.00,,,,,,,,,,,,0,0,0,,-3220,15776,2400,-65,5,-213
11.962,11.61,0.64,2.18,-3.29,5.37,-2.60,0.66,0.81,0.00,0.48,272.00,671.00,211.00,401.00,302.00,883.00,645.00,1152.00,,,,,,,,,,,,0,0,0,,-3216,15844,2348,-59,123,-127
11.983,11.67,0.57,-0.27,-0.61,-0.64,1.07,-0.62,3.94,0.76,0.75,246.00,688.00,193.00,461.00,261.00,854.00,627.00,1110.00,,,,,,,,,,,,0,0,0,,-3156,15792,2220,-52,252,-134
12.003,11.72,0.91,-0.42,1.68,-2.88,7.23,7.22,-5.04,4.90,-3.50,218.00,651.00,144.00,427.00,368.00,797.00,732.00,1056.00,,,,,,,,,,,,0,0,0,,-3220,15856,2216,-68,64,-124
12.085,11.78,0.79,8.05,-8.09,14.99,-10.53,-1.31,1.78,-1.36,0.91,317.00,605.00,272.00,339.00,297.00,930.00,646.00,1202.00,,,,,,,,,,,,0,0,0,,-3120,15856,2332,-39,125,-146
12.105,11.83,0.56,-2.22,-0.40,-2.65,0.63,-3.95,8.81,-1.22,3.87,252.00,739.00,205.00,505.00,213.00,855.00,549.00,1104.00,,,,,,,,,,,,0,0,0,,-3164,15764,2344,-44,261,-73
12.168,11.89,1.06,-6.47,9.31,-8.09,15.35,10.53,-8.64,7.50,-5.53,161.00,674.00,102.00,422.00,421.00,770.00,779.00,1006.00,,,,,,,,,,,,0,0,0,,-3148,15788,2184,-130,91,-125
12.25,11.94,1.02,9.61,-9.58,14.10,-10.09,0.43,-0.18,-0.56,-0.06,334.00,592.00,270.00,347.00,320.00,915.00,671.00,1195.00,,,,,,,,,,,,0,0,0,,-3080,15792,2428,-85,77,-215
12.271,12.00,0.80,-1.31,-1.28,0.15,-0.58,-3.52,5.49,-0.28,1.94,260.00,730.00,208.00,467.00,253.00,919.00,599.00,1120.00,,,,,,,,,,,,0,0,0,,-3180,15756,2244,-93,58,-247
12.332,12.05,0.93,-3.33,4.91,-3.16,6.69,3.46,-1.37,3.20,-2.10,193.00,670.00,149.00,438.00,323.00,838.00,700.00,1088.00,,,,,,,,,,,,0,0,0,,-3216,15716,2348,-143,31,-192
12.395,12.11,1.04,2.13,-2.07,0.39,2.32,3.10,-1.19,2.05,-1.32,255.00,651.00,177.00,428.00,322.00,846.00,685.00,1115.00,,,,,,,,,,,,0,0,0,,-3228,15692,2356,-191,149,-145
12.435,12.16,0.94,2.66,-3.03,7.21,-3.99,-0.86,1.20,-1.11,0.55,266.00,654.00,220.00,387.00,304.00,928.00,656.00,1202.00,,,,,,,,,,,,0,0,0,,-3152,15836,2348,-191,171,-62
12.539,12.22,0.77,-2.49,0.52,-2.87,1.63,-2.45,5.95,-0.33,1.59,241.00,729.00,195.00,496.00,242.00,870.00,611.00,1133.00,,,,,,,,,,,,0,0,0,,-2996,15864,2472,-130,191,-91
12.559,12.27,1.12,-2.72,3.95,-5.38,10.83,7.66,-5.98,5.19,-4.17,201.00,671.00,124.00,428.00,384.00,803.00,755.00,1063.00,,,,,,,,,,,,0,0,0,,-3208,15836,2392,-48,91,-279
12.601,12.33,0.94,8.63,-8.57,15.73,-11.18,-2.54,1.52,-2.73,0.73,322.00,599.00,278.00,335.00,308.00,983.00,669.00,1275.00,,,,,,,,,,,,0,0,0,,-3196,15800,2332,-71,-31,-305
12.663,12.38,0.65,-3.37,-0.08,-4.54,1.00,-4.74,8.99,-1.34,3.54,253.00,767.00,208.00,539.00,214.00,878.00,560.00,1119.00,,,,,,,,,,,,0,0,0,,-3184,15712,2236,-139,145,-194
12.723,12.44,0.94,-4.83,7.11,-6.16,11.54,6.40,-4.72,4.99,-3.88,176.00,670.00,121.00,433.00,367.00,816.00,746.00,1063.00,,,,,,,,,,,,0,0,0,,-3268,15676,2216,-152,311,-153
12.765,12.49,0.94,7.42,-7.40,10.47,-7.23,0.88,0.32,0.05,-0.26,309.00,609.00,247.00,371.00,309.00,887.00,671.00,1173.00,,,,,,,,,,,,0,0,0,,-3132,15792,2304,-195,146,-65
12.826,12.55,0.82,-0.60,-1.23,1.88,-1.34,-1.35,3.90,-0.84,1.92,256.00,709.00,210.00,445.00,265.00,880.00,606.00,1146.00,,,,,,,,,,,,0,0,0,,-3032,15704,2536,-227,72,-98
12.93,12.60,0.77,0.05,-0.26,0.36,0.83,-0.11,2.80,1.61,-0.37,240.00,673.00,192.00,446.00,275.00,863.00,656.00,1106.00,,,,,,,,,,,,0,0,0,,-3244,15788,2380,-59,131,-201
12.949,12.66,1.00,1.42,-1.32,-1.06,4.10,5.29,-2.99,3.55,-2.38,248.00,656.00,165.00,432.00,341.00,814.00,706.00,1081.00,,,,,,,,,,,,0,0,0,,-3164,15776,2316,30,19,-286
12.99,12.71,0.92,6.37,-7.11,11.41,-8.91,-0.67,0.96,-0.97,0.33,310.00,630.00,266.00,374.00,307.00,927.00,662.00,1202.00,,,,,,,,,,,,0,0,0,,-3248,15776,2408,-5,-37,-303
13.052,12.77,0.67,-2.52,0.45,-2.97,1.47,-4.03,8.66,-0.64,2.31,242.00,731.00,197.00,500.00,215.00,861.00,591.00,1125.00,,,,,,,,,,,,0,0,0,,-3280,15632,2424,-18,34,-285
13.093,12.82,1.12,-4.24,6.19,-8.00,14.43,9.70,-7.28,6.73,-5.41,183.00,671.00,107.00,431.00,397.00,767.00,785.00,1034.00,,,,,,,,,,,,0,0,0,,-3268,15736,2264,-95,80,-217
13.155,12.88,0.98,11.75,-12.04,17.77,-13.52,-1.62,1.10,-2.44,0.68,367.00,581.00,304.00,329.00,310.00,959.00,667.00,1262.00,,,,,,,,,,,,0,0,0,,-3236,15724,2432,-232,119,-98
13.257,12.93,0.58,-2.43,-0.83,0.83,-3.91,-7.18,12.20,-0.88,1.72,259.00,754.00,246.00,497.00,188.00,887.00,613.00,1154.00,,,,,,,,,,,,0,0,0,,-3312,15816,2588,-165,294,-18
13.278,12.99,0.79,-2.29,3.08,-3.97,7.21,4.87,-2.74,4.51,-3.62,209.00,675.00,147.00,446.00,339.00,822.00,742.00,1076.00,,,,,,,,,,,,0,0,0,,-3256,15800,2300,29,256,-109
13.36,13.04,0.87,6.04,-6.33,8.07,-5.26,2.46,-1.60,0.39,-0.71,299.00,625.00,232.00,387.00,333.00,877.00,683.00,1171.00,,,,,,,,,,,,0,0,0,,-3156,15820,2112,41,53,-81
13.381,13.10,0.84,1.73,-2.79,6.48,-4.25,0.28,0.82,0.06,-0.02,267.00,674.00,226.00,401.00,304.00,896.00,662.00,1165.00,,,,,,,,,,,,0,0,0,,-3192,15744,2608,-17,125,-82
13.422,13.15,0.79,-0.67,-0.02,0.02,0.75,-0.19,3.30,0.74,0.64,240.00,688.00,194.00,453.00,268.00,854.00,631.00,1114.00,,,,,,,,,,,,0,0,0,,-3196,15756,2404,-3,288,-119
13.483,13.21,1.11,-0.01,0.79,-1.38,5.36,7.10,-5.10,4.93,-3.79,227.00,656.00,155.00,423.00,370.00,802.00,743.00,1063.00,,,,,,,,,,,,0,0,0,,-3140,15856,2196,-24,181,-90
13.544,13.26,1.01,7.78,-8.11,14.44,-10.48,-0.88,0.91,-1.23,0.50,319.00,612.00,274.00,346.00,309.00,936.00,659.00,1209.00,,,,,,,,,,,,0,0,0,,-3132,15876,2296,-83,64,-88
13.627,13.32,0.79,-2.65,-0.10,-2.64,0.18,-3.32,7.92,-1.22,3.31,250.00,746.00,210.00,511.00,221.00,854.00,566.00,1121.00,,,,,,,,,,,,0,0,0,,-3184,15856,2248,-60,166,-134
13.648,13.37,1.22,-4.96,7.58,-8.15,14.49,9.28,-7.09,7.56,-5.81,172.00,665.00,107.00,433.00,396.00,776.00,790.00,1011.00,,,,,,,,,,,,0,0,0,,-3160,15876,2088,-71,150,-151
13.709,13.43,1.17,9.34,-9.92,13.86,-10.49,0.29,-0.13,0.38,-2.03,342.00,604.00,277.00,354.00,320.00,919.00,734.00,1214.00,,,,,,,,,,,,0,0,0,,-3220,15820,2164,-136,58,-206
13.771,13.48,1.05,-0.76,-1.88,0.75,-1.22,-1.31,4.31,-0.55,1.82,266.00,726.00,213.00,464.00,259.00,869.00,606.00,1136.00,,,,,,,,,,,,0,0,0,,-3148,15804,2380,-127,56,-203
13.813,13.54,1.17,-3.52,4.68,-3.65,6.73,3.46,-1.37,3.21,-2.50,196.00,679.00,150.00,446.00,323.00,838.00,715.00,1099.00,,,,,,,,,,,,0,0,0,,-3172,15820,2452,-131,101,-171
13.874,13.59,1.30,1.39,-1.90,1.71,0.37,3.85,-1.96,1.85,-1.36,256.00,667.00,192.00,428.00,331.00,838.00,689.00,1125.00,,,,,,,,,,,,0,0,0,,-3164,15756,2544,-161,146,-190
13.936,13.65,1.20,2.29,-3.39,7.69,-5.37,-0.79,1.06,-0.89,0.27,273.00,670.00,235.00,394.00,306.00,929.00,663.00,1200.00,,,,,,,,,,,,0,0,0,,-3172,15796,2468,-114,146,-113
13.998,13.70,1.06,-2.63,0.41,-2.27,0.59,-1.58,4.62,-0.20,1.07,243.00,735.00,204.00,498.00,256.00,871.00,627.00,1143.00,,,,,,,,,,,,0,0,0,,-3136,15972,2384,-62,276,-71
14.06,13.76,1.40,-1.89,2.95,-4.07,8.55,7.83,-6.13,4.85,-4.30,209.00,667.00,137.00,432.00,386.00,801.00,765.00,1081.00,,,,,,,,,,,,0,0,0,,-3112,15848,2260,-113,250,-267
14.081,13.81,1.19,8.67,-8.87,15.40,-11.46,-2.69,1.64,-2.46,0.39,327.00,603.00,284.00,342.00,307.00,986.00,678.00,1273.00,,,,,,,,,,,,0,0,0,,-3260,15680,2240,-95,-74,-265
14.164,13.87,0.92,-3.92,0.25,-4.67,1.04,-4.22,8.22,-1.66,3.42,251.00,777.00,208.00,541.00,221.00,878.00,567.00,1137.00,,,,,,,,,,,,0,0,0,,-3244,15724,2436,-76,31,-186
14.205,13.92,1.20,-5.30,7.80,-7.44,12.91,6.41,-4.87,5.17,-4.38,171.00,670.00,115.00,439.00,370.00,819.00,764.00,1070.00,,,,,,,,,,,,0,0,0,,-3272,15776,2452,13,278,-136
14.247,13.98,1.17,7.47,-7.60,9.88,-6.95,0.77,0.06,-0.21,-0.28,312.00,611.00,246.00,377.00,314.00,897.00,675.00,1186.00,,,,,,,,,,,,0,0,0,,-3272,15768,2376,-14,117,-79
14.309,14.03,1.03,-0.14,-1.60,2.41,-1.78,-1.66,3.94,-0.40,1.53,259.00,703.00,213.00,441.00,266.00,890.00,614.00,1138.00,,,,,,,,,,,,0,0,0,,-3172,15776,2308,-12,53,-88
14.37,14.09,1.01,0.03,-0.93,0.77,0.21,0.67,1.68,1.41,-0.44,249.00,686.00,197.00,446.00,288.00,862.00,661.00,1117.00,,,,,,,,,,,,0,0,0,,-3120,15836,2212,-25,180,-202
14.41,14.14,1.20,1.58,-1.15,0.45,2.40,4.72,-2.74,3.29,-2.24,245.00,649.00,176.00,426.00,340.00,827.00,704.00,1088.00,,,,,,,,,,,,0,0,0,,-3084,15796,2400,-134,53,-192
14.471,14.20,1.09,5.65,-7.04,12.51,-10.03,-1.06,1.21,-1.14,0.25,313.00,647.00,277.00,369.00,305.00,935.00,667.00,1213.00,,,,,,,,,,,,0,0,0,,-3248,15812,2376,-46,17,-255
14.555,14.25,0.89,-2.32,-0.14,-3.19,1.36,-2.77,6.28,-0.71,2.12,249.00,737.00,199.00,506.00,239.00,873.00,598.00,1134.00,,,,,,,,,,,,0,0,0,,-3268,15712,2356,16,65,-250
14.575,14.31,1.30,-3.19,5.15,-5.58,10.60,8.94,-6.88,6.52,-5.17,190.00,662.00,126.00,434.00,394.00,782.00,778.00,1036.00,,,,,,,,,,,,0,0,0,,-3264,15776,2244,-40,33,-183
14.679,14.36,1.14,11.40,-11.51,17.61,-14.06,-1.91,0.90,-2.15,0.26,359.00,581.00,314.00,336.00,315.00,975.00,679.00,1262.00,,,,,,,,,,,,0,0,0,,-3164,15728,2196,-121,170,-137
14.741,14.42,0.90,-2.71,-0.81,-1.74,-0.56,-3.55,6.47,-1.26,2.18,260.00,762.00,215.00,503.00,240.00,896.00,602.00,1157.00,,,,,,,,,,,,0,0,0,,-3240,15708,2328,-124,190,-133
14.762,14.47,1.12,-1.36,1.00,-2.67,5.21,5.17,-3.59,4.39,-3.75,230.00,688.00,160.00,447.00,353.00,831.00,749.00,1085.00,,,,,,,,,,,,0,0,0,,-3200,15808,2244,-104,67,-144
14.803,14.53,1.09,7.00,-7.38,8.74,-5.96,0.69,-0.44,0.17,-1.01,311.00,619.00,238.00,384.00,323.00,912.00,697.00,1191.00,,,,,,,,,,,,0,0,0,,-3248,15864,2364,-56,142,-205
14.864,14.58,1.04,1.36,-3.01,4.13,-3.29,0.07,0.89,-0.11,-0.18,272.00,688.00,224.00,429.00,304.00,902.00,670.00,1178.00,,,,,,,,,,,,0,0,0,,-3188,15772,2404,-72,87,-251
14.925,14.64,0.98,-0.53,-0.59,0.73,-0.95,-0.29,2.33,0.71,-0.07,247.00,695.00,210.00,461.00,283.00,880.00,656.00,1137.00,,,,,,,,,,,,0,0,0,,-3232,15732,2352,0,-28,-222
14.967,14.69,1.27,0.52,0.29,-0.87,4.60,6.79,-5.20,4.39,-3.83,231.00,651.00,160.00,423.00,374.00,814.00,752.00,1087.00,,,,,,,,,,,,0,0,0,,-3312,15696,2228,-98,206,-146
15.028,14.75,1.14,7.67,-8.13,13.73,-10.70,-1.30,1.29,-1.63,0.66,320.00,615.00,281.00,358.00,305.00,942.00,658.00,1223.00,,,,,,,,,,,,0,0,0,,-3176,15724,2104,-132,256,-99
15.11,14.80,0.88,-1.75,-0.62,-2.22,0.21,-4.04,7.91,-0.97,2.90,253.00,730.00,208.00,502.00,224.00,879.00,576.00,1122.00,,,,,,,,,,,,0,0,0,,-3096,15812,2224,-103,18,-67
15.131,14.86,1.33,-4.57,7.34,-7.34,13.37,9.88,-8.02,7.76,-5.99,173.00,659.00,112.00,432.00,412.00,777.00,795.00,1008.00,,,,,,,,,,,,0,0,0,,-3156,15844,2476,-31,111,-111
15.193,14.91,1.23,10.89,-11.08,16.76,-12.81,-0.57,0.22,-1.22,-0.22,354.00,586.00,298.00,336.00,319.00,942.00,685.00,1232.00,,,,,,,,,,,,0,0,0,,-3132,15700,2212,-37,191,-157
15.234,14.97,1.11,1.60,-3.09,1.01,-2.49,-1.34,3.76,-0.62,1.69,272.00,683.00,227.00,475.00,267.00,883.00,611.00,1143.00,,,,,,,,,,,,0,0,0,,-3096,15884,2196,-48,-26,-168
15.295,15.02,1.28,-2.76,4.33,-3.68,7.12,4.54,-2.30,4.14,-2.94,197.00,665.00,147.00,442.00,333.00,823.00,720.00,1072.00,,,,,,,,,,,,0,0,0,,-3128,15760,2368,-22,60,-253
15.357,15.08,1.40,3.99,-4.36,3.93,-2.03,3.72,-2.24,1.68,-1.27,279.00,643.00,210.00,418.00,337.00,849.00,688.00,1130.00,,,,,,,,,,,,0,0,0,,-3304,15740,2132,-60,106,-232
15.419,15.13,1.35,2.76,-3.41,7.74,-6.01,0.40,0.36,0.05,-0.10,271.00,658.00,243.00,400.00,311.00,903.00,665.00,1168.00,,,,,,,,,,,,0,0,0,,-3192,15668,2256,-162,62,-157
15.481,15.19,1.22,-1.73,-0.70,-2.32,0.52,-1.34,4.18,0.54,0.24,254.00,731.00,205.00,500.00,261.00,873.00,647.00,1135.00,,,,,,,,,,,,0,0,0,,-3124,15784,2364,-165,186,-136
15.523,15.24,1.54,-0.92,1.34,-3.57,7.72,7.63,-6.49,4.98,-4.39,224.00,670.00,142.00,433.00,395.00,815.00,767.00,1078.00,,,,,,,,,,,,0,0,0,,-3192,15784,2260,-140,181,-97
15.565,15.30,1.40,8.60,-8.96,13.82,-10.74,-1.21,0.37,-1.66,0.04,329.00,606.00,281.00,357.00,320.00,962.00,681.00,1245.00,,,,,,,,,,,,0,0,0,,-3200,15864,2340,-99,123,-118
15.626,15.35,1.12,-4.11,0.09,-5.21,0.96,-4.17,7.46,-1.75,3.06,254.00,786.00,211.00,554.00,230.00,894.00,579.00,1152.00,,,,,,,,,,,,0,0,0,,-3256,15712,2288,-58,110,-192
15.688,15.41,1.45,-5.36,7.29,-7.55,12.32,7.80,-6.68,5.85,-5.32,176.00,681.00,119.00,448.00,398.00,814.00,794.00,1068.00,,,,,,,,,,,,0,0,0,,-3220,15768,2332,-30,65,-163
15.754,15.46,1.38,7.41,-8.95,10.47,-9.28,-0.01,-0.93,-0.74,-1.01,336.00,635.00,276.00,392.00,336.00,950.00,709.00,1235.00,,,,,,,,,,,,0,0,0,,-3064,15864,2392,29,117,-154
15.854,15.52,1.20,-0.89,-2.25,0.22,-1.56,-2.16,3.76,-1.51,1.60,272.00,737.00,219.00,478.00,271.00,912.00,624.00,1187.00,,,,,,,,,,,,0,0,0,,-3252,15624,2116,-153,43,-275
15.874,15.57,1.20,-3.22,3.49,-4.71,5.33,1.17,-0.37,1.59,-1.82,208.00,693.00,165.00,483.00,319.00,893.00,710.00,1151.00,,,,,,,,,,,,0,0,0,,-3228,15608,2356,-144,-22,-128
15.915,15.63,1.32,1.46,-2.28,1.15,0.85,3.46,-1.99,2.07,-1.88,261.00,672.00,189.00,432.00,334.00,852.00,706.00,1131.00,,,,,,,,,,,,0,0,0,,-3220,15832,2468,-200,256,-52
15.995,15.68,1.19,3.13,-3.67,7.69,-5.84,-1.21,1.08,-1.05,0.05,273.00,653.00,241.00,399.00,308.00,944.00,673.00,1215.00,,,,,,,,,,,,0,0,0,,-3160,15776,2228,-156,314,-48
16.015,15.74,1.01,-2.61,0.64,-2.20,0.12,-2.38,5.55,0.20,1.15,240.00,730.00,209.00,503.00,247.00,877.00,620.00,1123.00,,,,,,,,,,,,0,0,0,,-3052,15820,2268,-179,67,-88
16.077,15.79,1.38,-1.64,2.69,-3.84,8.20,8.44,-6.29,5.92,-4.68,211.00,665.00,139.00,432.00,385.00,785.00,766.00,1047.00,,,,,,,,,,,,0,0,0,,-3124,15740,2396,-134,81,-145
16.136,15.85,1.20,9.95,-9.64,15.66,-11.75,-2.25,0.96,-2.62,0.75,333.00,585.00,287.00,341.00,316.00,987.00,667.00,1269.00,,,,,,,,,,,,0,0,0,,-3196,15852,2456,-67,64,-233
16.198,15.90,0.95,-3.39,-0.29,-4.13,-0.09,-3.72,7.32,-1.95,3.55,256.00,772.00,219.00,546.00,230.00,882.00,566.00,1146.00,,,,,,,,,,,,0,0,0,,-3140,15816,2168,-54,-46,-285
16.238,15.96,1.24,-4.93,7.14,-6.58,10.65,6.65,-5.49,4.90,-4.43,176.00,672.00,128.00,451.00,381.00,825.00,770.00,1083.00,,,,,,,,,,,,0,0,0,,-3108,15712,2488,-51,-1,-302
16.28,16.01,1.22,8.06,-8.89,10.95,-7.83,0.84,-0.66,-0.57,-0.41,331.00,618.00,253.00,370.00,326.00,912.00,684.00,1207.00,,,,,,,,,,,,0,0,0,,-3172,15788,2392,-98,99,-275
16.342,16.07,1.08,-0.65,-1.99,1.69,-1.80,-1.47,3.33,-0.99,1.43,267.00,725.00,216.00,454.00,274.00,898.00,624.00,1168.00,,,,,,,,,,,,0,0,0,,-3208,15828,2444,-193,88,-166
16.403,16.12,1.02,-1.23,0.17,0.11,0.53,-0.17,2.03,0.78,-0.56,240.00,700.00,196.00,454.00,287.00,883.00,673.00,1149.00,,,,,,,,,,,,0,0,0,,-3152,15736,2416,-182,197,-163
16.445,16.18,1.18,1.29,-2.08,0.72,1.39,4.22,-2.90,2.50,-2.39,259.00,673.00,185.00,433.00,346.00,847.00,720.00,1127.00,,,,,,,,,,,,0,0,0,,-3104,15852,2348,-177,139,-114
16.505,16.23,1.06,5.36,-7.30,10.38,-9.25,-1.28,0.75,-1.69,0.32,319.00,659.00,276.00,393.00,314.00,955.00,671.00,1237.00,,,,,,,,,,,,0,0,0,,-3152,15920,2416,-109,102,-113
16.566,16.29,0.85,-2.59,-0.34,-2.26,-0.38,-3.19,5.82,-0.82,1.40,253.00,749.00,215.00,511.00,247.00,899.00,623.00,1161.00,,,,,,,,,,,,0,0,0,,-3108,15868,2168,-52,186,-184
16.628,16.34,1.20,-2.85,4.37,-5.25,9.77,7.83,-6.32,5.41,-4.77,197.00,667.00,131.00,438.00,390.00,805.00,777.00,1071.00,,,,,,,,,,,,0,0,0,,-3164,15616,2268,-70,83,-241
16.689,16.40,1.00,10.99,-11.98,15.73,-13.66,-2.61,0.96,-3.15,0.62,371.00,598.00,318.00,358.00,318.00,1001.00,678.00,1300.00,,,,,,,,,,,,0,0,0,,-3252,15892,2324,-85,-38,-254
16.73,16.45,0.75,-3.14,-0.80,-2.95,-0.66,-4.03,7.18,-2.09,3.08,262.00,775.00,221.00,529.00,233.00,896.00,582.00,1167.00,,,,,,,,,,,,0,0,0,,-3244,15692,2464,-157,226,-111
16.792,16.51,0.98,-2.90,3.11,-3.47,5.48,5.22,-3.71,4.31,-3.68,211.00,691.00,160.00,458.00,355.00,832.00,747.00,1086.00,,,,,,,,,,,,0,0,0,,-3148,15676,2320,-131,321,-138
16.853,16.56,0.97,7.21,-7.33,10.72,-7.08,0.86,-0.32,-0.12,-0.43,309.00,613.00,244.00,366.00,320.00,903.00,679.00,1186.00,,,,,,,,,,,,0,0,0,,-3228,15704,2428,-63,119,-45
16.935,16.62,0.88,0.22,-2.28,3.59,-3.27,-0.78,1.73,-0.42,0.65,267.00,706.00,226.00,438.00,295.00,912.00,644.00,1166.00,,,,,,,,,,,,0,0,0,,-3212,15684,2356,-110,76,-93
16.956,16.67,0.84,0.14,-1.04,0.43,-0.68,-0.06,2.12,0.59,-0.05,250.00,685.00,208.00,463.00,285.00,877.00,657.00,1142.00,,,,,,,,,,,,0,0,0,,-3208,15756,2480,59,238,-96
16.997,16.73,1.07,0.35,-0.36,-0.27,2.86,5.58,-4.59,3.50,-3.26,240.00,667.00,174.00,433.00,370.00,840.00,741.00,1109.00,,,,,,,,,,,,0,0,0,,-3052,15812,2200,58,105,-109
17.058,16.78,0.96,5.80,-7.21,10.92,-9.56,-1.19,0.66,-1.55,0.30,315.00,646.00,278.00,388.00,315.00,954.00,670.00,1231.00,,,,,,,,,,,,0,0,0,,-3148,15792,2384,74,72,-140
17.141,16.84,0.70,-2.48,-0.16,-2.26,-0.38,-4.17,7.46,-0.97,2.27,250.00,742.00,215.00,511.00,230.00,894.00,596.00,1141.00,,,,,,,,,,,,0,0,0,,-3156,15736,2352,45,125,-166
17.162,16.89,1.14,-3.68,5.31,-7.33,12.24,9.33,-7.89,6.68,-5.81,190.00,672.00,119.00,445.00,413.00,791.00,803.00,1047.00,,,,,,,,,,,,0,0,0,,-3308,15760,2352,-16,131,-132
17.224,16.95,1.00,11.41,-11.97,18.26,-15.03,-1.58,0.27,-2.42,0.13,368.00,588.00,327.00,336.00,324.00,979.00,687.00,1280.00,,,,,,,,,,,,0,0,0,,-3012,15768,2208,-88,114,-132
17.326,17.00,0.84,-2.32,-1.64,-1.82,-1.04,-2.18,3.84,-1.24,1.51,270.00,767.00,221.00,511.00,270.00,911.00,624.00,1177.00,,,,,,,,,,,,0,0,0,,-3084,15720,2444,-111,156,-70
17.366,17.06,1.02,-2.30,2.39,-3.73,6.27,4.49,-3.20,3.97,-3.42,217.00,688.00,154.00,453.00,350.00,845.00,741.00,1093.00,,,,,,,,,,,,0,0,0,,-3084,15824,2200,-103,167,-68
17.387,17.11,1.00,5.74,-6.60,7.79,-5.79,0.57,-0.34,-0.19,-0.94,305.00,637.00,240.00,397.00,322.00,914.00,699.00,1206.00,,,,,,,,,,,,0,0,0,,-3016,15808,2148,7,109,-238
17.448,17.17,0.94,1.27,-2.98,4.95,-4.76,-0.17,0.25,-0.77,0.09,272.00,690.00,239.00,432.00,316.00,926.00,668.00,1200.00,,,,,,,,,,,,0,0,0,,-3192,15904,2352,-65,-39,-349
17.509,17.22,0.84,-0.15,-0.94,-0.01,-1.14,-1.08,3.33,0.16,0.12,250.00,691.00,215.00,477.00,272.00,884.00,656.00,1156.00,,,,,,,,,,,,0,0,0,,-3216,15716,2524,-68,18,-165
17.549,17.28,1.12,0.84,-0.52,-0.91,5.21,6.48,-5.29,3.96,-3.73,240.00,657.00,155.00,417.00,378.00,826.00,754.00,1103.00,,,,,,,,,,,,0,0,0,,-3272,15780,2508,-105,230,-135
17.612,17.33,0.99,7.19,-7.97,12.68,-10.09,-1.56,1.07,-1.77,0.60,320.00,624.00,277.00,367.00,310.00,957.00,662.00,1232.00,,,,,,,,,,,,0,0,0,,-3264,15792,2492,-85,208,-124
17.673,17.39,0.76,-1.92,-0.79,-2.80,0.41,-3.48,7.64,-1.12,2.66,256.00,738.00,208.00,511.00,225.00,866.00,585.00,1136.00,,,,,,,,,,,,0,0,0,,-3048,15796,2436,-27,86,-71
17.735,17.44,1.19,-4.73,7.08,-7.06,12.79,9.35,-7.57,7.06,-5.87,176.00,668.00,115.00,434.00,406.00,784.00,800.00,1033.00,,,,,,,,,,,,0,0,0,,-3120,15832,2308,34,142,-217
17.777,17.50,1.08,11.66,-11.70,16.31,-13.03,-1.14,0.35,-1.82,0.04,361.00,578.00,304.00,344.00,320.00,960.00,683.00,1253.00,,,,,,,,,,,,0,0,0,,-3080,15740,2220,6,143,-175
17.839,17.55,0.93,-2.18,-1.06,-5.48,5.48,-1.88,4.01,-1.14,1.77,261.00,751.00,166.00,496.00,266.00,896.00,614.00,1164.00,,,,,,,,,,,,0,0,0,,-3144,15856,2148,-16,8,-201
17.902,17.61,1.11,-2.41,3.21,-3.23,5.87,4.64,-2.72,3.91,-3.02,208.00,676.00,156.00,449.00,340.00,829.00,726.00,1084.00,,,,,,,,,,,,0,0,0,,-3128,15820,2248,-41,97,-243
17.944,17.66,1.17,6.20,-6.51,7.80,-4.77,2.30,-1.49,0.83,-1.25,301.00,624.00,227.00,386.00,332.00,880.00,698.00,1168.00,,,,,,,,,,,,0,0,0,,-3156,15716,2304,-67,70,-249
18.045,17.72,1.10,1.99,-3.22,5.64,-4.29,-0.25,0.69,-0.39,-0.06,272.00,675.00,230.00,415.00,309.00,918.00,669.00,1187.00,,,,,,,,,,,,0,0,0,,-3220,15724,2376,-105,127,-138
18.065,17.77,0.98,-0.29,-0.90,-0.13,-0.49,-1.41,3.44,0.01,0.51,250.00,694.00,208.00,471.00,272.00,893.00,644.00,1151.00,,,,,,,,,,,,0,0,0,,-3268,15788,2228,-108,178,-140
18.106,17.83,1.21,-0.81,0.74,-3.32,4.86,5.57,-4.89,3.46,-3.47,231.00,678.00,165.00,463.00,376.00,847.00,750.00,1117.00,,,,,,,,,,,,0,0,0,,-3124,15860,2332,-113,125,-92
18.166,17.88,1.03,6.77,-8.00,12.83,-10.40,-2.28,1.26,-2.25,0.35,323.00,635.00,281.00,368.00,311.00,980.00,677.00,1264.00,,,,,,,,,,,,0,0,0,,-3104,15956,2356,-25,147,-134
18.228,17.94,0.76,-2.47,-0.81,-3.39,-0.00,-4.49,7.82,-1.98,2.92,259.00,755.00,215.00,529.00,227.00,897.00,586.00,1167.00,,,,,,,,,,,,0,0,0,,-3220,15712,2148,-48,155,-265
18.269,17.99,1.17,-5.46,7.32,-9.18,13.34,9.01,-7.73,6.78,-6.09,176.00,683.00,116.00,465.00,412.00,798.00,814.00,1051.00,,,,,,,,,,,,0,0,0,,-3156,15696,2376,-46,-35,-251
18.33,18.05,1.08,10.97,-11.26,16.41,-13.06,-0.53,-0.20,-1.51,-0.07,357.00,587.00,304.00,343.00,326.00,951.00,683.00,1241.00,,,,,,,,,,,,0,0,0,,-3220,15780,2464,-56,107,-163
18.434,18.10,0.95,-0.70,-2.38,-0.41,-1.93,-1.51,4.10,-0.96,1.81,273.00,734.00,226.00,495.00,263.00,881.00,611.00,1155.00,,,,,,,,,,,,0,0,0,,-3168,15752,2228,-116,250,-106
18.455,18.16,1.13,-3.08,4.26,-3.07,6.05,4.37,-2.41,4.23,-2.97,199.00,675.00,154.00,444.00,336.00,831.00,720.00,1069.00,,,,,,,,,,,,0,0,0,,-3156,15908,2328,-111,131,-99
18.516,18.21,1.21,5.13,-5.53,6.65,-4.30,2.83,-1.67,0.82,-0.66,291.00,634.00,226.00,399.00,332.00,866.00,676.00,1150.00,,,,,,,,,,,,0,0,0,,-3116,15872,2348,-50,101,-154
18.598,18.27,1.17,2.08,-2.91,6.62,-4.53,0.48,0.57,-0.02,0.04,267.00,667.00,229.00,402.00,307.00,895.00,661.00,1167.00,,,,,,,,,,,,0,0,0,,-3084,15772,2428,2,164,-186
18.618,18.32,1.04,-0.75,-0.22,-1.09,0.37,-1.44,4.28,0.53,0.60,243.00,694.00,202.00,478.00,260.00,874.00,635.00,1125.00,,,,,,,,,,,,0,0,0,,-3112,15816,2148,-88,77,-161
18.66,18.38,1.36,0.65,-0.07,-2.30,5.67,7.29,-5.66,4.56,-3.84,235.00,654.00,155.00,435.00,380.00,808.00,750.00,1080.00,,,,,,,,,,,,0,0,0,,-3116,15772,2272,-46,65,-240
18.701,18.43,1.21,7.35,-8.03,13.94,-10.91,-1.54,1.37,-1.51,0.15,320.00,621.00,283.00,357.00,305.00,949.00,675.00,1234.00,,,,,,,,,,,,0,0,0,,-3232,15792,2220,-64,86,-262
18.782,18.49,0.92,-2.57,-0.28,-2.19,-0.49,-4.67,8.79,-1.78,3.17,252.00,747.00,216.00,511.00,216.00,880.00,576.00,1150.00,,,,,,,,,,,,0,0,0,,-3224,15716,2284,-134,34,-198
18.825,18.54,1.33,-5.54,7.99,-8.38,14.91,9.22,-7.53,6.46,-5.69,170.00,673.00,105.00,432.00,406.00,787.00,801.00,1053.00,,,,,,,,,,,,0,0,0,,-3228,15824,2364,-150,166,-118
18.887,18.60,1.23,10.03,-10.63,15.26,-11.80,-0.79,-0.06,-1.75,-0.09,351.00,599.00,290.00,347.00,325.00,957.00,687.00,1254.00,,,,,,,,,,,,0,0,0,,-3128,15668,2304,-90,200,-139
18.949,18.65,1.08,-1.55,-2.03,0.12,-2.02,-1.61,3.99,-0.98,1.57,272.00,752.00,225.00,486.00,265.00,887.00,619.00,1163.00,,,,,,,,,,,,0,0,0,,-3040,15848,2272,-71,113,-80
19.01,18.71,1.21,-3.18,3.74,-3.90,6.70,3.61,-2.04,3.42,-2.98,205.00,687.00,151.00,451.00,334.00,848.00,731.00,1104.00,,,,,,,,,,,,0,0,0,,-3052,15784,2420,-12,121,-211
19.031,18.76,1.26,4.18,-5.39,5.07,-3.44,2.17,-1.33,0.76,-1.15,294.00,656.00,222.00,415.00,330.00,881.00,695.00,1168.00,,,,,,,,,,,,0,0,0,,-3144,15824,2276,-111,115,-265
19.113,18.82,1.21,2.01,-3.36,6.52,-5.21,0.20,0.60,-0.67,-0.05,274.00,677.00,238.00,411.00,308.00,904.00,672.00,1200.00,,,,,,,,,,,,0,0,0,,-3248,15652,2304,-75,-20,-228
19.154,18.87,1.08,-1.28,0.04,-0.97,-0.03,-1.29,4.02,0.42,0.49,242.00,704.00,206.00,481.00,263.00,875.00,640.00,1133.00,,,,,,,,,,,,0,0,0,,-3164,15744,2484,-82,162,-162
19.195,18.93,1.42,-0.41,0.77,-1.33,5.11,7.81,-5.64,4.96,-3.97,229.00,667.00,157.00,425.00,376.00,791.00,750.00,1067.00,,,,,,,,,,,,0,0,0,,-3240,15812,2256,-141,276,-132
19.277,18.98,1.30,7.99,-8.30,14.64,-10.88,-0.97,0.76,-1.76,0.74,321.00,610.00,279.00,347.00,312.00,943.00,657.00,1227.00,,,,,,,,,,,,0,0,0,,-3100,15768,2304,-156,61,-129
19.319,19.04,1.00,-3.03,0.25,-3.20,0.28,-4.64,9.30,-1.63,3.41,247.00,750.00,211.00,521.00,210.00,867.00,567.00,1136.00,,,,,,,,,,,,0,0,0,,-3200,15912,2352,-95,149,-164
19.381,19.09,1.42,-5.73,8.38,-8.70,15.37,9.40,-7.27,7.36,-5.95,167.00,671.00,103.00,432.00,399.00,776.00,799.00,1023.00,,,,,,,,,,,,0,0,0,,-3076,15752,2124,-60,75,-180
19.424,19.15,1.33,10.27,-10.24,16.37,-12.24,-0.40,0.16,-1.50,-0.01,342.00,587.00,291.00,336.00,319.00,937.00,681.00,1239.00,,,,,,,,,,,,0,0,0,,-3092,15852,2196,-108,21,-170
19.504,19.20,1.17,-1.25,-1.15,0.69,-1.37,-1.85,4.64,-0.75,1.89,258.00,726.00,215.00,467.00,257.00,880.00,606.00,1143.00,,,,,,,,,,,,0,0,0,,-3220,15708,2268,-72,71,-289
19.525,19.26,1.33,-2.87,4.00,-3.27,6.85,4.28,-1.82,3.50,-2.54,201.00,674.00,148.00,438.00,326.00,821.00,713.00,1088.00,,,,,,,,,,,,0,0,0,,-3132,15768,2436,-108,32,-237
19.587,19.31,1.43,4.41,-5.22,4.73,-2.21,3.34,-1.95,1.14,-1.04,290.00,647.00,209.00,407.00,334.00,855.00,686.00,1147.00,,,,,,,,,,,,0,0,0,,-3248,15752,2392,-192,55,-175
19.647,19.37,1.35,2.00,-3.02,7.34,-5.41,-0.03,0.86,-0.18,-0.05,269.00,671.00,237.00,400.00,305.00,906.00,666.00,1177.00,,,,,,,,,,,,0,0,0,,-3216,15788,2348,-149,159,-140
19.729,19.42,1.22,-1.73,-0.04,-1.03,0.45,-1.29,4.02,-0.25,0.91,245.00,718.00,201.00,476.00,263.00,875.00,633.00,1150.00,,,,,,,,,,,,0,0,0,,-3208,15804,2264,-192,166,-91
19.749,19.48,1.52,-0.53,0.33,-1.53,5.06,7.25,-5.84,4.16,-3.90,235.00,678.00,158.00,429.00,384.00,813.00,758.00,1099.00,,,,,,,,,,,,0,0,0,,-3192,15824,2268,-102,164,-93
19.811,19.53,1.38,7.19,-7.97,13.52,-10.50,-1.26,0.56,-2.39,0.64,320.00,624.00,279.00,359.00,317.00,959.00,668.00,1261.00,,,,,,,,,,,,0,0,0,,-3076,15704,2332,-45,118,-185
19.935,19.59,1.06,-3.18,-0.36,0.86,-0.91,-5.11,8.77,-2.17,3.34,256.00,767.00,209.00,458.00,218.00,896.00,575.00,1163.00,,,,,,,,,,,,0,0,0,,-3220,15928,2284,-111,23,-242
19.957,19.64,1.48,-5.20,7.66,-8.98,14.94,9.51,-7.68,6.52,-5.64,172.00,670.00,106.00,442.00,407.00,781.00,798.00,1049.00,,,,,,,,,,,,0,0,0,,-3160,15736,2484,-192,146,-150
19.976,19.70,1.41,9.95,-10.07,15.02,-11.33,0.03,-0.56,-1.49,0.09,341.00,592.00,284.00,346.00,329.00,939.00,677.00,1235.00,,,,,,,,,,,,0,0,0,,-3232,15736,2428,-118,237,-180
20.04,19.75,1.34,-1.15,-1.61,-0.02,-0.96,-0.08,2.07,-0.68,1.71,264.00,732.00,213.00,475.00,286.00,879.00,611.00,1145.00,,,,,,,,,,,,0,0,0,,-3204,15736,2276,-95,113,-153
20.08,19.81,1.49,-3.22,4.96,-5.25,9.77,4.46,-2.27,3.72,-2.49,192.00,666.00,131.00,438.00,333.00,825.00,708.00,1077.00,,,,,,,,,,,,0,0,0,,-3208,15864,2424,-123,60,-92
20.142,19.86,1.57,4.39,-4.96,5.28,-2.75,3.02,-1.17,1.37,-1.30,286.00,643.00,213.00,404.00,322.00,848.00,693.00,1145.00,,,,,,,,,,,,0,0,0,,-3164,15764,2376,-24,171,-203
20.244,19.92,1.51,2.26,-3.17,6.92,-4.80,0.40,1.02,-0.22,0.13,270.00,667.00,231.00,400.00,300.00,887.00,660.00,1173.00,,,,,,,,,,,,0,0,0,,-3276,15708,2296,-35,35,-219
20.265,19.97,1.38,-0.92,-0.24,-0.64,-0.05,-1.05,4.44,0.51,0.74,244.00,699.00,205.00,475.00,256.00,857.00,630.00,1121.00,,,,,,,,,,,,0,0,0,,-3168,15756,2328,-33,-30,-229
20.306,20.03,1.68,-0.43,0.85,-1.02,4.66,7.26,-5.11,4.69,-3.93,228.00,666.00,160.00,425.00,369.00,797.00,752.00,1077.00,,,,,,,,,,,,0,0,0,,-3192,15672,2468,5,120,-178
20.368,20.08,1.52,7.56,-8.15,13.53,-10.31,-1.42,1.39,-2.03,0.46,321.00,618.00,276.00,357.00,304.00,944.00,670.00,1249.00,,,,,,,,,,,,0,0,0,,-3280,15764,2348,-17,144,-172
20.429,20.14,1.22,-3.20,0.31,-2.72,0.30,-4.52,8.57,-2.26,3.75,247.00,754.00,209.00,511.00,218.00,880.00,563.00,1154.00,,,,,,,,,,,,0,0,0,,-3164,15680,2364,-29,105,-116
20.469,20.19,1.63,-5.54,8.10,-8.23,14.17,9.44,-7.38,6.67,-5.76,169.00,671.00,109.00,438.00,401.00,777.00,801.00,1046.00,,,,,,,,,,,,0,0,0,,-3208,15720,2476,-43,173,-72
20.571,20.25,1.50,9.61,-10.44,15.70,-12.01,-0.89,0.32,-1.75,-0.12,350.00,606.00,291.00,343.00,319.00,951.00,688.00,1255.00,,,,,,,,,,,,0,0,0,,-3184,15880,2360,-54,254,-122
20.612,20.30,1.35,-1.55,-1.82,0.17,-1.79,-1.67,4.29,-0.79,1.42,269.00,748.00,222.00,482.00,261.00,882.00,622.00,1159.00,,,,,,,,,,,,0,0,0,,-3124,15752,2300,-58,93,-243
20.632,20.36,1.47,-2.83,3.44,-3.18,6.21,3.83,-1.61,3.33,-2.64,207.00,683.00,153.00,444.00,325.00,831.00,719.00,1098.00,,,,,,,,,,,,0,0,0,,-3128,15732,2376,-111,-53,-219
20.693,20.41,1.55,4.89,-5.57,6.26,-4.00,3.07,-1.24,1.15,-0.99,293.00,641.00,224.00,402.00,323.00,848.00,684.00,1145.00,,,,,,,,,,,,0,0,0,,-3272,15784,2432,-133,189,-138
20.755,20.47,1.50,1.32,-2.02,6.57,-4.27,0.61,0.59,0.06,-0.02,258.00,671.00,226.00,400.00,306.00,890.00,662.00,1165.00,,,,,,,,,,,,0,0,0,,-3152,15792,2404,-86,259,-135
20.795,20.52,1.39,-0.85,-0.33,-0.11,0.05,-0.77,3.99,-0.50,2.20,245.00,699.00,202.00,464.00,261.00,858.00,593.00,1122.00,,,,,,,,,,,,0,0,0,,-3108,15760,2388,-48,52,-136
20.857,20.58,1.70,0.64,-0.46,-1.28,5.57,7.55,-5.26,4.64,-3.89,240.00,661.00,153.00,419.00,370.00,791.00,751.00,1078.00,,,,,,,,,,,,0,0,0,,-3176,15720,2412,-82,97,-137
20.918,20.63,1.56,7.09,-7.76,14.97,-10.72,-1.01,1.37,-1.56,0.50,317.00,623.00,275.00,341.00,302.00,929.00,663.00,1225.00,,,,,,,,,,,,0,0,0,,-3212,15780,2344,2,138,-199
20.979,20.69,1.28,-2.74,0.38,-1.95,0.13,-4.03,8.75,-1.49,3.36,244.00,739.00,208.00,498.00,214.00,859.00,567.00,1131.00,,,,,,,,,,,,0,0,0,,-3092,15804,2116,-22,44,-151
21.062,20.74,1.71,-5.00,7.81,-8.30,14.36,9.86,-7.61,6.99,-5.87,170.00,662.00,108.00,437.00,403.00,769.00,801.00,1036.00,,,,,,,,,,,,0,0,0,,-3068,15820,2376,-15,112,-184
21.083,20.80,1.62,10.42,-10.45,16.81,-12.89,-0.11,-0.11,-1.39,-0.02,345.00,587.00,299.00,336.00,322.00,933.00,680.00,1234.00,,,,,,,,,,,,0,0,0,,-3244,15720,2340,-38,137,-198
21.124,20.85,1.45,-0.76,-2.30,0.46,-2.14,-1.88,4.72,-1.09,1.64,272.00,734.00,225.00,481.00,256.00,879.00,618.00,1166.00,,,,,,,,,,,,0,0,0,,-3160,15712,2196,-107,91,-149
21.206,20.91,1.62,-2.85,3.81,-3.86,6.81,4.92,-2.54,3.14,-2.65,203.00,677.00,150.00,449.00,335.00,816.00,722.00,1107.00,,,,,,,,,,,,0,0,0,,-3192,15708,2224,-160,107,-128
21.247,20.96,1.66,5.52,-6.09,6.85,-4.69,2.39,-1.24,1.14,-1.52,298.00,634.00,230.00,400.00,327.00,871.00,704.00,1162.00,,,,,,,,,,,,0,0,0,,-3204,15692,2308,-148,155,-89
21.288,21.02,1.59,1.43,-2.62,6.29,-4.42,0.39,0.78,-0.50,0.20,266.00,679.00,229.00,406.00,304.00,893.00,661.00,1184.00,,,,,,,,,,,,0,0,0,,-3164,15860,2252,-61,213,-24
21.349,21.07,1.48,-0.71,-0.75,0.22,-0.61,-0.74,3.08,-0.05,0.56,250.00,703.00,208.00,466.00,274.00,878.00,643.00,1152.00,,,,,,,,,,,,0,0,0,,-3044,15884,2140,-7,187,-156
21.41,21.13,1.73,-0.31,0.18,-2.51,5.98,6.49,-4.85,3.93,-3.72,236.00,675.00,153.00,435.00,369.00,816.00,754.00,1104.00,,,,,,,,,,,,0,0,0,,-3084,15804,2256,-59,64,-269
21.473,21.18,1.58,7.14,-7.95,13.77,-10.45,-1.25,1.33,-1.63,0.33,320.00,625.00,277.00,355.00,304.00,939.00,670.00,1234.00,,,,,,,,,,,,0,0,0,,-3204,15724,2480,-80,107,-166
21.514,21.24,1.27,-2.50,0.07,-1.79,-0.19,-4.68,9.58,-1.49,3.36,247.00,738.00,211.00,499.00,207.00,862.00,567.00,1131.00,,,,,,,,,,,,0,0,0,,-3104,15828,2404,-66,259,-128
21.575,21.29,1.73,-4.83,7.11,-8.00,14.78,10.53,-8.11,7.38,-5.98,176.00,670.00,105.00,427.00,409.00,759.00,800.00,1023.00,,,,,,,,,,,,0,0,0,,-3156,15816,2240,-108,140,-110
21.638,21.35,1.62,10.88,-11.13,17.37,-12.70,-0.37,0.56,-1.55,0.30,355.00,587.00,293.00,327.00,312.00,926.00,670.00,1231.00,,,,,,,,,,,,0,0,0,,-3200,15764,2472,-60,128,-128
21.721,21.40,1.45,-1.20,-1.94,-0.33,-1.29,-1.91,4.73,-0.74,1.64,269.00,740.00,218.00,485.00,256.00,880.00,614.00,1150.00,,,,,,,,,,,,0,0,0,,-3132,15768,2296,-17,154,-253
21.741,21.46,1.64,-2.15,3.67,-3.49,7.18,5.33,-2.45,4.32,-3.10,202.00,661.00,146.00,438.00,331.00,801.00,724.00,1069.00,,,,,,,,,,,,0,0,0,,-3100,15704,2236,-70,23,-166
21.783,21.51,1.69,6.15,-6.43,8.13,-4.47,2.69,-0.94,0.96,-1.03,300.00,624.00,222.00,378.00,320.00,854.00,688.00,1155.00,,,,,,,,,,,,0,0,0,,-3216,15852,2244,-70,32,-244
21.844,21.57,1.63,1.81,-2.68,7.68,-4.97,0.31,1.49,-0.18,0.23,265.00,670.00,230.00,390.00,293.00,879.00,656.00,1168.00,,,,,,,,,,,,0,0,0,,-3184,15680,2092,-62,125,-312
21.907,21.62,1.55,-0.12,-0.88,0.36,-0.65,0.03,3.02,0.42,0.46,249.00,689.00,208.00,464.00,271.00,853.00,641.00,1134.00,,,,,,,,,,,,0,0,0,,-3288,15792,2244,-81,-37,-240
21.968,21.68,1.81,-0.05,0.56,-1.20,5.18,6.93,-4.95,4.30,-3.80,230.00,661.00,156.00,422.00,368.00,804.00,752.00,1090.00,,,,,,,,,,,,0,0,0,,-3312,15660,2524,-150,123,-136
22.01,21.73,1.67,6.88,-7.87,13.08,-9.95,-1.13,1.35,-2.01,0.65,320.00,630.00,273.00,360.00,303.00,934.00,663.00,1242.00,,,,,,,,,,,,0,0,0,,-3228,15756,2380,-141,249,-163
22.091,21.79,1.37,-2.49,-0.59,-2.26,0.05,-4.26,8.57,-1.41,2.73,256.00,751.00,210.00,505.00,217.00,871.00,586.00,1147.00,,,,,,,,,,,,0,0,0,,-3252,15740,2292,-68,79,-137
22.133,21.84,1.79,-4.90,6.72,-7.86,13.88,9.77,-7.67,7.01,-6.08,180.00,679.00,110.00,435.00,405.00,773.00,810.00,1041.00,,,,,,,,,,,,0,0,0,,-3272,15776,2332,-21,105,-90
22.195,21.90,1.65,11.04,-12.00,16.95,-13.42,-1.02,0.60,-2.28,0.25,371.00,597.00,307.00,339.00,315.00,949.00,681.00,1269.00,,,,,,,,,,,,0,0,0,,-3096,15884,2160,-16,185,-243
22.236,21.95,1.47,-2.74,-1.01,-0.05,-2.61,-1.88,4.01,-1.40,1.71,263.00,767.00,233.00,497.00,266.00,896.00,619.00,1178.00,,,,,,,,,,,,0,0,0,,-3268,15736,2092,-54,5,-263
22.299,22.01,1.66,-2.46,3.23,0.01,2.45,5.21,-2.69,4.27,-3.26,208.00,677.00,177.00,433.00,336.00,810.00,731.00,1076.00,,,,,,,,,,,,0,0,0,,-3208,15664,2400,-137,98,-111
22.361,22.06,1.69,7.11,-6.93,9.38,-6.02,2.29,-0.92,0.63,-0.92,303.00,609.00,236.00,375.00,322.00,867.00,688.00,1167.00,,,,,,,,,,,,0,0,0,,-3260,15800,2420,-108,427,-79
22.443,22.12,1.65,1.03,-2.13,6.25,-4.08,0.87,0.62,0.08,0.17,261.00,681.00,225.00,403.00,304.00,880.00,655.00,1158.00,,,,,,,,,,,,0,0,0,,-2972,15848,2240,-192,255,-114
22.525,22.17,1.55,-0.55,-0.13,1.29,-0.97,-0.30,3.69,1.47,-0.10,241.00,687.00,208.00,451.00,263.00,849.00,648.00,1104.00,,,,,,,,,,,,0,0,0,,-3212,15788,2192,-152,-21,-146
22.545,22.23,1.83,0.71,-0.32,-0.52,4.72,7.05,-4.99,4.30,-3.80,238.00,657.00,158.00,416.00,368.00,801.00,752.00,1090.00,,,,,,,,,,,,0,0,0,,-2980,15824,2276,-110,68,-200
22.588,22.28,1.70,6.89,-7.52,14.09,-10.29,-0.74,1.10,-2.12,0.69,314.00,624.00,273.00,349.00,305.00,926.00,663.00,1246.00,,,,,,,,,,,,0,0,0,,-3100,15820,2336,-154,105,-209
22.607,22.34,1.46,-1.41,-1.39,-1.62,0.02,-3.16,7.95,-1.03,2.76,262.00,735.00,208.00,493.00,220.00,848.00,581.00,1129.00,,,,,,,,,,,,0,0,0,,-3160,15724,2284,-112,77,-312
22.668,22.39,1.90,-4.40,6.76,-5.65,11.84,10.38,-7.74,7.66,-6.34,178.00,665.00,118.00,421.00,402.00,756.00,812.00,1022.00,,,,,,,,,,,,0,0,0,,-3240,15668,2268,-119,68,-331
22.75,22.45,1.74,10.96,-11.57,18.64,-14.11,-1.33,1.18,-2.15,0.28,363.00,592.00,309.00,323.00,307.00,946.00,678.00,1261.00,,,,,,,,,,,,0,0,0,,-3292,15764,2328,-185,26,-288
22.812,22.50,1.59,-2.35,-1.00,-0.77,-1.48,-1.27,4.30,-0.75,1.44,261.00,755.00,222.00,496.00,259.00,868.00,621.00,1157.00,,,,,,,,,,,,0,0,0,,-3248,15736,2388,-222,102,-216
22.832,22.56,1.77,-2.94,3.39,-2.71,6.54,5.17,-2.67,4.03,-3.36,208.00,687.00,149.00,432.00,336.00,811.00,738.00,1089.00,,,,,,,,,,,,0,0,0,,-3236,15708,2312,-178,164,-104
22.893,22.61,1.77,6.36,-6.75,9.12,-5.54,1.69,-0.55,-0.08,-0.74,304.00,624.00,231.00,374.00,319.00,879.00,690.00,1194.00,,,,,,,,,,,,0,0,0,,-3252,15836,2452,-100,203,-129
22.955,22.67,1.69,1.28,-3.05,6.13,-5.00,0.29,1.06,0.19,-0.34,273.00,691.00,237.00,415.00,300.00,890.00,672.00,1169.00,,,,,,,,,,,,0,0,0,,-3208,15808,2216,-38,211,-230
23.016,22.72,1.61,-0.38,-1.09,0.99,-0.69,0.05,2.22,0.41,-0.02,253.00,700.00,206.00,453.00,283.00,871.00,658.00,1149.00,,,,,,,,,,,,0,0,0,,-3308,15732,2280,-46,24,-301
23.077,22.78,1.84,0.67,-1.22,-1.11,4.01,6.27,-5.07,3.41,-3.50,250.00,674.00,166.00,434.00,375.00,828.00,752.00,1120.00,,,,,,,,,,,,0,0,0,,-3288,15788,2540,-115,-77,-317
23.138,22.83,1.70,6.01,-7.05,12.33,-9.97,-1.08,1.40,-1.77,0.60,311.00,638.00,277.00,371.00,302.00,931.00,662.00,1232.00,,,,,,,,,,,,0,0,0,,-3312,15688,2524,-164,201,-168
23.179,22.89,1.46,-1.97,-0.55,-2.10,0.26,-3.14,7.53,-0.85,2.26,253.00,735.00,207.00,499.00,225.00,857.00,595.00,1136.00,,,,,,,,,,,,0,0,0,,-3312,15712,2384,-124,244,-137
23.219,22.94,1.90,-3.22,4.96,-6.79,13.51,10.27,-7.38,7.16,-5.65,192.00,666.00,110.00,421.00,395.00,752.00,789.00,1023.00,,,,,,,,,,,,0,0,0,,-3340,15748,2388,-128,38,-85
23.279,23.00,1.73,11.71,-11.97,19.36,-14.82,-1.32,1.11,-1.87,-0.19,366.00,581.00,317.00,320.00,308.00,947.00,692.00,1263.00,,,,,,,,,,,,0,0,0,,-3192,15716,2448,-150,114,-162
23.341,23.05,1.50,-2.17,-1.41,-0.77,-1.48,-3.05,7.01,-1.41,2.73,266.00,758.00,222.00,496.00,231.00,866.00,586.00,1147.00,,,,,,,,,,,,0,0,0,,-3260,15664,2432,7,147,-212
23.382,23.11,1.71,-2.84,3.36,-3.18,6.21,5.80,-2.99,4.63,-3.66,208.00,685.00,153.00,444.00,338.00,798.00,742.00,1072.00,,,,,,,,,,,,0,0,0,,-3312,15724,2328,-3,-11,-227
23.445,23.16,1.68,7.15,-7.61,10.27,-6.63,1.14,0.23,0.01,-0.55,314.00,619.00,240.00,368.00,309.00,880.00,682.00,1184.00,,,,,,,,,,,,0,0,0,,-3292,15788,2516,-33,-6,-235
23.506,23.22,1.61,0.70,-2.31,5.03,-3.92,0.15,1.73,0.14,0.15,265.00,693.00,228.00,421.00,290.00,879.00,655.00,1156.00,,,,,,,,,,,,0,0,0,,-3372,15768,2336,7,136,-207
23.546,23.27,1.54,0.07,-0.94,-1.29,0.44,0.29,2.73,0.78,-0.20,249.00,685.00,202.00,481.00,274.00,851.00,660.00,1138.00,,,,,,,,,,,,0,0,0,,-3340,15736,2440,-2,143,-123
23.629,23.33,1.76,0.93,-1.38,0.50,2.60,5.91,-3.99,3.05,-2.73,251.00,670.00,174.00,423.00,356.00,816.00,726.00,1113.00,,,,,,,,,,,,0,0,0,,-3396,15632,2392,-30,131,-31
23.649,23.38,1.63,5.30,-7.16,11.02,-9.33,-0.72,0.91,-1.56,0.28,317.00,658.00,274.00,384.00,308.00,930.00,671.00,1232.00,,,,,,,,,,,,0,0,0,,-3192,15764,2424,-52,224,1
23.71,23.44,1.38,-2.62,-0.41,-2.28,0.24,-3.44,7.63,-0.98,1.91,254.00,751.00,208.00,503.00,225.00,865.00,608.00,1153.00,,,,,,,,,,,,0,0,0,,-3008,15788,2404,-29,236,-54
23.793,23.49,1.76,-3.35,4.81,-5.50,10.58,8.91,-6.40,6.02,-5.14,194.00,672.00,126.00,433.00,384.00,773.00,784.00,1056.00,,,,,,,,,,,,0,0,0,,-3168,15860,2132,18,95,-178
23.813,23.55,1.59,11.18,-11.90,18.60,-14.74,-1.66,1.11,-2.88,0.72,368.00,592.00,320.00,329.00,310.00,960.00,671.00,1283.00,,,,,,,,,,,,0,0,0,,-3172,15852,2272,-67,-1,-267
23.915,23.60,1.32,-2.68,-1.10,-2.34,-0.27,-3.65,7.37,-1.75,3.22,264.00,767.00,214.00,511.00,229.00,878.00,574.00,1147.00,,,,,,,,,,,,0,0,0,,-3252,15668,2460,-183,112,-178
23.935,23.66,1.55,-2.99,3.41,-3.06,6.29,5.82,-3.16,4.56,-3.56,208.00,688.00,152.00,441.00,341.00,801.00,739.00,1072.00,,,,,,,,,,,,0,0,0,,-3276,15600,2484,-201,230,-130
23.997,23.71,1.53,7.05,-7.34,10.18,-6.60,1.17,0.40,0.43,-0.69,310.00,617.00,240.00,369.00,306.00,875.00,682.00,1169.00,,,,,,,,,,,,0,0,0,,-3208,15736,2312,-278,168,-77
24.059,23.77,1.44,0.02,-1.94,4.50,-3.58,-0.29,3.06,-0.21,1.02,263.00,705.00,226.00,426.00,272.00,863.00,629.00,1145.00,,,,,,,,,,,,0,0,0,,-3336,15772,2360,-173,160,-76
24.099,23.82,1.41,-0.71,0.00,2.17,-1.08,0.95,1.98,1.02,-0.17,240.00,689.00,206.00,437.00,282.00,846.00,656.00,1126.00,,,,,,,,,,,,0,0,0,,-3208,15752,2564,-36,152,-157
24.18,23.88,1.55,0.65,-0.69,0.43,2.51,4.06,-2.30,3.61,-2.71,243.00,665.00,175.00,425.00,336.00,839.00,718.00,1088.00,,,,,,,,,,,,0,0,0,,-3224,15664,2424,25,66,-179
24.22,23.93,1.44,5.85,-7.17,11.36,-9.24,-0.58,1.35,-1.39,0.58,314.00,644.00,271.00,378.00,300.00,914.00,658.00,1214.00,,,,,,,,,,,,0,0,0,,-3128,15772,2392,30,18,-217
24.283,23.99,1.24,-2.05,-0.23,-1.38,0.11,-2.47,6.97,-0.49,1.92,249.00,731.00,206.00,487.00,229.00,847.00,602.00,1130.00,,,,,,,,,,,,0,0,0,,-3228,15748,2260,-21,83,-218
24.324,24.04,1.64,-2.91,4.67,-6.17,12.17,9.25,-5.98,6.12,-4.73,194.00,663.00,117.00,426.00,373.00,754.00,765.00,1040.00,,,,,,,,,,,,0,0,0,,-3300,15744,2468,-73,94,-201
24.407,24.10,1.49,11.46,-11.99,18.60,-14.39,-1.53,1.43,-2.50,0.57,368.00,587.00,314.00,326.00,304.00,947.00,672.00,1269.00,,,,,,,,,,,,0,0,0,,-3148,15728,2512,-117,165,-141
24.428,24.15,1.20,-7.16,5.17,-1.60,-1.36,-4.26,8.65,-1.83,3.32,204.00,774.00,224.00,511.00,216.00,869.00,572.00,1148.00,,,,,,,,,,,,0,0,0,,-3200,15736,2376,-92,136,-136
24.49,24.21,1.44,-3.12,3.27,-3.41,6.05,6.06,-3.94,4.22,-3.84,210.00,694.00,155.00,450.00,354.00,810.00,755.00,1095.00,,,,,,,,,,,,0,0,0,,-3024,15744,2404,-49,125,-80
24.532,24.26,1.41,6.94,-7.77,10.73,-7.61,0.81,0.34,-0.63,-0.20,318.00,627.00,251.00,371.00,309.00,889.00,677.00,1203.00,,,,,,,,,,,,0,0,0,,-3248,15840,2200,-36,158,-103
24.595,24.32,1.27,-1.23,-1.45,2.93,-3.13,-1.48,3.47,-1.24,1.45,262.00,731.00,227.00,448.00,272.00,895.00,626.00,1179.00,,,,,,,,,,,,0,0,0,,-3088,15780,2476,-95,141,-184
24.657,24.37,1.23,-0.18,-1.01,0.98,-0.59,0.48,2.14,0.56,-0.21,251.00,693.00,205.00,452.00,282.00,858.00,663.00,1148.00,,,,,,,,,,,,0,0,0,,-3152,15612,2316,-64,59,-249
24.719,24.43,1.42,0.27,-0.41,0.71,2.63,5.11,-2.82,2.99,-2.16,241.00,670.00,173.00,419.00,339.00,816.00,705.00,1099.00,,,,,,,,,,,,0,0,0,,-3180,15720,2460,-114,112,-188
24.781,24.48,1.31,5.29,-6.75,12.04,-9.74,-0.71,1.71,-1.14,0.56,310.00,651.00,275.00,373.00,295.00,910.00,656.00,1203.00,,,,,,,,,,,,0,0,0,,-3208,15716,2448,-55,237,-95
24.841,24.54,1.13,-1.87,-0.29,-1.81,0.43,-2.42,7.04,-0.11,2.14,249.00,727.00,204.00,491.00,228.00,844.00,591.00,1107.00,,,,,,,,,,,,0,0,0,,-3136,15836,2360,-78,181,-73
24.924,24.59,1.54,-3.45,5.14,-4.74,10.76,9.38,-6.12,6.82,-4.82,191.00,669.00,123.00,418.00,375.00,753.00,759.00,1014.00,,,,,,,,,,,,0,0,0,,-3016,15780,2312,-51,104,-109
24.944,24.65,1.42,11.07,-10.77,19.19,-14.00,-0.93,0.63,-2.36,0.71,347.00,577.00,304.00,315.00,314.00,945.00,665.00,1257.00,,,,,,,,,,,,0,0,0,,-3172,15732,2408,-13,133,-181
25.004,24.70,1.12,-2.82,-0.70,-2.13,0.01,-4.56,9.37,-1.54,3.45,259.00,763.00,210.00,503.00,209.00,863.00,565.00,1131.00,,,,,,,,,,,,0,0,0,,-3084,15732,2224,-110,81,-176
25.086,24.76,1.41,-3.65,5.20,-4.43,9.08,7.02,-4.47,5.10,-4.04,191.00,673.00,134.00,432.00,358.00,791.00,751.00,1063.00,,,,,,,,,,,,0,0,0,,-3216,15808,2364,-86,44,-261
25.106,24.81,1.40,9.60,-9.68,11.18,-7.47,1.21,0.51,-0.17,-0.16,336.00,594.00,247.00,363.00,304.00,871.00,670.00,1180.00,,,,,,,,,,,,0,0,0,,-3208,15756,2308,-5,56,-266
25.147,24.87,1.25,1.88,-2.84,2.48,-1.45,-1.54,4.39,-0.60,1.56,267.00,671.00,209.00,436.00,259.00,875.00,615.00,1146.00,,,,,,,,,,,,0,0,0,,-3240,15752,2384,-106,46,-194
25.208,24.92,1.24,-0.67,-0.02,-0.54,1.81,0.87,2.01,0.97,-0.32,240.00,688.00,185.00,450.00,282.00,848.00,662.00,1133.00,,,,,,,,,,,,0,0,0,,-3252,15636,2500,-169,164,-120
25.27,24.98,1.42,1.50,-2.22,1.10,1.98,4.97,-2.61,2.54,-2.01,260.00,670.00,178.00,420.00,336.00,816.00,705.00,1114.00,,,,,,,,,,,,0,0,0,,-3292,15768,2388,-119,169,-135
25.331,25.03,1.30,4.61,-6.75,10.88,-8.52,-0.99,1.55,-1.48,0.53,314.00,669.00,263.00,378.00,299.00,924.00,661.00,1220.00,,,,,,,,,,,,0,0,0,,-3252,15796,2448,-86,88,-135
25.393,25.09,1.12,-2.61,0.03,-2.02,0.15,-2.28,6.05,-0.90,1.82,248.00,742.00,208.00,499.00,240.00,862.00,610.00,1152.00,,,,,,,,,,,,0,0,0,,-3100,15896,2556,-42,143,-142
25.414,25.14,1.50,-2.84,4.17,-5.10,10.15,8.65,-5.67,5.80,-4.79,199.00,670.00,128.00,431.00,371.00,766.00,772.00,1055.00,,,,,,,,,,,,0,0,0,,-3072,15784,2156,8,137,-256
25.474,25.20,1.31,9.26,-9.62,16.54,-12.48,-2.27,1.74,-2.70,0.36,337.00,601.00,294.00,336.00,303.00,967.00,682.00,1286.00,,,,,,,,,,,,0,0,0,,-3196,15744,2308,-45,-15,-285
25.536,25.25,1.01,-3.94,0.04,-3.87,0.77,-4.72,9.51,-1.35,3.03,254.00,782.00,208.00,528.00,208.00,865.00,576.00,1135.00,,,,,,,,,,,,0,0,0,,-3260,15748,2400,-96,161,-156
25.597,25.31,1.27,-5.88,7.68,-6.55,12.30,6.32,-4.64,5.17,-4.36,174.00,688.00,117.00,431.00,366.00,817.00,763.00,1069.00,,,,,,,,,,,,0,0,0,,-3184,15676,2352,-127,275,-95
25.638,25.36,1.26,7.36,-7.91,11.41,-8.20,1.03,0.38,-0.10,-0.30,318.00,619.00,256.00,367.00,307.00,880.00,674.00,1181.00,,,,,,,,,,,,0,0,0,,-3176,15732,2268,-103,90,-80
25.699,25.42,1.13,-0.59,-1.09,2.49,-1.89,-1.39,4.55,-0.58,1.80,254.00,706.00,214.00,441.00,256.00,866.00,607.00,1138.00,,,,,,,,,,,,0,0,0,,-3140,15776,2480,-90,96,-122
25.76,25.47,1.12,-0.47,0.47,0.10,1.80,0.93,2.32,0.88,0.30,233.00,674.00,183.00,439.00,277.00,839.00,641.00,1118.00,,,,,,,,,,,,0,0,0,,-3152,15680,2360,-34,175,-228
25.823,25.53,1.32,1.32,-1.73,1.27,1.82,5.23,-2.53,2.62,-1.59,254.00,666.00,179.00,419.00,333.00,806.00,688.00,1098.00,,,,,,,,,,,,0,0,0,,-3292,15792,2312,-73,47,-145
25.886,25.58,1.21,4.15,-5.00,11.15,-7.83,-0.89,1.89,-0.86,0.32,288.00,650.00,252.00,367.00,293.00,912.00,661.00,1197.00,,,,,,,,,,,,0,0,0,,-3224,15844,2320,-100,53,-285
25.926,25.64,1.07,-1.86,-0.52,-2.07,0.52,-1.75,5.87,-0.16,1.90,252.00,731.00,204.00,495.00,240.00,848.00,599.00,1116.00,,,,,,,,,,,,0,0,0,,-3300,15684,2464,-61,73,-255
25.966,25.69,1.45,-1.58,2.93,-5.44,11.00,8.69,-5.89,5.95,-4.47,208.00,659.00,123.00,427.00,375.00,769.00,757.00,1040.00,,,,,,,,,,,,0,0,0,,-3328,15640,2372,-126,39,-180
26.028,25.75,1.29,9.71,-9.72,16.97,-11.99,-1.66,1.11,-2.77,0.82,336.00,592.00,284.00,326.00,310.00,960.00,666.00,1274.00,,,,,,,,,,,,0,0,0,,-3260,15668,2264,-112,204,-52
26.13,25.80,0.99,-4.02,-0.08,-4.13,0.95,-4.72,9.51,-1.80,3.47,256.00,787.00,207.00,531.00,208.00,865.00,567.00,1142.00,,,,,,,,,,,,0,0,0,,-3144,15752,2280,-99,199,-53
26.151,25.86,1.27,-5.47,7.01,-5.32,10.22,6.60,-4.79,4.78,-4.37,179.00,689.00,128.00,434.00,367.00,811.00,769.00,1086.00,,,,,,,,,,,,0,0,0,,-3148,15828,2276,-114,97,-107
26.214,25.91,1.26,6.67,-7.80,9.69,-7.26,1.12,-0.41,-0.74,-0.41,320.00,634.00,251.00,383.00,320.00,896.00,686.00,1215.00,,,,,,,,,,,,0,0,0,,-3164,15832,2440,-125,121,-98
26.274,25.97,1.12,-0.90,-1.63,1.31,-1.24,-1.70,4.37,-1.22,1.77,263.00,725.00,211.00,454.00,260.00,881.00,615.00,1168.00,,,,,,,,,,,,0,0,0,,-3072,15608,2320,-72,97,-216
26.356,26.02,1.12,-2.21,1.78,-1.43,2.72,1.21,0.81,0.45,-0.54,224.00,697.00,179.00,455.00,299.00,864.00,676.00,1163.00,,,,,,,,,,,,0,0,0,,-3108,15884,2284,-144,35,-203
26.377,26.08,1.28,0.87,-1.80,0.90,1.73,4.31,-2.28,1.98,-1.72,257.00,679.00,181.00,426.00,334.00,830.00,701.00,1130.00,,,,,,,,,,,,0,0,0,,-3176,15588,2580,-213,127,-115
26.418,26.13,1.18,3.38,-4.09,9.06,-6.53,-0.65,1.13,-1.50,0.65,278.00,654.00,244.00,385.00,304.00,922.00,657.00,1217.00,,,,,,,,,,,,0,0,0,,-3076,15776,2512,-158,297,-131
26.502,26.19,1.02,-2.12,-0.13,-2.38,0.90,-2.02,5.96,0.02,1.54,248.00,731.00,201.00,496.00,240.00,855.00,609.00,1119.00,,,,,,,,,,,,0,0,0,,-3208,15816,2356,-181,156,-81
26.522,26.24,1.40,-1.58,2.93,-5.82,11.13,8.56,-5.59,5.90,-4.41,208.00,659.00,123.00,432.00,370.00,767.00,755.00,1040.00,,,,,,,,,,,,0,0,0,,-3136,15720,2516,-186,85,-63
26.583,26.30,1.22,9.36,-9.32,16.19,-11.86,-2.21,1.96,-2.59,0.85,331.00,594.00,286.00,335.00,299.00,959.00,663.00,1264.00,,,,,,,,,,,,0,0,0,,-3164,15824,2460,-86,169,-150
26.625,26.35,0.95,-4.09,0.16,-3.87,0.42,-4.14,8.79,-1.69,3.50,253.00,784.00,212.00,533.00,214.00,862.00,565.00,1136.00,,,,,,,,,,,,0,0,0,,-3172,15812,2340,-40,57,-212
26.687,26.41,1.25,-5.51,7.34,-7.59,12.81,6.89,-5.03,4.97,-4.34,176.00,684.00,116.00,443.00,370.00,807.00,765.00,1077.00,,,,,,,,,,,,0,0,0,,-3128,15792,2568,-36,-38,-303
26.749,26.46,1.23,6.93,-7.88,10.48,-8.03,0.94,0.06,-0.63,-0.17,320.00,629.00,258.00,379.00,313.00,891.00,676.00,1202.00,,,,,,,,,,,,0,0,0,,-3192,15736,2472,-12,56,-303
26.811,26.52,1.10,-1.36,-1.05,1.25,-1.48,-1.39,4.55,-0.99,1.82,257.00,727.00,214.00,458.00,256.00,866.00,611.00,1156.00,,,,,,,,,,,,0,0,0,,-3264,15616,2444,-79,84,-260
26.853,26.57,1.10,-2.67,2.77,-1.48,3.37,1.12,1.15,1.37,-0.98,214.00,691.00,173.00,448.00,294.00,859.00,681.00,1135.00,,,,,,,,,,,,0,0,0,,-3224,15672,2468,-118,76,-172
26.916,26.63,1.25,0.90,-1.95,1.06,0.98,4.09,-2.03,1.68,-1.27,259.00,681.00,188.00,432.00,331.00,832.00,688.00,1130.00,,,,,,,,,,,,0,0,0,,-3136,15752,2572,-98,166,-90
26.999,26.68,1.14,3.55,-4.80,9.29,-7.35,-1.09,1.34,-1.61,0.32,288.00,662.00,254.00,390.00,303.00,933.00,670.00,1233.00,,,,,,,,,,,,0,0,0,,-3132,15864,2492,-61,262,-97
27.019,26.74,0.99,-1.92,-0.79,-2.01,0.06,-1.72,5.18,-0.67,1.41,256.00,738.00,209.00,500.00,249.00,863.00,621.00,1154.00,,,,,,,,,,,,0,0,0,,-3176,15776,2348,-39,75,-290
27.08,26.79,1.35,-2.81,3.26,-5.10,9.72,8.11,-5.89,5.02,-4.55,209.00,686.00,131.00,436.00,379.00,787.00,773.00,1081.00,,,,,,,,,,,,0,0,0,,-3184,15728,2420,-97,-72,-194
27.142,26.85,1.19,8.47,-9.25,15.78,-11.91,-1.82,0.93,-3.04,0.77,335.00,614.00,289.00,341.00,314.00,971.00,671.00,1289.00,,,,,,,,,,,,0,0,0,,-3264,15736,2648,-128,119,-189
27.225,26.90,0.91,-4.55,0.61,-8.66,6.66,-4.41,9.23,-1.98,3.72,249.00,789.00,165.00,545.00,210.00,861.00,561.00,1142.00,,,,,,,,,,,,0,0,0,,-3308,15704,2516,-103,340,-138
27.246,26.96,1.20,-4.83,7.01,-6.86,12.40,6.66,-5.11,4.99,-4.47,177.00,672.00,117.00,435.00,373.00,816.00,770.00,1080.00,,,,,,,,,,,,0,0,0,,-3196,15832,2252,34,167,-17
27.306,27.01,1.19,6.62,-7.95,11.14,-8.61,1.06,-0.45,-1.05,0.03,323.00,638.00,263.00,375.00,321.00,899.00,674.00,1216.00,,,,,,,,,,,,0,0,0,,-3200,15820,2332,37,71,-19
27.367,27.07,1.04,-1.63,-0.96,1.41,-1.87,-1.73,4.89,-0.96,1.81,257.00,733.00,218.00,460.00,253.00,870.00,611.00,1155.00,,,,,,,,,,,,0,0,0,,-2992,15816,2432,-32,234,-109
27.409,27.12,1.07,-2.91,3.29,-1.46,3.25,1.50,0.59,2.44,-1.53,209.00,688.00,174.00,449.00,301.00,859.00,688.00,1104.00,,,,,,,,,,,,0,0,0,,-3000,15888,2344,-31,164,-141
27.47,27.18,1.23,1.37,-2.04,1.08,1.47,4.24,-2.03,1.91,-1.64,258.00,670.00,183.00,426.00,330.00,827.00,699.00,1131.00,,,,,,,,,,,,0,0,0,,-3192,15832,2384,-24,-5,-247
27.572,27.23,1.13,3.28,-4.06,8.71,-6.10,-0.78,1.11,-1.14,0.05,278.00,656.00,240.00,386.00,305.00,927.00,674.00,1219.00,,,,,,,,,,,,0,0,0,,-3184,15736,2592,-54,39,-250
27.654,27.29,0.98,-2.35,-0.50,-2.76,0.94,-1.78,5.34,-0.34,1.18,254.00,745.00,202.00,503.00,247.00,861.00,625.00,1146.00,,,,,,,,,,,,0,0,0,,-3224,15736,2428,-40,124,-244
27.675,27.34,1.31,-1.19,1.35,-5.62,9.90,7.64,-5.48,5.18,-4.43,225.00,677.00,131.00,443.00,374.00,793.00,766.00,1071.00,,,,,,,,,,,,0,0,0,,-3196,15716,2316,-132,98,-159
27.695,27.40,1.16,7.96,-8.74,15.28,-11.62,-1.78,1.09,-2.86,0.71,329.00,618.00,287.00,345.00,311.00,965.00,671.00,1282.00,,,,,,,,,,,,0,0,0,,-3280,15736,2432,-116,105,-135
27.736,27.45,0.86,-4.66,0.06,-4.61,0.41,-4.78,9.00,-2.37,3.43,257.00,804.00,215.00,549.00,214.00,879.00,574.00,1169.00,,,,,,,,,,,,0,0,0,,-3072,15820,2464,-146,256,-117
27.778,27.51,1.19,-6.27,7.39,-8.67,13.82,7.33,-5.67,4.79,-4.59,178.00,704.00,112.00,450.00,380.00,807.00,778.00,1092.00,,,,,,,,,,,,0,0,0,,-3108,15680,2396,-24,175,-219
27.84,27.56,1.16,6.80,-8.69,9.73,-8.76,0.64,-0.65,-1.70,-0.14,335.00,646.00,272.00,398.00,327.00,919.00,688.00,1253.00,,,,,,,,,,,,0,0,0,,-3248,15816,2356,-50,25,-237
27.902,27.62,1.02,-1.07,-2.19,1.14,-2.37,-1.67,4.29,-1.17,1.67,272.00,741.00,225.00,471.00,261.00,882.00,618.00,1169.00,,,,,,,,,,,,0,0,0,,-3152,15704,2524,-8,16,-227
27.963,27.67,1.04,-2.96,3.31,-2.72,5.11,1.41,0.99,1.48,-1.18,209.00,689.00,161.00,449.00,295.00,853.00,687.00,1136.00,,,,,,,,,,,,0,0,0,,-3208,15720,2564,-33,208,-162
28.025,27.73,1.19,1.77,-2.46,2.32,0.26,4.16,-2.00,1.55,-1.28,262.00,667.00,191.00,419.00,330.00,829.00,690.00,1136.00,,,,,,,,,,,,0,0,0,,-3184,15832,2344,-47,154,-164
28.088,27.78,1.11,3.08,-3.66,9.11,-6.32,-0.53,1.27,-1.11,0.29,273.00,654.00,241.00,382.00,301.00,914.00,665.00,1210.00,,,,,,,,,,,,0,0,0,,-3236,15676,2412,-41,56,-176
28.109,27.84,0.93,-1.59,-0.97,-2.22,0.66,-2.32,6.06,-0.42,1.62,257.00,732.00,203.00,496.00,240.00,863.00,611.00,1136.00,,,,,,,,,,,,0,0,0,,-3204,15908,2396,-38,133,-200
28.171,27.89,1.29,-1.82,2.84,-4.06,8.28,8.02,-5.66,5.48,-4.32,210.00,667.00,139.00,435.00,375.00,785.00,757.00,1055.00,,,,,,,,,,,,0,0,0,,-3276,15800,2356,-70,112,-178
28.252,27.95,1.14,8.58,-9.17,15.63,-11.15,-1.77,1.63,-2.41,0.70,333.00,610.00,278.00,336.00,302.00,951.00,666.00,1260.00,,,,,,,,,,,,0,0,0,,-3112,15768,2320,-114,-14,-212
28.273,28.00,0.84,-3.96,-0.03,-4.19,0.97,-4.79,9.53,-2.29,4.03,255.00,784.00,207.00,532.00,208.00,867.00,555.00,1147.00,,,,,,,,,,,,0,0,0,,-3176,15688,2396,-68,58,-302
28.333,28.06,1.16,-5.27,7.05,-7.87,13.38,7.34,-5.08,5.73,-4.86,178.00,683.00,113.00,441.00,368.00,794.00,776.00,1060.00,,,,,,,,,,,,0,0,0,,-3192,15780,2356,-76,-1,-327
28.395,28.11,1.15,7.25,-9.00,10.91,-9.15,0.80,-0.19,-0.98,-0.30,338.00,640.00,272.00,384.00,318.00,902.00,685.00,1223.00,,,,,,,,,,,,0,0,0,,-3252,15712,2360,-171,-41,-228
28.455,28.17,0.99,-1.44,-1.45,0.75,-1.22,-2.00,4.69,-1.11,1.77,263.00,737.00,213.00,464.00,257.00,884.00,614.00,1163.00,,,,,,,,,,,,0,0,0,,-3316,15772,2580,-117,45,-218
28.518,28.22,0.99,-3.14,2.93,-3.62,6.12,1.02,0.88,1.33,-1.16,214.00,701.00,155.00,453.00,299.00,869.00,688.00,1142.00,,,,,,,,,,,,0,0,0,,-3240,15728,2508,-135,41,-152
28.56,28.28,1.13,1.54,-2.73,0.65,0.73,3.79,-2.21,1.57,-1.50,267.00,678.00,192.00,442.00,336.00,846.00,698.00,1142.00,,,,,,,,,,,,0,0,0,,-3168,15768,2376,-95,95,-266
28.623,28.33,1.01,2.35,-4.14,6.71,-5.04,-1.23,1.39,-1.74,0.37,284.00,682.00,235.00,406.00,303.00,937.00,670.00,1238.00,,,,,,,,,,,,0,0,0,,-3164,15792,2248,-184,-25,-343
28.705,28.39,0.89,-2.51,-0.37,-2.70,0.55,-1.39,4.55,-0.10,0.92,253.00,747.00,206.00,507.00,256.00,866.00,631.00,1143.00,,,,,,,,,,,,0,0,0,,-3276,15768,2528,-136,-178,-377
28.725,28.44,1.25,-1.64,2.69,-3.71,8.97,8.06,-5.67,5.51,-4.25,211.00,665.00,133.00,421.00,375.00,784.00,754.00,1052.00,,,,,,,,,,,,0,0,0,,-3356,15808,2408,-38,-297,-302
28.767,28.50,1.12,8.75,-9.12,16.03,-11.74,-1.32,1.36,-2.24,0.87,331.00,605.00,285.00,336.00,304.00,941.00,658.00,1246.00,,,,,,,,,,,,0,0,0,,-3284,15760,2568,-219,-223,-375
28.847,28.55,0.85,-4.22,0.35,-4.30,0.92,-4.30,9.37,-1.43,3.57,251.00,784.00,208.00,535.00,208.00,854.00,560.00,1122.00,,,,,,,,,,,,0,0,0,,-3244,15816,2436,-312,-29,-382
28.888,28.61,1.23,-5.65,7.39,-7.93,14.07,8.48,-5.82,5.90,-4.58,176.00,687.00,109.00,434.00,375.00,774.00,762.00,1045.00,,,,,,,,,,,,0,0,0,,-3156,15648,2644,-149,128,-372
28.929,28.66,1.23,8.03,-9.26,11.03,-8.85,1.14,-0.07,-0.82,0.09,338.00,625.00,267.00,379.00,314.00,887.00,669.00,1203.00,,,,,,,,,,,,0,0,0,,-3096,15748,2360,-48,-210,-725
28.99,28.72,1.09,-0.35,-2.23,0.68,-1.20,-1.46,5.31,-0.63,1.94,269.00,721.00,213.00,465.00,246.00,851.00,603.00,1136.00,,,,,,,,,,,,0,0,0,,-3380,15680,2152,39,-554,-882
29.072,28.77,1.17,-2.94,3.39,-2.68,5.57,2.55,0.05,2.03,-1.26,208.00,687.00,157.00,443.00,304.00,836.00,683.00,1114.00,,,,,,,,,,,,0,0,0,,-3588,15480,2360,-160,-669,-875
29.134,28.83,1.31,1.89,-2.35,1.32,0.60,4.10,-1.41,1.46,-0.49,260.00,662.00,191.00,432.00,320.00,818.00,662.00,1116.00,,,,,,,,,,,,0,0,0,,-3624,15408,2172,-780,-644,-866
29.175,28.88,1.23,3.12,-3.94,8.57,-5.90,-0.31,0.96,-1.10,0.40,277.00,658.00,238.00,386.00,305.00,914.00,661.00,1206.00,,,,,,,,,,,,0,0,0,,-3628,15612,2644,-1278,-880,-795
29.216,28.94,1.10,-2.23,-0.17,-1.82,0.08,-1.45,5.38,-0.21,1.02,249.00,735.00,208.00,496.00,245.00,849.00,629.00,1145.00,,,,,,,,,,,,0,0,0,,-3716,15600,3016,-1174,-766,-550
29.278,28.99,1.45,-2.45,2.62,-4.78,9.33,8.14,-5.70,5.04,-4.27,215.00,688.00,133.00,435.00,375.00,782.00,761.00,1072.00,,,,,,,,,,,,0,0,0,,-3592,15452,3212,-1445,-522,-680
29.34,29.05,1.32,8.00,-8.98,14.06,-10.35,-1.11,1.16,-2.14,0.44,333.00,621.00,274.00,350.00,306.00,938.00,672.00,1255.00,,,,,,,,,,,,0,0,0,,-3656,15204,3884,-2083,-197,-541
29.442,29.10,1.05,-4.27,-0.28,-4.61,1.02,-4.19,9.78,-2.12,3.81,260.00,799.00,208.00,540.00,203.00,841.00,560.00,1146.00,,,,,,,,,,,,0,0,0,,-3664,15180,3956,-1282,89,-66
29.462,29.16,1.43,-5.36,7.29,-7.43,13.07,8.81,-5.58,6.23,-5.15,176.00,681.00,114.00,437.00,368.00,759.00,781.00,1047.00,,,,,,,,,,,,0,0,0,,-3768,15036,4120,-1287,175,145
29.524,29.21,1.38,8.51,-9.91,11.68,-9.41,0.40,0.36,-0.51,-0.37,347.00,624.00,272.00,375.00,311.00,903.00,682.00,1203.00,,,,,,,,,,,,0,0,0,,-3760,15184,4112,-1334,2,103
29.544,29.27,1.23,-1.25,-1.37,1.98,-2.15,-1.59,5.81,-0.65,2.07,261.00,730.00,219.00,453.00,240.00,844.00,599.00,1133.00,,,,,,,,,,,,0,0,0,,-3752,15152,4320,-900,-169,147
29.606,29.32,1.32,-3.74,3.66,-2.85,5.39,2.92,0.24,2.35,-1.50,208.00,704.00,159.00,448.00,299.00,820.00,688.00,1107.00,,,,,,,,,,,,0,0,0,,-3588,15440,4588,-30,-27,-32
29.666,29.38,1.44,2.08,-3.25,0.71,1.49,3.85,-1.27,2.14,-1.46,272.00,673.00,184.00,432.00,319.00,823.00,689.00,1115.00,,,,,,,,,,,,0,0,0,,-3596,15636,4536,-3,199,-538
29.727,29.43,1.33,3.33,-5.42,7.94,-6.30,-0.87,1.33,-0.95,0.21,299.00,679.00,246.00,400.00,302.00,925.00,666.00,1205.00,,,,,,,,,,,,0,0,0,,-3648,15516,4612,341,858,-969
29.808,29.49,1.14,-2.43,-1.32,-3.79,0.66,-2.40,4.82,-0.11,1.13,266.00,764.00,209.00,528.00,257.00,895.00,624.00,1137.00,,,,,,,,,,,,0,0,0,,-3928,15116,3744,509,1096,-1422
29.828,29.54,1.43,-2.33,1.73,-5.43,8.21,6.90,-5.77,5.72,-4.71,225.00,701.00,143.00,460.00,385.00,823.00,770.00,1056.00,,,,,,,,,,,,0,0,0,,-4148,15028,3292,424,560,-1184
29.869,29.60,1.21,8.40,-10.35,13.93,-12.22,-2.93,1.12,-2.26,0.21,356.00,634.00,304.00,370.00,317.00,1009.00,682.00,1269.00,,,,,,,,,,,,0,0,0,,-4344,15368,3272,578,138,-670
29.932,29.65,0.81,-4.88,-0.98,-5.40,-1.05,-6.87,9.03,-2.28,3.34,273.00,834.00,236.00,589.00,222.00,954.00,576.00,1168.00,,,,,,,,,,,,0,0,0,,-4380,15312,2908,876,519,-737
29.992,29.71,1.09,-5.82,5.84,-8.89,11.43,6.39,-6.40,5.92,-5.60,192.00,721.00,128.00,484.00,402.00,854.00,805.00,1073.00,,,,,,,,,,,,0,0,0,,-4836,15008,2048,1101,424,-814
30.054,29.76,0.96,7.52,-10.71,9.31,-10.67,-1.46,-0.45,-0.77,-0.80,369.00,663.00,304.00,426.00,336.00,993.00,701.00,1229.00,,,,,,,,,,,,1,0,0,,-4780,14940,1612,1294,-390,144
30.157,29.82,0.74,-1.35,-2.96,0.83,-3.45,-3.41,4.05,-1.25,1.81,285.00,765.00,240.00,491.00,273.00,951.00,614.00,1168.00,,,,,,,,,,,,1,0,0,,-4428,15208,1852,1493,-1142,846
30.24,29.87,0.75,-3.62,2.75,-3.28,3.76,0.85,-0.72,2.26,-1.89,218.00,718.00,175.00,476.00,327.00,913.00,704.00,1123.00,,,,,,,,,,,,1,0,0,,-3984,15344,2552,1353,-1152,1014
30.261,29.93,0.82,1.70,-3.72,0.43,-0.68,2.30,-2.78,2.04,-2.00,281.00,692.00,208.00,463.00,356.00,911.00,711.00,1136.00,,,,,,,,,,,,1,0,0,,-3172,15892,2136,1543,-411,1214
30.281,29.98,0.68,2.22,-4.55,6.30,-6.48,-2.11,0.45,-1.32,0.12,291.00,693.00,256.00,429.00,324.00,995.00,674.00,1226.00,,,,,,,,,,,,1,0,0,,-2572,15856,2280,449,-35,623
30.321,30.04,0.51,-2.20,-1.81,-8.44,6.47,-2.71,3.41,-0.02,0.52,272.00,767.00,166.00,543.00,279.00,941.00,644.00,1152.00,,,,,,,,,,,,1,0,0,,-2676,15372,2776,-529,183,247
30.383,30.09,0.80,-2.20,1.45,-5.00,6.00,6.26,-6.07,5.14,-4.66,228.00,703.00,160.00,480.00,396.00,851.00,776.00,1079.00,,,,,,,,,,,,1,0,0,,-3120,15720,3748,-2004,675,599
30.424,30.15,0.66,7.65,-9.30,12.88,-11.87,-2.00,0.12,-1.97,-0.07,341.00,635.00,304.00,382.00,329.00,999.00,689.00,1264.00,,,,,,,,,,,,1,0,0,,-3436,15980,3944,-1746,666,165
30.526,30.20,0.32,-4.34,-0.95,-6.20,0.52,-6.03,9.51,-2.12,3.28,270.00,816.00,220.00,583.00,213.00,911.00,576.00,1162.00,,,,,,,,,,,,1,0,0,,-3580,15336,3852,-1083,356,123
30.546,30.26,0.70,-5.64,6.46,-8.49,11.29,7.84,-6.79,6.50,-5.82,185.00,704.00,128.00,478.00,400.00,815.00,806.00,1055.00,,,,,,,,,,,,1,0,0,,-3948,15704,3500,-840,134,225
30.607,30.31,0.67,7.53,-10.16,12.05,-11.04,0.07,-0.85,-0.58,-1.22,358.00,653.00,295.00,386.00,334.00,945.00,715.00,1234.00,,,,,,,,,,,,1,0,0,,-3752,15556,3272,-61,3,-31
30.647,30.37,0.51,-1.45,-2.13,-0.28,-3.31,-2.50,4.43,-0.59,1.29,273.00,751.00,243.00,511.00,263.00,908.00,624.00,1154.00,,,,,,,,,,,,1,0,0,,-3160,15064,3096,-247,183,141
30.708,30.42,0.58,-3.89,3.36,-4.07,3.92,2.02,-0.60,2.42,-2.13,212.00,714.00,176.00,489.00,318.00,869.00,711.00,1123.00,,,,,,,,,,,,1,0,0,,-2968,15492,3724,-643,125,-248
30.769,30.48,0.71,1.54,-3.27,-0.05,-0.60,3.14,-1.99,2.24,-1.96,275.00,688.00,209.00,471.00,336.00,863.00,707.00,1126.00,,,,,,,,,,,,1,0,0,,-3208,15272,3628,-260,202,-901
30.811,30.53,0.66,3.26,-5.15,6.15,-5.92,-0.36,0.49,-0.52,-0.45,295.00,676.00,249.00,425.00,313.00,927.00,685.00,1206.00,,,,,,,,,,,,1,0,0,,-3672,15332,3416,-19,-115,-1013
30.916,30.59,0.54,-2.22,-1.04,-3.75,-0.72,-1.67,3.87,0.25,0.11,261.00,752.00,225.00,547.00,267.00,892.00,655.00,1152.00,,,,,,,,,,,,1,0,0,,-3632,15328,2956,393,-252,-271
30.937,30.64,0.86,-1.50,1.70,-4.20,6.08,6.98,-5.84,5.11,-4.74,222.00,679.00,157.00,464.00,386.00,822.00,780.00,1083.00,,,,,,,,,,,,1,0,0,,-3572,15436,3496,-703,-74,-452
30.978,30.70,0.74,8.61,-9.51,13.49,-12.08,-1.52,0.48,-1.99,-0.01,339.00,615.00,304.00,375.00,320.00,971.00,687.00,1263.00,,,,,,,,,,,,1,0,0,,-3656,15888,3112,-525,469,-629
31.041,30.75,0.46,-4.14,-1.02,-5.02,-1.10,-5.00,8.73,-1.78,2.76,270.00,811.00,235.00,581.00,218.00,893.00,589.00,1163.00,,,,,,,,,,,,1,0,0,,-3488,15600,2632,-82,-20,-612
31.083,30.81,0.80,-5.45,6.40,-8.23,10.92,7.31,-6.15,5.79,-5.58,185.00,700.00,130.00,478.00,390.00,818.00,806.00,1078.00,,,,,,,,,,,,1,0,0,,-3504,15560,2504,802,-184,358
31.146,30.86,0.77,7.61,-9.82,9.54,-10.75,0.32,-1.53,-0.64,-1.23,351.00,645.00,304.00,423.00,345.00,953.00,716.00,1237.00,,,,,,,,,,,,1,0,0,,-3280,15956,1448,1576,166,223
31.209,30.92,0.61,-1.59,-1.11,-0.91,-2.08,-2.58,4.18,-0.93,1.35,259.00,735.00,230.00,507.00,267.00,917.00,626.00,1168.00,,,,,,,,,,,,1,0,0,,-3268,15224,1696,838,289,-163
31.272,30.97,0.67,-2.53,2.73,-3.66,3.79,1.93,-0.86,2.68,-2.45,214.00,688.00,176.00,483.00,323.00,878.00,720.00,1121.00,,,,,,,,,,,,1,0,0,,-3596,15840,3352,-827,13,-557
31.293,31.03,0.83,2.61,-3.36,1.07,-0.89,3.82,-2.44,-0.02,1.13,271.00,661.00,208.00,454.00,340.00,850.00,623.00,1133.00,,,,,,,,,,,,1,0,0,,-3592,15088,4300,-50,3,-442
31.356,31.08,0.78,3.33,-4.14,8.02,-6.70,-0.21,0.45,-0.37,-0.20,279.00,656.00,251.00,403.00,313.00,923.00,674.00,1191.00,,,,,,,,,,,,1,0,0,,-3480,14600,4628,-329,-65,-148
31.46,31.14,0.70,-1.36,-1.40,-2.96,-0.57,-0.73,3.28,0.39,0.52,262.00,734.00,220.00,528.00,271.00,873.00,639.00,1133.00,,,,,,,,,,,,1,0,0,,-3520,14064,4612,-968,118,-321
31.481,31.19,1.04,-1.88,2.60,-4.67,7.83,7.40,-5.40,5.17,-4.36,213.00,673.00,144.00,451.00,374.00,799.00,763.00,1069.00,,,,,,,,,,,,1,0,0,,-3832,14660,4408,-1077,167,-205
31.523,31.25,0.93,9.29,-9.41,14.14,-11.93,-1.16,1.00,-1.26,-0.29,333.00,597.00,298.00,364.00,309.00,944.00,688.00,1236.00,,,,,,,,,,,,1,0,0,,-3728,15612,4180,-193,203,-48
31.586,31.30,0.66,-3.38,-0.93,-4.87,-0.34,-4.41,8.54,-1.63,3.06,265.00,785.00,225.00,566.00,218.00,877.00,578.00,1147.00,,,,,,,,,,,,1,0,0,,-3800,15452,4276,-1451,50,-788
31.649,31.36,1.04,-4.99,6.85,-7.03,10.66,8.32,-6.01,6.35,-5.61,179.00,679.00,129.00,459.00,380.00,783.00,799.00,1055.00,,,,,,,,,,,,1,0,0,,-3824,15184,5016,-1273,402,-570
31.69,31.41,1.03,8.60,-10.47,9.69,-9.80,0.86,-0.61,-0.35,-1.02,357.00,631.00,288.00,410.00,325.00,910.00,704.00,1216.00,,,,,,,,,,,,1,0,0,,-3868,15928,4708,259,963,-405
31.754,31.47,0.92,-0.52,-2.24,1.30,-3.61,-1.20,4.49,-0.24,1.29,270.00,726.00,240.00,484.00,256.00,861.00,620.00,1138.00,,,,,,,,,,,,1,0,0,,-4084,14836,4856,292,1153,-79
31.817,31.52,1.01,-2.65,3.29,-2.88,3.73,2.75,-0.01,3.20,-2.34,208.00,681.00,174.00,469.00,304.00,831.00,709.00,1095.00,,,,,,,,,,,,1,0,0,,-3988,15344,3836,263,1477,395
31.859,31.58,1.18,3.12,-3.60,0.73,-0.05,4.30,-1.94,2.45,-1.88,272.00,652.00,200.00,450.00,328.00,823.00,701.00,1114.00,,,,,,,,,,,,1,0,0,,-3616,15248,2708,209,960,393
31.92,31.63,1.12,3.73,-4.21,7.66,-5.98,-0.06,1.12,0.01,-0.33,278.00,647.00,243.00,401.00,301.00,901.00,674.00,1177.00,,,,,,,,,,,,1,0,0,,-3752,15488,2044,535,338,351
32.001,31.69,1.01,-1.22,-0.58,-1.82,-1.04,-1.03,3.72,0.80,0.18,250.00,714.00,221.00,511.00,266.00,873.00,646.00,1125.00,,,,,,,,,,,,1,0,0,,-3600,15884,2440,471,159,409
32.022,31.74,1.33,-0.74,2.21,-4.76,9.05,7.48,-5.48,5.84,-4.78,213.00,650.00,135.00,438.00,375.00,798.00,771.00,1053.00,,,,,,,,,,,,1,0,0,,-3348,16220,2040,1312,33,328
32.083,31.80,1.20,10.24,-9.68,15.32,-12.63,-1.23,0.91,-1.35,-0.12,332.00,579.00,303.00,354.00,311.00,949.00,683.00,1235.00,,,,,,,,,,,,1,0,0,,-3452,15888,2028,438,-101,-532
32.145,31.85,0.91,-3.77,-0.02,-4.45,-0.57,-4.71,8.98,-1.69,3.14,254.00,778.00,226.00,560.00,214.00,877.00,576.00,1147.00,,,,,,,,,,,,1,0,0,,-3724,15872,2252,454,6,-365
32.206,31.91,1.28,-5.48,8.52,-7.47,11.38,8.40,-6.61,6.69,-5.60,165.00,662.00,125.00,458.00,392.00,793.00,794.00,1041.00,,,,,,,,,,,,1,0,0,,-3612,15356,2416,245,-88,-147
32.247,31.96,1.26,8.48,-9.63,10.36,-9.96,0.83,-0.77,-0.32,-1.00,342.00,620.00,287.00,401.00,328.00,915.00,703.00,1214.00,,,,,,,,,,,,1,0,0,,-3628,15688,2548,-346,-64,-532
32.308,32.02,1.09,-0.43,-2.07,1.78,-3.23,-2.09,4.36,-0.43,1.12,267.00,720.00,233.00,470.00,262.00,895.00,628.00,1152.00,,,,,,,,,,,,1,0,0,,-4104,15532,2696,-607,0,-1063
32.369,32.07,1.17,-1.43,3.06,-2.09,3.36,2.52,-0.65,2.57,-2.28,206.00,653.00,175.00,459.00,316.00,853.00,715.00,1121.00,,,,,,,,,,,,1,0,0,,-3688,15360,2492,-131,-435,14
32.41,32.13,1.33,3.73,-3.81,1.33,0.50,4.38,-2.46,2.46,-1.96,272.00,640.00,192.00,433.00,337.00,832.00,704.00,1116.00,,,,,,,,,,,,1,0,0,,-3528,15408,3084,-467,-832,-374
32.472,32.18,1.26,4.33,-4.35,8.84,-6.30,0.03,0.78,0.30,-0.54,277.00,634.00,242.00,386.00,306.00,906.00,678.00,1170.00,,,,,,,,,,,,1,0,0,,-3460,15156,4440,-872,576,-521
32.514,32.24,1.16,-0.74,-0.82,-1.17,-1.26,-0.75,4.27,1.08,0.20,251.00,705.00,221.00,501.00,257.00,851.00,642.00,1112.00,,,,,,,,,,,,1,0,0,,-3376,15776,3856,-714,1005,-1257
32.573,32.29,1.57,-0.67,2.45,-2.70,6.79,9.42,-6.47,6.38,-5.22,210.00,644.00,147.00,429.00,382.00,759.00,782.00,1043.00,,,,,,,,,,,,1,0,0,,-3656,15344,3132,-496,189,-1396
32.635,32.35,1.46,10.35,-9.77,16.59,-12.57,-0.72,0.80,-1.15,-0.32,333.00,578.00,295.00,336.00,310.00,933.00,688.00,1232.00,,,,,,,,,,,,1,0,0,,-4664,14652,3732,-1854,-493,-1047
32.797,32.40,1.19,-2.34,-1.70,-4.17,-0.99,-3.99,9.17,-1.12,2.79,271.00,769.00,230.00,560.00,209.00,848.00,581.00,1132.00,,,,,,,,,,,,1,0,0,,-4888,15616,4268,-1212,-283,-743
32.817,32.46,1.58,-3.75,6.03,-7.35,11.94,9.07,-7.07,6.79,-5.62,183.00,661.00,121.00,449.00,397.00,782.00,793.00,1037.00,,,,,,,,,,,,1,0,0,,-4768,13592,3644,-698,403,-103
32.837,32.51,1.54,9.48,-10.50,11.49,-10.60,0.72,-0.28,-0.03,-0.99,352.00,610.00,291.00,390.00,320.00,907.00,699.00,1200.00,,,,,,,,,,,,1,0,0,,-4956,14028,3696,-308,-449,616
32.858,32.57,1.38,-0.26,-2.46,0.87,-2.44,-1.60,4.48,-0.54,1.22,272.00,723.00,227.00,477.00,258.00,875.00,626.00,1154.00,,,,,,,,,,,,1,0,0,,-4472,15196,4872,-481,-179,1079
32.919,32.62,1.45,-1.31,1.64,-2.66,3.24,2.77,-0.62,2.61,-2.45,222.00,675.00,178.00,471.00,314.00,844.00,721.00,1124.00,,,,,,,,,,,,1,0,0,,-3940,15404,4608,-1461,-71,737
32.98,32.68,1.60,3.02,-3.57,1.58,-0.97,4.46,-2.27,2.19,-2.28,272.00,654.00,207.00,446.00,333.00,825.00,720.00,1138.00,,,,,,,,,,,,1,0,0,,-3716,15524,4800,-250,-255,679
33.0,32.73,1.54,4.69,-4.99,8.62,-7.76,0.33,0.62,-0.13,-0.69,285.00,636.00,263.00,405.00,307.00,899.00,689.00,1195.00,,,,,,,,,,,,1,0,0,,-3172,15296,4200,988,-115,902
33.103,32.79,1.43,-0.56,-1.02,-2.49,-0.05,-0.57,4.14,1.10,-0.09,253.00,704.00,212.00,511.00,258.00,848.00,652.00,1120.00,,,,,,,,,,,,1,0,0,,-3056,15788,3140,569,347,232
33.123,32.84,1.80,-0.26,2.67,-3.90,6.94,8.91,-6.35,6.45,-5.22,206.00,630.00,149.00,448.00,383.00,772.00,781.00,1040.00,,,,,,,,,,,,1,0,0,,-2900,15480,3056,315,245,109
33.166,32.90,1.66,11.29,-9.92,16.37,-12.68,-1.02,1.07,-1.15,-0.32,330.00,559.00,298.00,340.00,307.00,937.00,688.00,1232.00,,,,,,,,,,,,1,0,0,,-2996,15812,3672,311,241,387
33.227,32.95,1.41,-2.14,-0.85,-4.25,-0.05,-3.50,8.15,-1.49,3.36,258.00,746.00,219.00,548.00,219.00,855.00,567.00,1131.00,,,,,,,,,,,,1,0,0,,-2792,15732,3776,368,772,97
33.288,33.01,1.76,-3.60,7.12,-6.67,11.12,8.48,-6.01,6.69,-5.54,172.00,638.00,125.00,447.00,379.00,778.00,791.00,1039.00,,,,,,,,,,,,1,0,0,,-3396,15272,4144,-1278,600,-284
33.37,33.06,1.76,9.29,-9.41,11.15,-9.90,1.82,-0.65,0.47,-1.29,333.00,597.00,282.00,388.00,320.00,877.00,704.00,1186.00,,,,,,,,,,,,1,0,0,,-3764,14992,5640,-631,227,330
33.39,33.12,1.62,1.41,-3.03,1.63,-2.45,-1.08,4.45,-0.05,1.08,272.00,687.00,224.00,463.00,256.00,858.00,625.00,1136.00,,,,,,,,,,,,1,0,0,,-3748,14908,5276,246,791,-209
33.472,33.17,1.67,-1.31,2.93,-1.65,2.80,2.59,0.04,2.51,-2.00,207.00,652.00,179.00,458.00,304.00,835.00,705.00,1115.00,,,,,,,,,,,,1,0,0,,-3476,15772,3820,452,1288,-307
33.494,33.23,1.81,3.89,-3.10,1.08,0.02,4.56,-2.41,2.67,-2.37,261.00,624.00,198.00,443.00,335.00,825.00,717.00,1119.00,,,,,,,,,,,,1,0,0,,-3596,15908,2616,570,869,-589
33.554,33.28,1.68,4.62,-4.17,8.21,-6.98,-0.88,0.67,-0.72,-0.65,273.00,624.00,254.00,403.00,313.00,942.00,695.00,1222.00,,,,,,,,,,,,1,0,0,,-3664,15272,2380,268,-72,-808
33.616,33.34,1.53,-0.67,-0.54,-3.16,0.01,-1.32,3.68,0.33,0.06,247.00,698.00,214.00,524.00,268.00,884.00,656.00,1150.00,,,,,,,,,,,,1,0,0,,-3696,14424,2424,-189,-285,-432
33.679,33.39,1.87,-0.54,2.50,-4.68,8.09,8.28,-6.80,5.54,-5.24,209.00,640.00,142.00,448.00,397.00,801.00,795.00,1079.00,,,,,,,,,,,,1,0,0,,-3928,14576,3536,-537,-308,-296
33.739,33.45,1.70,10.39,-9.89,16.01,-12.80,-1.43,0.50,-1.64,-0.58,335.00,579.00,302.00,346.00,319.00,967.00,704.00,1265.00,,,,,,,,,,,,1,0,0,,-3588,15468,3584,195,-333,-439
33.8,33.50,1.42,-2.66,-0.39,-4.68,0.18,-3.89,8.02,-1.21,2.69,254.00,752.00,218.00,554.00,222.00,871.00,585.00,1139.00,,,,,,,,,,,,1,0,0,,-3680,15292,3912,-529,-728,-464
33.84,33.56,1.76,-4.82,8.98,-6.95,11.36,8.11,-6.23,6.02,-5.54,159.00,637.00,124.00,449.00,386.00,794.00,801.00,1067.00,,,,,,,,,,,,1,0,0,,-3884,15716,3836,-763,-250,-275
33.904,33.61,1.73,10.04,-9.83,11.55,-10.10,1.29,-1.37,0.22,-1.36,336.00,586.00,283.00,384.00,336.00,913.00,710.00,1200.00,,,,,,,,,,,,1,0,0,,-3632,15280,3832,-358,-465,-90
33.966,33.67,1.56,0.79,-2.05,1.57,-3.00,-1.65,4.21,-0.11,0.84,261.00,686.00,231.00,471.00,262.00,883.00,634.00,1146.00,,,,,,,,,,,,1,0,0,,-3448,15580,4212,430,-932,-349
34.028,33.72,1.59,-0.72,2.65,-1.89,2.67,2.06,-0.32,2.16,-2.27,208.00,642.00,181.00,464.00,313.00,861.00,720.00,1139.00,,,,,,,,,,,,1,0,0,,-3232,15484,4952,895,-77,-867
34.048,33.78,1.73,4.08,-3.44,1.27,0.33,4.50,-3.31,2.57,-2.62,265.00,625.00,194.00,436.00,352.00,847.00,728.00,1131.00,,,,,,,,,,,,1,0,0,,-3872,15904,3896,959,373,-2090
34.11,33.83,1.59,4.47,-4.72,10.07,-8.11,-1.21,0.49,-1.00,-0.43,282.00,637.00,261.00,386.00,318.00,959.00,690.00,1228.00,,,,,,,,,,,,1,0,0,,-4092,14176,3804,658,-272,-1277
34.214,33.89,1.43,-0.95,-0.30,-1.17,-2.00,-1.59,3.50,0.26,0.20,245.00,701.00,230.00,511.00,272.00,898.00,652.00,1149.00,,,,,,,,,,,,1,0,0,,-4340,15352,3792,-124,-677,70
34.235,33.94,1.78,-0.16,2.45,-3.42,6.66,8.40,-7.26,5.64,-5.39,208.00,631.00,150.00,443.00,406.00,807.00,800.00,1079.00,,,,,,,,,,,,1,0,0,,-4328,15464,3868,194,-301,-185
34.277,34.00,1.58,10.61,-9.63,15.78,-12.79,-2.15,0.34,-2.46,-0.01,329.00,570.00,303.00,349.00,326.00,999.00,693.00,1287.00,,,,,,,,,,,,1,0,0,,-4040,14800,3348,396,358,-27
34.338,34.05,1.30,-2.56,-0.79,-4.13,-1.24,-4.12,6.89,-1.70,2.48,259.00,757.00,233.00,563.00,237.00,906.00,597.00,1168.00,,,,,,,,,,,,1,0,0,,-3480,15260,3156,-29,270,592
34.399,34.11,1.56,-4.70,7.71,-7.77,11.34,6.53,-6.31,5.21,-5.61,170.00,656.00,126.00,464.00,399.00,847.00,816.00,1104.00,,,,,,,,,,,,1,0,0,,-3516,15468,3364,506,-114,156
34.441,34.16,1.51,8.04,-9.16,10.13,-9.63,0.59,-1.78,-0.78,-1.26,336.00,623.00,283.00,401.00,348.00,949.00,719.00,1245.00,,,,,,,,,,,,1,0,0,,-3676,15320,3544,213,33,80
34.502,34.22,1.32,-0.76,-0.37,1.64,-3.65,-2.28,3.73,-0.75,0.79,245.00,697.00,239.00,478.00,272.00,917.00,643.00,1177.00,,,,,,,,,,,,1,0,0,,-3816,15148,3552,46,-87,368
34.584,34.27,1.30,-0.49,2.30,-3.05,3.27,1.01,-0.08,1.62,-2.09,211.00,642.00,179.00,478.00,315.00,892.00,720.00,1158.00,,,,,,,,,,,,1,0,0,,-3792,14944,4184,-467,272,930
34.604,34.33,1.45,4.28,-3.37,2.32,-1.13,4.12,-3.18,2.36,-2.47,263.00,619.00,206.00,435.00,352.00,857.00,725.00,1136.00,,,,,,,,,,,,1,0,0,,-3432,16196,3520,45,816,905
34.664,34.38,1.32,5.13,-4.75,9.29,-7.35,-0.98,0.06,-0.87,-0.71,279.00,621.00,254.00,390.00,324.00,961.00,699.00,1231.00,,,,,,,,,,,,1,0,0,,-3164,15772,2980,569,-130,-321
34.725,34.44,1.17,0.20,-1.36,-1.82,-1.04,-1.82,3.72,0.29,0.16,254.00,689.00,221.00,511.00,270.00,901.00,653.00,1149.00,,,,,,,,,,,,1,0,0,,-3296,15588,3176,951,-416,-649
34.786,34.49,1.49,-0.10,2.44,-4.56,7.66,7.59,-6.62,5.78,-5.39,208.00,630.00,145.00,451.00,398.00,819.00,798.00,1073.00,,,,,,,,,,,,1,0,0,,-3568,15404,3384,1006,311,-702
34.848,34.55,1.33,10.79,-9.24,16.64,-13.08,-1.68,-0.75,-2.52,-0.05,321.00,560.00,303.00,340.00,343.00,1010.00,695.00,1291.00,,,,,,,,,,,,1,0,0,,-3756,15168,2896,195,806,-441
34.868,34.60,1.04,-2.66,-0.25,-4.11,-0.60,-4.40,7.07,-1.73,2.65,252.00,749.00,225.00,553.00,236.00,912.00,592.00,1164.00,,,,,,,,,,,,1,0,0,,-3820,15180,3120,-501,483,232
34.952,34.66,1.32,-3.99,7.58,-6.87,10.75,6.50,-6.29,5.17,-5.35,169.00,640.00,128.00,455.00,399.00,848.00,805.00,1098.00,,,,,,,,,,,,1,0,0,,-3544,15884,3464,-657,773,590
34.993,34.71,1.27,9.97,-9.53,13.97,-15.10,0.46,-2.05,-0.89,-1.07,331.00,583.00,355.00,399.00,354.00,961.00,713.00,1244.00,,,,,,,,,,,,1,0,0,,-3472,15604,3096,-121,477,-180
35.056,34.77,1.06,0.49,-1.88,1.09,-3.07,-2.99,3.70,-1.27,1.00,260.00,691.00,234.00,481.00,276.00,944.00,642.00,1195.00,,,,,,,,,,,,1,0,0,,-3500,15632,2832,-291,252,-694
35.117,34.82,1.02,-1.15,2.52,-1.65,1.99,0.35,0.02,0.90,-1.51,211.00,655.00,187.00,468.00,317.00,913.00,707.00,1173.00,,,,,,,,,,,,1,0,0,,-3840,15052,3172,-140,-68,-806
35.178,34.88,1.14,2.82,-2.81,0.10,1.20,3.33,-3.18,1.61,-2.49,262.00,646.00,189.00,446.00,357.00,884.00,736.00,1171.00,,,,,,,,,,,,1,0,0,,-3760,15504,3584,169,291,194
35.239,34.93,0.99,5.36,-5.09,9.21,-8.17,-1.80,0.17,-1.59,-0.57,283.00,621.00,266.00,400.00,327.00,990.00,703.00,1262.00,,,,,,,,,,,,1,0,0,,-3680,15892,3296,-180,376,-360
35.34,34.99,0.84,-0.80,-0.20,-1.74,-1.15,-2.10,3.67,0.23,-0.02,243.00,695.00,222.00,511.00,272.00,912.00,660.00,1157.00,,,,,,,,,,,,1,0,0,,-3608,15560,2996,-205,78,-824
35.361,35.04,1.16,0.36,2.10,-4.89,8.83,7.28,-6.60,5.67,-5.54,210.00,624.00,137.00,443.00,400.00,829.00,806.00,1082.00,,,,,,,,,,,,1,0,0,,-3980,14988,3240,340,-370,-643
35.381,35.10,0.98,11.05,-9.55,17.97,-13.58,-2.48,-0.05,-2.67,0.03,325.00,559.00,304.00,327.00,335.00,1023.00,694.00,1296.00,,,,,,,,,,,,1,0,0,,-4116,15260,3504,-208,-58,-298
35.422,35.15,0.68,-2.13,-0.57,-4.00,-0.96,-4.94,7.17,-1.75,2.72,254.00,740.00,229.00,556.00,237.00,929.00,590.00,1163.00,,,,,,,,,,,,1,0,0,,-4196,15648,3956,-127,1283,-238
35.483,35.21,0.94,-3.74,6.64,-7.54,11.41,5.83,-5.89,5.13,-5.22,177.00,650.00,125.00,459.00,395.00,861.00,800.00,1096.00,,,,,,,,,,,,1,0,0,,-4100,15296,3248,-5,1757,-659
35.544,35.26,0.90,9.44,-9.13,10.86,-9.48,0.24,-1.61,-0.46,-1.37,327.00,589.00,277.00,388.00,347.00,958.00,719.00,1233.00,,,,,,,,,,,,1,0,0,,-3820,15248,2792,-64,1799,-89
35.605,35.32,0.73,0.53,-2.11,2.26,-3.78,-2.69,3.53,-1.13,1.04,263.00,694.00,238.00,468.00,277.00,937.00,639.00,1187.00,,,,,,,,,,,,1,0,0,,-3952,15512,2736,-776,919,-244
35.688,35.37,0.71,0.04,1.35,-1.14,1.72,0.33,-0.03,1.05,-1.38,220.00,645.00,188.00,462.00,318.00,915.00,700.00,1162.00,,,,,,,,,,,,1,0,0,,-4128,14960,3064,-770,301,56
35.71,35.43,0.83,4.21,-3.62,0.86,0.85,3.14,-2.85,1.86,-2.35,267.00,625.00,190.00,437.00,352.00,883.00,727.00,1155.00,,,,,,,,,,,,1,0,0,,-4048,15416,3460,-802,630,724
35.751,35.48,0.70,4.81,-4.57,8.10,-6.73,-1.67,-0.21,-2.93,-0.12,278.00,626.00,251.00,402.00,333.00,995.00,703.00,1315.00,,,,,,,,,,,,1,0,0,,-3564,16272,3380,206,624,-110
35.813,35.54,0.54,-0.74,-0.82,-3.35,0.07,-2.50,3.54,-0.92,0.79,251.00,705.00,214.00,527.00,276.00,930.00,645.00,1185.00,,,,,,,,,,,,1,0,0,,-3472,16500,3896,1328,913,-1422
35.875,35.59,0.86,-0.90,2.79,-4.60,7.81,6.94,-6.90,5.18,-5.40,207.00,644.00,144.00,450.00,409.00,847.00,807.00,1099.00,,,,,,,,,,,,1,0,0,,-3772,15528,1816,2773,1036,-2342
35.936,35.65,0.66,11.94,-10.47,16.12,-12.96,-3.08,-0.17,-2.72,0.05,336.00,553.00,304.00,346.00,341.00,1051.00,694.00,1298.00,,,,,,,,,,,,1,0,0,,-5148,14144,1352,2016,99,-1382
35.978,35.70,0.36,-2.61,-0.26,-4.36,-0.10,-5.36,7.08,-1.89,3.11,252.00,748.00,220.00,551.00,240.00,947.00,579.00,1157.00,,,,,,,,,,,,1,0,0,,-5240,15276,2392,-1158,324,-454
36.04,35.76,0.62,-3.58,7.33,-6.47,10.90,5.40,-6.07,5.30,-5.30,170.00,634.00,126.00,446.00,402.00,880.00,801.00,1091.00,,,,,,,,,,,,1,0,0,,-5232,14808,3276,-2246,1117,-468
36.1,35.81,0.58,9.61,-8.61,10.79,-8.98,-0.18,-1.42,-0.14,-1.16,317.00,577.00,270.00,384.00,346.00,969.00,707.00,1211.00,,,,,,,,,,,,1,0,0,,-5192,14456,3120,-1188,1146,-472
36.161,35.87,0.39,1.10,-2.30,2.41,-3.52,-3.06,3.53,-0.72,1.13,263.00,682.00,234.00,462.00,279.00,951.00,631.00,1165.00,,,,,,,,,,,,1,0,0,,-4980,14664,2592,-1862,891,25
36.221,35.92,0.37,-0.31,0.89,-0.22,1.02,-0.11,-0.11,1.48,-1.89,227.00,662.00,192.00,454.00,322.00,933.00,714.00,1158.00,,,,,,,,,,,,1,0,0,,-4632,15188,2872,-1902,-193,690
36.263,35.98,0.52,3.37,-4.02,1.05,1.08,3.37,-3.70,1.60,-2.42,277.00,653.00,187.00,431.00,367.00,895.00,733.00,1169.00,,,,,,,,,,,,1,0,0,,-4068,15712,4064,-1049,116,903
36.304,36.03,0.40,4.56,-5.96,8.59,-7.54,-1.88,-0.30,-1.77,-0.30,301.00,656.00,260.00,403.00,336.00,1006.00,695.00,1262.00,,,,,,,,,,,,1,0,0,,-2876,15960,3820,-1376,685,1054
36.405,36.09,0.28,-0.79,-1.52,-2.89,-0.68,-1.96,2.70,-0.70,0.77,261.00,720.00,221.00,528.00,286.00,931.00,643.00,1175.00,,,,,,,,,,,,1,0,0,,-2620,15904,2956,441,-544,485
36.426,36.14,0.59,-0.52,2.58,-5.29,8.82,6.48,-6.79,5.10,-5.42,208.00,638.00,138.00,450.00,410.00,860.00,809.00,1103.00,,,,,,,,,,,,1,0,0,,-3488,15132,2580,715,-1525,-60
36.467,36.20,0.38,12.14,-10.15,16.08,-13.01,-3.60,0.27,-3.14,-0.18,329.00,544.00,305.00,347.00,336.00,1060.00,708.00,1328.00,,,,,,,,,,,,1,0,0,,-4620,14852,3964,680,-2464,424
36.549,36.25,0.09,-2.24,-0.32,-4.18,-0.90,-5.50,6.90,-2.15,2.73,251.00,738.00,229.00,559.00,243.00,957.00,594.00,1181.00,,,,,,,,,,,,1,0,0,,-4852,15948,3688,1333,178,-16
36.591,36.31,0.36,-2.58,7.10,-6.44,10.60,5.49,-6.23,4.92,-5.08,169.00,613.00,128.00,449.00,405.00,881.00,797.00,1101.00,,,,,,,,,,,,1,0,0,,-4356,15156,2224,602,-842,321
36.63,36.36,0.36,10.17,-8.33,11.42,-9.33,0.36,-2.33,-0.54,-1.00,309.00,560.00,272.00,378.00,360.00,972.00,706.00,1225.00,,,,,,,,,,,,1,0,0,,-4364,15332,3352,621,-882,247
36.712,36.42,0.20,0.98,-1.40,2.13,-3.42,-2.87,3.53,-0.63,0.90,251.00,669.00,234.00,466.00,278.00,944.00,638.00,1168.00,,,,,,,,,,,,1,0,0,,-4056,15620,4188,-234,598,198
36.795,36.47,0.18,-0.16,2.10,2.34,-0.03,-0.09,0.35,1.21,-1.33,212.00,637.00,194.00,422.00,314.00,921.00,696.00,1153.00,,,,,,,,,,,,1,0,0,,-3820,15696,3340,-494,1099,-584
36.816,36.53,0.32,4.01,-2.12,1.20,0.26,2.94,-3.09,2.49,-2.67,247.00,605.00,195.00,438.00,358.00,896.00,731.00,1136.00,,,,,,,,,,,,1,0,0,,-4020,15192,3060,154,925,-425
36.857,36.58,0.20,5.81,-4.77,9.92,-8.75,-2.03,-0.20,-1.60,-0.44,276.00,605.00,271.00,395.00,335.00,1009.00,698.00,1258.00,,,,,,,,,,,,1,0,0,,-4056,15444,2452,582,719,-328
36.917,36.64,-0.01,0.68,-0.62,-2.70,-0.74,-4.07,4.75,-0.45,0.63,242.00,663.00,221.00,525.00,266.00,958.00,645.00,1168.00,,,,,,,,,,,,1,0,0,,-4272,15532,1884,705,207,-643
36.978,36.69,0.30,0.30,3.78,-3.90,7.70,6.19,-7.09,5.57,-5.53,192.00,598.00,143.00,439.00,419.00,877.00,807.00,1086.00,,,,,,,,,,,,1,0,0,,-4408,15240,2336,233,-249,-352
37.019,36.75,0.09,13.84,-10.32,16.28,-13.20,-3.83,-0.35,-3.24,-0.17,322.00,511.00,307.00,346.00,349.00,1088.00,709.00,1333.00,,,,,,,,,,,,1,0,0,,-4280,15836,2628,853,-337,-353
37.08,36.80,-0.24,-1.62,-0.30,-4.46,-0.89,-6.55,7.48,-2.42,2.70,248.00,720.00,230.00,565.00,240.00,982.00,598.00,1195.00,,,,,,,,,,,,1,0,0,,-4220,15156,2252,1198,-486,-448
37.163,36.86,-0.02,-3.31,8.24,-6.10,8.97,4.15,-6.32,4.20,-5.25,161.00,612.00,139.00,463.00,417.00,931.00,815.00,1138.00,,,,,,,,,,,,1,0,0,,-4504,15040,2656,-17,-789,-185
37.204,36.91,-0.11,10.68,-9.14,10.06,-8.87,-1.75,-0.84,-1.54,-0.64,320.00,561.00,272.00,394.00,345.00,1015.00,705.00,1262.00,,,,,,,,,,,,1,0,0,,-3996,14832,3092,-81,-321,707
37.267,36.97,-0.21,1.49,-1.42,0.31,-1.84,-2.26,1.92,-1.03,0.83,249.00,656.00,222.00,480.00,300.00,962.00,645.00,1189.00,,,,,,,,,,,,1,0,0,,-3988,16044,2752,-90,-100,526
37.327,37.02,-0.24,0.95,1.91,0.11,1.10,-0.65,0.13,1.51,-1.64,210.00,613.00,190.00,447.00,321.00,947.00,704.00,1149.00,,,,,,,,,,,,1,0,0,,-3112,15180,2584,458,336,524
37.348,37.08,-0.10,4.42,-1.73,1.55,0.42,2.54,-2.81,2.51,-2.37,240.00,589.00,192.00,430.00,355.00,903.00,719.00,1126.00,,,,,,,,,,,,1,0,0,,-4164,15524,2560,-455,-394,-52
37.41,37.13,-0.19,6.78,-4.83,10.31,-7.98,-1.92,-0.18,-1.08,-0.43,272.00,583.00,258.00,381.00,334.00,1004.00,691.00,1232.00,,,,,,,,,,,,1,0,0,,-3748,15572,3616,21,-876,541
37.494,37.19,-0.34,0.78,0.20,-1.69,-0.49,-3.15,4.37,-0.33,1.00,231.00,646.00,214.00,501.00,267.00,933.00,631.00,1151.00,,,,,,,,,,,,1,0,0,,-3620,16092,3324,-95,-156,340
37.514,37.24,0.03,0.37,4.24,-4.45,9.36,6.98,-7.00,5.55,-5.06,187.00,589.00,132.00,429.00,411.00,848.00,787.00,1073.00,,,,,,,,,,,,1,0,0,,-2804,15416,2372,-306,351,105
37.576,37.30,-0.14,13.49,-9.44,17.57,-13.45,-3.34,-0.14,-2.87,0.02,309.00,506.00,304.00,331.00,342.00,1061.00,697.00,1307.00,,,,,,,,,,,,1,0,0,,-3208,15648,2164,-852,361,-352
37.636,37.35,-0.39,-1.09,0.13,-3.50,-0.47,-5.26,6.97,-1.90,2.70,240.00,697.00,221.00,538.00,241.00,946.00,592.00,1170.00,,,,,,,,,,,,1,0,0,,-3588,15436,2864,-383,-150,-469
37.697,37.41,-0.13,-3.60,9.28,-6.05,11.20,4.85,-5.88,4.93,-5.27,153.00,602.00,123.00,435.00,402.00,895.00,805.00,1106.00,,,,,,,,,,,,1,0,0,,-3676,15536,3212,91,-65,-110
37.74,37.46,-0.18,10.91,-8.28,11.25,-8.58,-0.99,-0.98,-0.99,-0.78,304.00,543.00,262.00,373.00,343.00,989.00,703.00,1239.00,,,,,,,,,,,,1,0,0,,-3688,15844,2796,302,104,-514
37.799,37.52,-0.32,1.73,-0.98,1.56,-2.26,-3.11,2.64,-1.51,1.16,242.00,642.00,222.00,462.00,293.00,976.00,639.00,1201.00,,,,,,,,,,,,1,0,0,,-3864,15184,3092,-69,-1,-629
37.925,37.57,-0.33,1.22,1.99,0.24,0.58,-0.48,-0.05,0.97,-1.62,208.00,605.00,195.00,451.00,323.00,945.00,710.00,1173.00,,,,,,,,,,,,1,0,0,,-3936,15324,2824,-405,-158,-166
37.944,37.63,-0.15,4.53,-1.37,2.81,-0.19,3.33,-3.89,2.85,-2.74,235.00,581.00,194.00,416.00,371.00,901.00,729.00,1122.00,,,,,,,,,,,,1,0,0,,-3588,15464,3136,-325,-435,331
37.986,37.68,-0.25,8.16,-5.36,11.97,-9.03,-2.15,0.34,-1.17,-0.29,273.00,560.00,265.00,367.00,326.00,999.00,687.00,1232.00,,,,,,,,,,,,1,0,0,,-3488,15820,3132,33,-19,71
38.007,37.74,-0.40,0.82,0.43,-1.69,0.04,-3.33,5.21,0.04,1.08,228.00,641.00,208.00,494.00,256.00,919.00,624.00,1132.00,,,,,,,,,,,,1,0,0,,-3528,15472,3024,-4,119,-489
38.07,37.79,-0.01,0.30,5.18,-4.09,9.81,7.36,-6.86,6.49,-5.35,178.00,576.00,128.00,418.00,405.00,832.00,786.00,1042.00,,,,,,,,,,,,1,0,0,,-3824,15344,2920,-95,418,-212
38.133,37.85,-0.16,14.54,-9.80,21.91,-14.67,-2.91,0.04,-2.35,0.08,309.00,490.00,300.00,288.00,336.00,1038.00,688.00,1278.00,,,,,,,,,,,,1,0,0,,-3748,15636,2768,-216,766,246
38.196,37.90,-0.40,-1.57,1.32,-2.63,-0.85,-5.08,7.06,-1.46,3.13,227.00,688.00,222.00,525.00,239.00,937.00,574.00,1137.00,,,,,,,,,,,,1,0,0,,-3768,15460,2888,-871,505,320
38.257,37.96,-0.08,-3.14,9.62,-4.94,10.10,6.08,-6.20,5.43,-5.16,149.00,586.00,128.00,429.00,400.00,860.00,793.00,1081.00,,,,,,,,,,,,1,0,0,,-3420,15348,3168,-937,166,775
38.278,38.01,-0.08,10.80,-7.62,12.02,-8.69,-0.04,-0.92,-0.29,-0.80,294.00,536.00,260.00,363.00,336.00,951.00,695.00,1206.00,,,,,,,,,,,,1,0,0,,-3344,15844,3208,151,241,1001
38.341,38.07,-0.19,2.40,-1.20,3.23,-2.74,-2.38,3.03,-0.88,1.27,242.00,629.00,221.00,438.00,283.00,938.00,628.00,1168.00,,,,,,,,,,,,1,0,0,,-2984,15920,2940,698,249,128
38.402,38.12,-0.20,1.77,1.81,1.06,0.98,-0.32,0.72,1.28,-1.41,208.00,595.00,188.00,432.00,309.00,920.00,698.00,1152.00,,,,,,,,,,,,1,0,0,,-3376,15792,2468,559,270,-258
38.483,38.18,-0.02,5.09,-1.56,2.02,1.15,3.48,-3.68,2.31,-2.51,235.00,571.00,183.00,414.00,366.00,891.00,727.00,1139.00,,,,,,,,,,,,1,0,0,,-3448,15232,2416,476,-495,-94
38.504,38.23,-0.13,8.28,-5.34,11.58,-8.26,-2.29,0.34,-1.32,-0.10,272.00,557.00,256.00,365.00,327.00,1005.00,682.00,1233.00,,,,,,,,,,,,1,0,0,,-3364,15672,3276,229,-331,319
38.566,38.29,-0.25,0.69,0.97,-0.99,-0.46,-2.59,4.60,-0.18,1.25,222.00,635.00,211.00,487.00,261.00,907.00,621.00,1137.00,,,,,,,,,,,,1,0,0,,-3236,16064,3068,-31,654,-14
38.628,38.34,0.15,-0.06,6.70,-3.12,9.92,7.84,-6.84,6.74,-5.39,165.00,561.00,125.00,401.00,401.00,816.00,784.00,1033.00,,,,,,,,,,,,1,0,0,,-3136,15828,2648,-200,496,-863
38.669,38.40,0.01,15.66,-10.29,19.13,-13.42,-2.79,0.85,-2.27,0.06,311.00,475.00,295.00,311.00,321.00,1011.00,688.00,1275.00,,,,,,,,,,,,1,0,0,,-3464,15412,2768,-187,17,-823
38.73,38.45,-0.21,-0.61,0.83,-1.89,0.10,-4.22,7.09,-0.97,2.84,229.00,671.00,208.00,497.00,235.00,905.00,578.00,1124.00,,,,,,,,,,,,1,0,0,,-3548,15340,2800,-370,-134,-691
38.791,38.51,0.09,-2.39,10.00,-2.80,8.53,5.80,-5.40,5.07,-4.83,144.00,563.00,134.00,411.00,385.00,851.00,784.00,1087.00,,,,,,,,,,,,1,0,0,,-3612,15548,2868,-264,386,-54
38.852,38.56,0.07,12.41,-7.78,13.24,-8.82,-0.39,-0.13,-0.36,-0.32,288.00,505.00,256.00,347.00,324.00,944.00,678.00,1194.00,,,,,,,,,,,,1,0,0,,-3704,15512,3092,-285,962,217
38.894,38.62,-0.02,1.50,1.46,3.62,-2.53,-1.76,2.57,-0.25,1.18,213.00,607.00,217.00,429.00,287.00,927.00,624.00,1142.00,,,,,,,,,,,,1,0,0,,-3580,15316,2816,-560,1614,218
38.977,38.67,-0.05,2.59,1.80,2.40,0.14,-0.49,0.90,1.67,-1.46,205.00,576.00,192.00,419.00,307.00,922.00,695.00,1136.00,,,,,,,,,,,,1,0,0,,-4024,14712,3460,-1400,2412,786
38.998,38.73,0.14,5.25,-0.73,2.23,2.12,3.63,-3.01,2.96,-2.59,224.00,555.00,173.00,400.00,352.00,870.00,722.00,1113.00,,,,,,,,,,,,1,0,0,,-5272,12556,6212,-2054,7142,5583
39.06,38.78,0.03,8.45,-5.46,12.18,-9.24,-2.00,0.24,-1.29,-0.11,273.00,555.00,267.00,366.00,327.00,996.00,682.00,1232.00,,,,,,,,,,,,1,0,0,,-2076,17560,1280,-1087,9144,7681
39.121,38.84,-0.17,0.08,1.17,-1.22,-0.12,-3.95,5.63,-0.93,1.41,222.00,647.00,208.00,487.00,253.00,931.00,624.00,1166.00,,,,,,,,,,,,1,0,0,,-1212,16260,2384,90,5087,5678
39.202,38.89,0.21,1.05,4.92,-4.37,10.49,7.32,-6.85,6.23,-5.22,178.00,563.00,124.00,415.00,405.00,833.00,784.00,1049.00,,,,,,,,,,,,1,0,0,,-956,16708,2096,373,3318,4272
39.224,38.95,0.14,15.34,-10.36,20.52,-14.38,-1.23,-0.02,-2.36,0.00,314.00,482.00,303.00,302.00,327.00,973.00,691.00,1281.00,,,,,,,,,,,,1,0,0,,-616,16792,2028,232,1882,2340
39.285,39.00,-0.14,-0.89,1.25,-2.41,0.28,-5.39,7.80,-1.27,2.59,225.00,671.00,208.00,505.00,231.00,930.00,589.00,1145.00,,,,,,,,,,,,1,0,0,,-320,16824,2276,-601,608,704
39.346,39.06,0.15,-1.46,7.97,-4.38,10.05,5.71,-5.75,5.51,-5.00,158.00,573.00,127.00,420.00,393.00,862.00,785.00,1073.00,,,,,,,,,,,,1,0,0,,-596,16508,2436,-533,-821,-812
39.388,39.11,0.17,12.84,-8.12,12.70,-8.35,0.50,-1.48,-0.08,-0.92,291.00,501.00,252.00,350.00,343.00,945.00,697.00,1200.00,,,,,,,,,,,,1,0,0,,-1024,15868,2700,-164,-1037,-990
39.449,39.17,0.04,2.51,-0.22,4.75,-3.50,-2.46,3.00,-0.69,1.15,229.00,610.00,224.00,421.00,284.00,942.00,630.00,1163.00,,,,,,,,,,,,1,0,0,,-900,16192,2336,-180,-1043,-978
39.511,39.22,0.01,2.89,1.17,2.74,-0.45,-0.49,1.02,1.48,-1.18,211.00,579.00,197.00,420.00,305.00,919.00,687.00,1136.00,,,,,,,,,,,,1,0,0,,-676,16052,1836,495,-1598,-1680
39.552,39.28,0.18,3.42,0.38,2.60,1.57,3.44,-3.21,2.66,-2.52,218.00,579.00,177.00,400.00,357.00,881.00,723.00,1124.00,,,,,,,,,,,,1,0,0,,-1440,15784,2948,117,-2471,-1033
39.614,39.33,0.08,8.65,-7.39,15.11,-11.04,-1.87,0.08,-1.36,-0.28,302.00,580.00,279.00,342.00,329.00,995.00,689.00,1241.00,,,,,,,,,,,,1,0,0,,-1332,16492,2704,-15,-2878,-1331
39.719,39.39,-0.10,-0.45,0.38,-1.04,-0.00,-3.59,5.22,-0.73,1.07,234.00,675.00,206.00,482.00,257.00,928.00,633.00,1167.00,,,,,,,,,,,,1,0,0,,-1204,15748,2492,85,-3135,-1179
39.76,39.44,0.27,0.01,5.48,-4.44,11.59,7.33,-7.30,5.83,-5.50,176.00,578.00,117.00,404.00,415.00,843.00,802.00,1074.00,,,,,,,,,,,,1,0,0,,-1592,15700,2600,991,-3017,-499
39.782,39.50,0.08,16.65,-11.66,19.98,-14.68,-3.56,0.26,-2.79,-0.20,329.00,474.00,311.00,311.00,336.00,1059.00,704.00,1310.00,,,,,,,,,,,,1,0,0,,-1684,15320,3392,219,-2328,96
39.823,39.55,-0.17,-0.15,1.00,-1.61,-0.60,-4.87,6.92,-1.61,2.70,225.00,656.00,215.00,501.00,240.00,933.00,589.00,1157.00,,,,,,,,,,,,1,0,0,,-1280,16600,3520,19,-247,-932
39.885,39.61,0.10,-2.06,9.38,-6.65,13.14,5.22,-5.54,5.20,-4.85,148.00,565.00,112.00,423.00,392.00,874.00,783.00,1082.00,,,,,,,,,,,,1,0,0,,-1284,15900,3436,-51,988,-684
39.947,39.66,0.10,13.29,-7.95,13.94,-8.98,0.15,-1.37,-0.19,-0.75,286.00,490.00,255.00,339.00,343.00,955.00,692.00,1200.00,,,,,,,,,,,,1,0,0,,-1404,16396,3336,502,2338,-1109
40.01,39.72,-0.02,3.94,-0.70,3.54,-1.72,-2.32,2.76,-0.17,0.74,229.00,584.00,208.00,421.00,287.00,943.00,638.00,1152.00,,,,,,,,,,,,1,0,0,,-1540,15932,2424,194,2447,-1136
40.092,39.77,-0.04,3.69,1.16,3.31,-1.19,-0.39,0.62,1.46,-1.15,208.00,561.00,203.00,419.00,311.00,925.00,686.00,1136.00,,,,,,,,,,,,1,0,0,,-1568,16136,1780,184,556,-973
40.113,39.83,0.17,5.83,0.26,3.11,1.30,4.20,-4.08,3.38,-2.91,210.00,528.00,178.00,395.00,369.00,875.00,729.00,1104.00,,,,,,,,,,,,1,0,0,,-1272,16692,1508,671,-1375,-1814
40.154,39.88,0.05,11.34,-6.63,14.81,-11.13,-2.24,0.15,-0.94,-0.45,276.00,511.00,282.00,347.00,330.00,1008.00,690.00,1226.00,,,,,,,,,,,,1,0,0,,-1064,16868,1268,865,-3270,-3651
40.216,39.94,-0.13,1.18,1.74,-0.92,0.05,-3.53,4.50,-0.47,1.70,211.00,610.00,205.00,479.00,267.00,944.00,609.00,1136.00,,,,,,,,,,,,1,0,0,,-1256,16472,892,948,-6335,-6500
40.278,39.99,0.25,0.01,7.95,-8.15,16.88,7.44,-7.29,6.33,-5.51,154.00,541.00,94.00,406.00,414.00,839.00,795.00,1053.00,,,,,,,,,,,,1,0,0,,-3604,14552,3188,420,-6424,-5192
