Time_Host,Time_Arduino,easingdata,CH1_Oxy,CH1_Deoxy,CH2_Oxy,CH2_Deoxy,CH3_Oxy,CH3_Deoxy,CH4_Oxy,CH4_Deoxy,CH1_PD730,CH1_PD850,CH2_PD730,CH2_PD850,CH3_PD730,CH3_PD850,CH4_PD730,CH4_PD850,Answers,airplane_playstate,trail_times,frameRate,Airplane X,Airplane Y,Correct,Wrong,Slow,AnswerRate,CorrectRate,VFTstates,VFTchoose,VFTCount,Culfstates,ax,ay,az,gx,gy,gz
1.236,0.04,0.00,0.00,0.00,0.00,0.00,0.00,0.00,0.00,0.00,395.00,749.00,208.00,283.00,368.00,738.00,720.00,1008.00,,,,,,,,,,,,0,0,0,,-4660,15524,-176,-190,203,-113
1.257,0.10,0.00,0.00,0.00,0.00,0.00,0.00,0.00,0.00,0.00,398.00,774.00,213.00,301.00,347.00,747.00,705.00,1014.00,,,,,,,,,,,,0,0,0,,-4668,15416,-300,-209,74,-167
1.299,0.15,0.00,0.00,0.00,0.00,0.00,0.00,0.00,0.00,0.00,394.00,785.00,197.00,310.00,350.00,730.00,721.00,1008.00,,,,,,,,,,,,0,0,0,,-4660,15508,-296,-171,97,-81
1.319,0.21,0.00,0.00,0.00,0.00,0.00,0.00,0.00,0.00,0.00,397.00,777.00,205.00,303.00,382.00,731.00,750.00,1017.00,,,,,,,,,,,,0,0,0,,-4612,15676,-12,-126,100,-117
1.34,0.26,0.00,0.00,0.00,0.00,0.00,0.00,0.00,0.00,0.00,419.00,784.00,225.00,296.00,359.00,765.00,723.00,1058.00,,,,,,,,,,,,0,0,0,,-4656,15568,-80,-79,101,-166
1.362,1.05,0.00,0.00,0.00,0.00,0.00,0.00,0.00,0.00,0.00,400.00,827.00,208.00,327.00,347.00,735.00,720.00,1017.00,,,,,,,,,,,,0,0,0,,-4552,15576,-348,-7,207,-261
1.382,1.11,0.00,0.00,0.00,0.00,0.00,0.00,0.00,0.00,0.00,400.00,779.00,235.00,301.00,377.00,720.00,754.00,1007.00,,,,,,,,,,,,0,0,0,,-4624,15520,-224,-157,70,-84
1.444,1.16,0.00,0.00,0.00,0.00,0.00,0.00,0.00,0.00,0.00,417.00,765.00,226.00,288.00,359.00,741.00,723.00,1041.00,,,,,,,,,,,,0,0,0,,-4656,15344,-108,-52,164,16
1.505,1.22,0.00,0.00,0.00,0.00,0.00,0.00,0.00,0.00,0.00,386.00,775.00,207.00,303.00,339.00,726.00,704.00,1005.00,,,,,,,,,,,,0,0,0,,-4616,15660,-100,74,309,-83
1.526,1.27,0.00,0.00,0.00,0.00,0.00,0.00,0.00,0.00,0.00,376.00,767.00,182.00,317.00,353.00,707.00,731.00,969.00,,,,,,,,,,,,0,0,0,,-4628,15636,-216,0,282,-150
1.589,1.33,0.02,1.02,-0.38,2.06,-0.37,0.40,-0.64,-0.12,0.20,399.00,755.00,207.00,282.00,368.00,735.00,719.00,1014.00,,,,,,,,,,,,0,0,0,,-4644,15484,-216,15,119,-161
1.63,1.38,-0.04,-0.29,0.06,-0.16,0.11,-1.20,1.47,-0.89,1.03,399.00,786.00,210.00,304.00,338.00,740.00,697.00,1022.00,,,,,,,,,,,,0,0,0,,-4636,15596,-84,24,67,-152
1.711,1.44,-0.04,-1.21,1.17,-3.60,2.92,0.08,0.34,0.23,-0.10,382.00,791.00,192.00,323.00,351.00,725.00,726.00,1008.00,,,,,,,,,,,,0,0,0,,-4652,15684,-272,33,193,-198
1.751,1.49,0.03,-0.29,0.15,-1.04,1.40,1.19,-1.40,0.04,-0.66,397.00,784.00,199.00,304.00,378.00,727.00,751.00,1031.00,,,,,,,,,,,,0,0,0,,-4672,15484,-348,36,121,-187
1.813,1.55,-0.06,0.20,-1.18,1.45,-2.28,-1.64,0.97,-1.36,0.61,423.00,797.00,232.00,304.00,350.00,763.00,719.00,1053.00,,,,,,,,,,,,0,0,0,,-4576,15552,-360,-62,15,-106
1.874,1.60,-0.08,-1.80,0.57,-3.60,1.44,-0.51,0.65,-0.39,0.26,399.00,823.00,208.00,336.00,349.00,736.00,720.00,1023.00,,,,,,,,,,,,0,0,0,,-4704,15548,-108,-139,84,-153
1.935,1.66,-0.01,-0.99,0.30,-2.36,2.50,1.25,-1.17,0.52,-0.97,399.00,803.00,192.00,311.00,373.00,721.00,757.00,1020.00,,,,,,,,,,,,0,0,0,,-4600,15804,-152,-122,189,-267
1.978,1.71,0.00,0.81,-0.99,1.57,-0.56,0.35,-0.62,-0.32,0.16,414.00,774.00,211.00,289.00,368.00,736.00,723.00,1023.00,,,,,,,,,,,,0,0,0,,-4620,15460,-108,-163,112,-245
2.017,1.77,-0.03,-0.58,0.58,-0.30,0.07,-0.69,1.69,-0.48,0.94,390.00,784.00,211.00,306.00,331.00,721.00,695.00,1008.00,,,,,,,,,,,,0,0,0,,-4512,15464,-48,-57,-34,-127
2.079,1.82,0.03,-0.88,1.55,-3.49,3.57,1.09,0.22,0.98,-0.20,372.00,773.00,185.00,316.00,347.00,699.00,720.00,981.00,,,,,,,,,,,,0,0,0,,-4592,15736,-132,81,147,-165
2.141,1.88,0.08,0.90,-0.29,1.79,-0.10,1.03,-0.80,-0.13,0.18,398.00,757.00,205.00,283.00,367.00,720.00,720.00,1015.00,,,,,,,,,,,,0,0,0,,-4588,15500,-184,-65,169,-196
2.182,1.93,0.05,0.04,-0.10,1.17,-1.12,-0.54,0.39,-0.43,0.61,400.00,779.00,219.00,298.00,354.00,742.00,707.00,1015.00,,,,,,,,,,,,0,0,0,,-4616,15516,-244,-110,43,-168
2.246,1.99,0.05,-1.04,0.45,-3.60,1.89,0.12,0.54,0.01,0.15,396.00,801.00,203.00,332.00,347.00,720.00,719.00,1010.00,,,,,,,,,,,,0,0,0,,-4620,15692,12,-127,58,-132
2.307,2.04,0.15,-0.01,-0.22,-1.04,1.40,2.05,-1.83,0.60,-0.88,403.00,783.00,199.00,304.00,381.00,711.00,752.00,1014.00,,,,,,,,,,,,0,0,0,,-4572,15624,-208,50,192,-221
2.37,2.10,0.12,1.08,-1.87,2.76,-3.34,-0.49,0.02,-1.20,0.56,432.00,784.00,240.00,297.00,361.00,748.00,719.00,1048.00,,,,,,,,,,,,0,0,0,,-4636,15524,-288,37,82,-209
2.432,2.15,0.07,-1.24,0.01,-1.82,0.06,-0.89,1.26,-0.22,0.31,407.00,817.00,217.00,325.00,340.00,735.00,716.00,1015.00,,,,,,,,,,,,0,0,0,,-4704,15500,-188,24,12,-145
2.473,2.21,0.11,-0.67,0.19,-2.43,2.72,0.90,-0.35,0.21,-0.30,399.00,795.00,190.00,310.00,359.00,715.00,734.00,1014.00,,,,,,,,,,,,0,0,0,,-4720,15448,-160,12,132,-82
2.535,2.26,0.12,0.06,-0.69,1.46,-0.52,0.31,-0.61,-0.82,0.28,413.00,791.00,211.00,290.00,368.00,737.00,725.00,1040.00,,,,,,,,,,,,0,0,0,,-4640,15640,-124,78,240,48
2.619,2.32,0.04,-0.83,-0.03,-0.41,-0.50,-1.43,1.66,-0.78,0.83,405.00,805.00,218.00,312.00,336.00,743.00,703.00,1023.00,,,,,,,,,,,,0,0,0,,-4648,15436,-228,-3,172,-340
2.64,2.37,0.10,-0.87,0.96,-3.38,2.94,1.18,-0.18,0.85,-0.16,384.00,785.00,191.00,320.00,354.00,704.00,720.00,985.00,,,,,,,,,,,,0,0,0,,-4696,15544,-424,6,-3,-212
2.682,2.43,0.15,0.14,0.29,0.36,0.20,1.21,-0.91,0.16,0.08,391.00,768.00,207.00,297.00,368.00,717.00,720.00,1006.00,,,,,,,,,,,,0,0,0,,-4672,15568,-128,169,180,-19
2.744,2.48,0.10,0.33,-0.33,1.17,-1.61,-0.82,0.80,-0.99,0.75,403.00,775.00,225.00,302.00,348.00,742.00,709.00,1034.00,,,,,,,,,,,,0,0,0,,-4632,15476,-352,169,309,-199
2.806,2.54,0.10,-1.44,0.82,-3.06,1.44,-0.07,0.87,0.42,-0.01,391.00,806.00,206.00,329.00,342.00,719.00,720.00,998.00,,,,,,,,,,,,0,0,0,,-4616,15612,-616,222,221,-209
2.848,2.59,0.18,-0.50,0.60,-1.64,2.16,1.83,-1.52,0.79,-0.67,389.00,781.00,193.00,305.00,376.00,711.00,741.00,1001.00,,,,,,,,,,,,0,0,0,,-4580,15476,-324,90,148,-72
2.909,2.65,0.16,1.50,-2.01,3.25,-3.04,-0.27,0.25,-0.87,0.60,432.00,774.00,234.00,289.00,355.00,737.00,713.00,1033.00,,,,,,,,,,,,0,0,0,,-4640,15600,-360,108,232,-72
2.991,2.70,0.11,-0.87,0.30,-0.53,0.41,-0.85,1.46,-0.14,0.51,398.00,799.00,208.00,306.00,336.00,730.00,707.00,1006.00,,,,,,,,,,,,0,0,0,,-4684,15552,-356,63,274,-155
3.032,2.76,0.15,-0.96,0.85,-2.56,3.16,0.94,-0.67,0.81,-0.32,387.00,790.00,186.00,308.00,365.00,720.00,727.00,991.00,,,,,,,,,,,,0,0,0,,-4556,15424,-416,-35,111,-202
3.074,2.81,0.15,0.68,-0.99,2.63,-1.61,0.22,-0.58,-0.21,-0.00,415.00,778.00,219.00,285.00,368.00,739.00,728.00,1023.00,,,,,,,,,,,,0,0,0,,-4828,15588,-476,-161,69,-313
3.116,2.87,0.06,-0.75,-0.15,-0.05,-0.79,-1.68,1.58,-1.26,0.97,407.00,805.00,220.00,310.00,339.00,752.00,704.00,1039.00,,,,,,,,,,,,0,0,0,,-4788,15460,-372,-135,-14,-273
3.179,2.92,0.04,-1.60,0.55,-3.58,1.97,-0.36,0.07,-0.61,0.18,398.00,817.00,202.00,331.00,359.00,743.00,726.00,1034.00,,,,,,,,,,,,0,0,0,,-4736,15676,-300,65,53,-158
3.24,2.98,0.08,-0.79,0.18,-0.77,0.76,0.87,-1.49,0.66,-0.84,400.00,799.00,205.00,306.00,382.00,738.00,750.00,1011.00,,,,,,,,,,,,0,0,0,,-4768,15496,-360,-198,104,-241
3.28,3.03,0.02,1.21,-1.35,2.28,-2.63,-1.27,0.43,-1.22,0.90,419.00,769.00,233.00,297.00,358.00,763.00,706.00,1039.00,,,,,,,,,,,,0,0,0,,-4780,15336,-200,-110,162,-195
3.343,3.09,-0.09,-1.16,0.82,-3.03,1.16,-2.11,1.13,0.07,0.39,389.00,797.00,209.00,331.00,350.00,774.00,709.00,1001.00,,,,,,,,,,,,0,0,0,,-4680,15600,-436,-68,207,-46
3.424,3.14,-0.01,0.34,0.03,-0.66,0.72,1.46,-1.44,0.61,-0.93,395.00,767.00,205.00,305.00,377.00,720.00,754.00,1015.00,,,,,,,,,,,,0,0,0,,-4660,15600,-608,-188,322,-138
3.446,3.20,-0.01,0.99,-0.83,2.02,-1.23,-0.05,-0.39,-0.12,0.30,409.00,765.00,217.00,289.00,366.00,743.00,715.00,1011.00,,,,,,,,,,,,0,0,0,,-4672,15472,-432,-261,247,-318
3.505,3.25,-0.09,-0.50,0.50,-0.18,-0.24,-1.43,1.66,-0.55,1.05,391.00,783.00,214.00,307.00,336.00,743.00,692.00,1008.00,,,,,,,,,,,,0,0,0,,-4784,15520,-420,-254,78,-69
3.567,3.31,-0.04,-1.13,1.39,-3.19,3.37,0.81,-0.16,1.09,-0.37,377.00,784.00,186.00,314.00,356.00,714.00,725.00,981.00,,,,,,,,,,,,0,0,0,,-4636,15576,-256,-1,10,-165
3.629,3.36,0.01,0.59,-0.37,0.94,0.36,0.89,-0.95,0.07,0.05,402.00,768.00,203.00,289.00,371.00,727.00,722.00,1010.00,,,,,,,,,,,,0,0,0,,-4748,15580,-288,77,-182,-135
3.712,3.42,-0.09,-0.46,-0.02,0.81,-1.33,-1.82,0.57,-0.83,0.51,402.00,793.00,223.00,304.00,359.00,777.00,716.00,1034.00,,,,,,,,,,,,0,0,0,,-4680,15488,-420,71,-270,-138
3.734,3.47,-0.10,-1.36,0.37,-3.26,1.51,-0.41,0.51,-0.21,0.17,400.00,813.00,206.00,331.00,351.00,736.00,721.00,1018.00,,,,,,,,,,,,0,0,0,,-4676,15368,-172,1,-126,19
3.797,3.53,-0.04,-0.83,0.20,-1.36,1.50,1.13,-1.72,0.54,-0.93,400.00,800.00,199.00,307.00,385.00,735.00,755.00,1018.00,,,,,,,,,,,,0,0,0,,-4640,15652,-332,94,3,-88
3.859,3.58,-0.14,0.59,-2.04,2.35,-3.36,-2.11,1.67,-1.29,0.51,440.00,803.00,242.00,302.00,340.00,763.00,722.00,1053.00,,,,,,,,,,,,0,0,0,,-4640,15652,-320,-39,79,-177
3.899,3.64,-0.17,-1.12,0.62,-2.41,1.04,-0.74,1.05,-0.11,0.40,393.00,800.00,208.00,324.00,343.00,735.00,711.00,1008.00,,,,,,,,,,,,0,0,0,,-4592,15588,-268,-275,15,-222
3.961,3.69,-0.10,0.30,0.00,-2.20,2.25,1.41,-0.52,1.27,-0.48,396.00,769.00,194.00,311.00,359.00,704.00,727.00,977.00,,,,,,,,,,,,0,0,0,,-4636,15448,-256,-79,78,-140
4.024,3.75,-0.06,1.51,-1.05,2.79,-1.32,0.62,-0.71,0.26,0.04,410.00,754.00,215.00,281.00,368.00,730.00,720.00,1003.00,,,,,,,,,,,,0,0,0,,-4644,15396,-208,143,266,-262
4.086,3.80,-0.11,0.08,-0.11,0.58,-0.75,-0.98,1.34,-0.48,1.05,400.00,778.00,217.00,302.00,339.00,736.00,691.00,1005.00,,,,,,,,,,,,0,0,0,,-4676,15576,-444,-9,481,-240
4.107,3.86,-0.05,-1.01,1.45,-2.51,2.84,1.04,-0.34,1.03,-0.27,375.00,779.00,189.00,310.00,358.00,711.00,722.00,981.00,,,,,,,,,,,,0,0,0,,-4640,15444,-464,-96,310,-382
4.17,3.91,0.01,0.51,-0.25,-0.27,1.14,1.16,-1.04,0.50,-0.32,400.00,768.00,199.00,297.00,371.00,721.00,731.00,1003.00,,,,,,,,,,,,0,0,0,,-4624,15592,-420,-113,258,-283
4.231,3.97,-0.04,-0.09,-0.19,1.64,-1.94,-1.07,0.68,-0.74,0.38,403.00,785.00,227.00,299.00,352.00,752.00,720.00,1034.00,,,,,,,,,,,,0,0,0,,-4796,15512,-648,34,42,-241
4.272,4.02,-0.04,-1.72,0.78,-3.70,1.92,0.03,0.46,-0.02,0.27,394.00,816.00,203.00,333.00,349.00,724.00,715.00,1008.00,,,,,,,,,,,,0,0,0,,-4732,15580,-372,-20,-56,-231
4.353,4.08,0.05,-0.67,0.19,-1.47,1.92,1.67,-1.90,0.64,-0.89,399.00,795.00,195.00,305.00,385.00,723.00,752.00,1013.00,,,,,,,,,,,,0,0,0,,-4812,15512,-308,-148,28,-180
4.394,4.13,0.01,0.46,-1.57,2.51,-1.82,-0.62,-0.04,-1.38,0.57,430.00,797.00,222.00,288.00,363.00,753.00,721.00,1055.00,,,,,,,,,,,,0,0,0,,-4796,15440,-372,-171,140,-100
4.457,4.19,-0.08,-1.00,-0.43,-0.45,-0.31,-1.78,1.72,-3.53,4.96,415.00,819.00,216.00,311.00,337.00,752.00,591.00,1021.00,,,,,,,,,,,,0,0,0,,-4704,15416,-320,-228,246,-34
4.498,4.24,-0.02,-1.04,0.40,-2.90,2.59,1.03,-0.75,0.69,-0.41,397.00,802.00,193.00,317.00,366.00,719.00,732.00,998.00,,,,,,,,,,,,0,0,0,,-4776,15404,-348,-327,132,-263
4.561,4.30,0.03,-0.21,-0.01,2.37,-0.30,0.98,-0.78,-0.00,0.13,400.00,785.00,205.00,278.00,367.00,721.00,720.00,1011.00,,,,,,,,,,,,0,0,0,,-4904,15708,-320,-325,-72,-191
4.601,4.35,-0.03,0.09,0.03,0.22,-0.45,-1.25,1.49,-0.50,0.98,397.00,775.00,215.00,304.00,338.00,741.00,694.00,1008.00,,,,,,,,,,,,0,0,0,,-4752,15536,-92,-66,22,-76
4.663,4.41,-0.01,-0.84,1.29,-2.36,2.50,0.49,-0.00,0.65,-0.09,377.00,777.00,192.00,311.00,355.00,720.00,720.00,991.00,,,,,,,,,,,,0,0,0,,-4772,15504,-52,-12,199,-152
4.727,4.46,0.07,0.13,0.06,-0.25,0.85,1.64,-1.60,0.61,-0.56,396.00,773.00,202.00,299.00,379.00,718.00,739.00,1005.00,,,,,,,,,,,,0,0,0,,-4816,15536,-372,-6,148,-257
4.81,4.52,0.04,0.56,-0.86,2.43,-1.95,-0.58,0.25,-1.02,0.58,413.00,779.00,224.00,290.00,357.00,746.00,716.00,1040.00,,,,,,,,,,,,0,0,0,,-4840,15452,-272,-74,28,-22
4.83,4.57,0.00,-1.20,0.51,-2.00,0.90,-0.70,1.09,0.16,0.33,396.00,805.00,208.00,320.00,342.00,733.00,710.00,999.00,,,,,,,,,,,,0,0,0,,-4768,15484,-180,-96,149,-58
4.894,4.63,0.09,-0.41,0.38,-1.87,2.63,1.62,-1.10,1.16,-0.91,393.00,783.00,189.00,304.00,369.00,709.00,746.00,993.00,,,,,,,,,,,,0,0,0,,-4736,15644,-96,-36,265,-182
4.934,4.68,0.11,0.47,-0.92,1.45,-0.26,0.49,-0.52,-0.31,0.18,415.00,783.00,208.00,288.00,365.00,730.00,722.00,1022.00,,,,,,,,,,,,0,0,0,,-4772,15348,-88,-40,172,-95
4.995,4.74,0.05,-0.79,0.23,-0.52,0.14,-0.98,1.45,-0.59,0.85,399.00,798.00,211.00,308.00,337.00,734.00,700.00,1015.00,,,,,,,,,,,,0,0,0,,-4724,15544,-160,-146,313,12
5.077,4.79,0.08,-1.58,1.20,-1.43,1.25,0.67,-0.07,0.41,-0.19,384.00,802.00,202.00,310.00,355.00,716.00,727.00,1003.00,,,,,,,,,,,,0,0,0,,-4672,15664,-464,-15,375,-156
5.138,4.85,0.10,-0.01,-0.40,1.45,-0.26,0.35,-0.82,-0.67,0.03,407.00,787.00,208.00,288.00,372.00,740.00,733.00,1041.00,,,,,,,,,,,,0,0,0,,-4720,15524,-432,196,155,-122
5.178,4.90,0.04,-0.48,-0.51,0.74,-1.22,-1.03,0.66,-0.84,0.41,413.00,804.00,222.00,304.00,352.00,751.00,720.00,1037.00,,,,,,,,,,,,0,0,0,,-4784,15416,-332,46,44,-279
5.219,4.96,0.06,-0.99,0.53,-2.00,0.90,0.54,-0.07,0.16,0.08,394.00,798.00,208.00,320.00,356.00,720.00,720.00,1006.00,,,,,,,,,,,,0,0,0,,-4832,15412,-212,-148,15,-216
5.26,5.01,0.15,0.21,-0.06,-0.47,1.67,1.72,-1.77,0.74,-0.75,398.00,773.00,194.00,295.00,382.00,719.00,745.00,1005.00,,,,,,,,,,,,0,0,0,,-4768,15548,-356,48,157,-69
5.321,5.07,0.12,1.22,-1.31,2.85,-1.93,-0.40,0.14,-0.28,0.10,418.00,768.00,222.00,285.00,358.00,743.00,725.00,1023.00,,,,,,,,,,,,0,0,0,,-4764,15596,-316,106,193,-124
5.383,5.12,0.08,-1.45,0.97,-1.69,0.80,-0.71,1.25,-0.01,0.47,388.00,803.00,208.00,317.00,339.00,730.00,707.00,1002.00,,,,,,,,,,,,0,0,0,,-4768,15432,-388,-4,147,-245
5.424,5.18,0.14,-0.54,0.61,-2.57,3.66,1.27,-0.37,0.54,-0.23,389.00,782.00,181.00,304.00,357.00,705.00,727.00,999.00,,,,,,,,,,,,0,0,0,,-4736,15524,-408,-46,165,-28
5.485,5.23,0.15,0.41,-0.36,2.72,-0.69,0.44,-0.30,0.21,0.03,403.00,773.00,208.00,277.00,361.00,727.00,721.00,1005.00,,,,,,,,,,,,0,0,0,,-4740,15516,-320,-70,238,-119
5.568,5.29,0.09,-0.58,0.16,0.07,-0.23,-1.08,1.54,-0.84,0.96,399.00,793.00,213.00,304.00,336.00,735.00,699.00,1022.00,,,,,,,,,,,,0,0,0,,-4684,15432,-580,-100,138,-200
5.61,5.34,0.12,-1.53,1.19,-3.52,3.38,0.67,-0.27,0.28,-0.14,384.00,801.00,187.00,318.00,359.00,720.00,727.00,1007.00,,,,,,,,,,,,0,0,0,,-4764,15524,-424,-123,-61,-141
5.711,5.40,0.15,-0.51,-0.14,4.70,-0.81,0.66,-1.02,-1.06,-0.14,405.00,797.00,202.00,257.00,374.00,735.00,745.00,1062.00,,,,,,,,,,,,0,0,0,,-4664,15484,-244,-166,52,-121
5.731,5.45,0.07,0.10,-1.41,1.74,-2.21,-1.36,0.41,-1.90,0.85,429.00,805.00,230.00,300.00,359.00,766.00,717.00,1069.00,,,,,,,,,,,,0,0,0,,-4740,15600,-204,-213,146,-129
5.773,5.51,0.03,-1.72,-0.36,-3.01,1.24,-0.80,0.43,-0.73,0.15,419.00,841.00,208.00,330.00,355.00,749.00,729.00,1040.00,,,,,,,,,,,,0,0,0,,-4656,15420,-300,-143,142,-15
5.837,5.56,0.10,-0.57,-0.92,-1.12,0.78,1.54,-1.81,0.63,-1.25,423.00,816.00,206.00,310.00,384.00,725.00,767.00,1023.00,,,,,,,,,,,,0,0,0,,-4624,15524,-376,-304,83,-244
5.918,5.62,0.09,1.29,-1.94,3.75,-3.52,-0.22,-0.33,-1.79,0.68,432.00,779.00,238.00,287.00,366.00,747.00,722.00,1069.00,,,,,,,,,,,,0,0,0,,-4768,15536,-396,-384,-99,-199
5.939,5.67,0.03,-0.66,0.65,-0.32,0.34,-1.08,1.54,-0.59,0.56,389.00,785.00,208.00,304.00,336.00,735.00,711.00,1023.00,,,,,,,,,,,,0,0,0,,-4680,15348,-92,-188,-56,-32
5.979,5.73,0.10,-0.62,0.88,-2.93,3.58,1.49,-0.95,0.91,-0.51,384.00,779.00,183.00,309.00,367.00,710.00,733.00,992.00,,,,,,,,,,,,0,0,0,,-4688,15480,44,5,264,-125
6.043,5.78,0.12,0.63,-0.30,2.88,-0.65,0.40,-0.64,-0.26,0.06,400.00,765.00,207.00,275.00,368.00,735.00,726.00,1023.00,,,,,,,,,,,,0,0,0,,-4676,15588,-332,-55,302,-197
6.083,5.84,0.06,-0.09,-0.28,0.14,-0.34,-1.12,0.80,-1.13,0.95,405.00,787.00,214.00,304.00,350.00,751.00,703.00,1034.00,,,,,,,,,,,,0,0,0,,-4764,15368,-308,-28,127,-73
6.145,5.89,0.04,-1.36,0.84,-2.96,2.32,-0.32,0.27,-0.07,-0.02,390.00,803.00,196.00,320.00,355.00,738.00,727.00,1018.00,,,,,,,,,,,,0,0,0,,-4684,15524,-152,-7,106,-123
6.206,5.95,0.09,-0.63,0.13,0.81,0.68,1.13,-1.62,-0.06,-0.63,400.00,795.00,200.00,288.00,383.00,733.00,751.00,1034.00,,,,,,,,,,,,0,0,0,,-4724,15532,-312,-11,217,-218
6.29,6.00,0.03,0.08,-1.14,2.36,-2.50,-1.09,0.17,-1.92,0.78,423.00,800.00,231.00,295.00,362.00,763.00,720.00,1072.00,,,,,,,,,,,,0,0,0,,-4736,15460,-316,-43,78,-213
6.309,6.06,-0.03,-1.92,0.42,-2.62,1.47,-1.23,1.26,-1.01,0.52,403.00,830.00,204.00,323.00,342.00,745.00,718.00,1041.00,,,,,,,,,,,,0,0,0,,-4696,15576,-296,-57,63,-222
6.37,6.11,0.03,-1.20,0.32,-2.15,2.43,1.14,-1.53,0.38,-0.87,400.00,809.00,192.00,309.00,381.00,731.00,755.00,1023.00,,,,,,,,,,,,0,0,0,,-4840,15436,-332,1,47,-110
6.431,6.17,-0.00,-0.11,-1.43,2.21,-1.38,-0.57,-0.31,-1.50,0.25,431.00,812.00,218.00,288.00,368.00,757.00,735.00,1069.00,,,,,,,,,,,,0,0,0,,-4696,15332,-280,52,33,-115
6.473,6.22,-0.07,-1.13,-0.61,0.14,-1.18,-1.34,0.87,-1.31,0.57,420.00,827.00,224.00,311.00,350.00,756.00,720.00,1052.00,,,,,,,,,,,,0,0,0,,-4792,15584,-200,-85,148,-301
6.534,6.28,-0.03,-1.29,1.10,-3.56,3.79,0.80,-0.67,0.39,-0.48,384.00,795.00,183.00,315.00,366.00,724.00,739.00,1012.00,,,,,,,,,,,,0,0,0,,-4744,15396,-300,-174,194,-103
6.594,6.33,0.02,0.42,-0.18,2.02,-0.45,0.79,-1.31,-0.72,0.09,399.00,769.00,208.00,283.00,379.00,737.00,731.00,1041.00,,,,,,,,,,,,0,0,0,,-4768,15420,-188,-90,132,-17
6.656,6.39,-0.04,-0.09,-0.15,1.24,-1.72,-1.05,0.20,-1.35,0.53,402.00,784.00,226.00,302.00,361.00,761.00,722.00,1055.00,,,,,,,,,,,,0,0,0,,-4800,15500,-184,-67,210,-141
6.718,6.44,-0.06,-0.51,-0.37,-2.70,0.79,-0.45,0.37,-0.49,-0.06,410.00,802.00,212.00,330.00,354.00,740.00,734.00,1036.00,,,,,,,,,,,,0,0,0,,-4780,15596,-432,-55,218,-163
6.76,6.50,0.01,-0.42,0.06,-0.82,1.32,1.27,-1.72,-0.16,-0.69,400.00,790.00,199.00,302.00,384.00,731.00,755.00,1040.00,,,,,,,,,,,,0,0,0,,-4732,15596,-308,-79,130,-14
6.823,6.55,-0.04,0.68,-1.56,2.38,-2.02,-0.87,-0.16,-1.61,0.42,428.00,790.00,225.00,291.00,367.00,763.00,730.00,1069.00,,,,,,,,,,,,0,0,0,,-4592,15616,-232,-16,205,-104
6.887,6.61,-0.10,-1.56,0.40,-3.40,1.37,-1.40,1.16,-0.95,0.48,401.00,819.00,208.00,334.00,345.00,752.00,719.00,1040.00,,,,,,,,,,,,0,0,0,,-4712,15520,-396,46,257,-198
6.928,6.66,-0.05,-0.83,0.24,-2.97,3.39,0.94,-0.87,-0.05,-0.61,399.00,799.00,185.00,311.00,369.00,724.00,750.00,1033.00,,,,,,,,,,,,0,0,0,,-4676,15392,-440,7,51,-166
7.052,6.72,-0.07,-0.23,-0.60,1.91,-0.41,-0.48,-0.34,-1.30,0.21,413.00,798.00,208.00,284.00,368.00,755.00,734.00,1062.00,,,,,,,,,,,,0,0,0,,-4756,15412,-240,-94,101,-130
7.073,6.77,-0.16,-1.32,0.13,0.44,-0.79,-1.80,1.51,-1.83,1.03,405.00,817.00,218.00,304.00,341.00,757.00,709.00,1061.00,,,,,,,,,,,,0,0,0,,-4780,15428,-224,-199,167,-143
7.094,6.83,-0.17,-2.32,1.02,-3.77,3.17,-0.44,-0.36,-0.70,-0.12,393.00,830.00,190.00,323.00,368.00,754.00,739.00,1046.00,,,,,,,,,,,,0,0,0,,-4744,15336,-196,-66,105,-32
7.156,6.88,-0.15,-1.24,-0.26,-1.14,0.70,0.25,-1.37,-0.96,-0.47,413.00,823.00,207.00,311.00,384.00,754.00,757.00,1067.00,,,,,,,,,,,,0,0,0,,-4680,15608,-220,-58,124,-294
7.217,6.94,-0.21,0.33,-1.10,1.53,-2.14,-1.21,0.01,-1.77,0.55,420.00,791.00,230.00,302.00,366.00,770.00,727.00,1072.00,,,,,,,,,,,,0,0,0,,-4748,15596,-344,-175,81,-178
7.258,6.99,-0.25,-1.60,0.59,-3.70,1.92,-1.03,0.61,-0.90,0.08,397.00,816.00,203.00,333.00,353.00,752.00,734.00,1049.00,,,,,,,,,,,,0,0,0,,-4684,15420,-88,-23,140,-30
7.32,7.05,-0.18,-0.17,0.07,-2.02,2.48,1.17,-1.78,-0.15,-0.74,398.00,782.00,191.00,307.00,386.00,735.00,757.00,1041.00,,,,,,,,,,,,0,0,0,,-4724,15548,-264,-3,200,-238
7.382,7.10,-0.18,1.06,-1.56,3.44,-2.54,-0.31,-0.40,-1.76,0.65,425.00,778.00,227.00,283.00,368.00,751.00,723.00,1069.00,,,,,,,,,,,,0,0,0,,-4768,15628,-468,-36,144,-236
7.403,7.16,-0.20,-0.99,0.34,-1.59,0.76,-0.44,-0.41,-1.27,0.56,398.00,802.00,208.00,316.00,369.00,755.00,720.00,1051.00,,,,,,,,,,,,0,0,0,,-4852,15428,-124,-53,-13,-88
7.466,7.21,-0.14,-0.95,0.71,-3.38,3.53,0.84,-0.84,0.23,-0.65,390.00,793.00,185.00,315.00,369.00,726.00,748.00,1023.00,,,,,,,,,,,,0,0,0,,-4788,15652,-184,18,144,-168
7.527,7.27,-0.14,0.19,-0.56,1.68,-0.34,-0.05,-0.84,-1.22,0.06,409.00,784.00,208.00,286.00,375.00,752.00,739.00,1063.00,,,,,,,,,,,,0,0,0,,-4740,15480,-472,69,251,-197
7.587,7.32,-0.22,-1.08,0.05,0.03,-0.31,-1.80,0.87,-1.80,0.74,405.00,811.00,214.00,305.00,353.00,770.00,720.00,1068.00,,,,,,,,,,,,0,0,0,,-4716,15456,-416,89,99,-133
7.629,7.38,-0.24,-0.17,-0.03,-2.84,1.45,-0.61,-0.30,-1.26,-0.03,400.00,784.00,205.00,326.00,368.00,758.00,743.00,1067.00,,,,,,,,,,,,0,0,0,,-4692,15524,-228,-5,108,-119
7.691,7.43,-0.19,-1.00,-0.25,-1.14,0.70,0.75,-2.16,-0.81,-0.86,411.00,815.00,207.00,311.00,397.00,755.00,771.00,1072.00,,,,,,,,,,,,0,0,0,,-4728,15508,-368,-47,144,-155
7.754,7.49,-0.30,-0.27,-1.45,2.20,-2.76,-2.34,0.33,-2.43,0.37,433.00,818.00,235.00,299.00,367.00,798.00,743.00,1106.00,,,,,,,,,,,,0,0,0,,-4724,15404,-236,-3,154,-30
7.815,7.54,-0.36,-2.46,0.42,-3.69,1.47,-1.50,0.77,-1.12,-0.12,407.00,848.00,208.00,337.00,353.00,763.00,745.00,1064.00,,,,,,,,,,,,0,0,0,,-4712,15560,-268,-45,136,-317
7.878,7.60,-0.32,-0.79,0.70,-2.17,2.34,0.52,-1.22,-0.14,-0.80,389.00,788.00,193.00,310.00,379.00,743.00,759.00,1042.00,,,,,,,,,,,,0,0,0,,-4840,15544,-372,-102,83,-177
7.919,7.65,-0.32,0.08,-0.11,2.18,-0.68,-0.48,-0.34,-1.34,0.30,400.00,778.00,210.00,283.00,368.00,755.00,731.00,1061.00,,,,,,,,,,,,0,0,0,,-4852,15552,-392,-6,108,-29
7.981,7.71,-0.40,-0.46,0.07,-0.15,-0.16,-1.85,1.52,-1.41,0.66,400.00,791.00,213.00,306.00,341.00,758.00,718.00,1054.00,,,,,,,,,,,,0,0,0,,-4668,15512,-280,33,238,-142
8.042,7.76,-0.37,-0.87,1.06,-4.06,4.06,0.22,-0.43,-0.37,-0.20,382.00,783.00,182.00,319.00,365.00,736.00,738.00,1035.00,,,,,,,,,,,,0,0,0,,-4804,15616,-316,-51,186,-220
8.124,7.82,-0.36,0.21,-0.15,0.84,0.12,-0.22,-0.88,-0.83,-0.34,400.00,775.00,206.00,292.00,377.00,758.00,750.00,1058.00,,,,,,,,,,,,0,0,0,,-4720,15528,-360,-31,67,-82
8.144,7.87,-0.40,-0.15,-0.67,0.07,-0.23,-1.08,-0.14,-1.94,0.43,414.00,797.00,213.00,304.00,368.00,769.00,734.00,1083.00,,,,,,,,,,,,0,0,0,,-4724,15584,-416,111,209,-120
8.186,7.93,-0.41,-1.20,-0.09,-3.04,0.73,-0.71,0.09,-1.04,-0.17,409.00,818.00,214.00,335.00,361.00,753.00,746.00,1062.00,,,,,,,,,,,,0,0,0,,-4776,15588,-516,139,224,-230
8.249,7.98,-0.36,-0.23,-0.68,-0.99,0.47,0.55,-1.71,-0.56,-0.85,415.00,800.00,209.00,311.00,389.00,752.00,767.00,1061.00,,,,,,,,,,,,0,0,0,,-4592,15516,-500,49,-18,-203
8.331,8.04,-0.43,0.55,-1.99,2.54,-3.27,-1.67,0.06,-2.39,0.40,439.00,803.00,240.00,299.00,368.00,783.00,741.00,1103.00,,,,,,,,,,,,0,0,0,,-4764,15548,-320,-171,-12,-172
8.352,8.09,-0.46,-2.11,0.49,-3.01,1.24,-0.99,0.81,-1.63,0.35,403.00,835.00,208.00,330.00,349.00,747.00,733.00,1072.00,,,,,,,,,,,,0,0,0,,-4848,15524,-524,-170,135,-159
8.414,8.15,-0.44,-1.48,0.41,-2.99,2.71,-0.09,-0.72,-0.93,-0.33,400.00,816.00,192.00,317.00,373.00,751.00,751.00,1062.00,,,,,,,,,,,,0,0,0,,-4808,15520,-476,-80,211,-34
8.499,8.20,-0.44,0.62,-1.71,2.31,-1.92,-0.48,-0.69,-1.29,-0.19,432.00,795.00,224.00,291.00,375.00,762.00,750.00,1073.00,,,,,,,,,,,,0,0,0,,-4752,15420,-404,-253,51,-263
8.521,8.26,-0.53,-0.46,0.12,-0.89,0.09,-2.16,1.79,-1.82,0.87,399.00,790.00,213.00,313.00,338.00,762.00,715.00,1065.00,,,,,,,,,,,,0,0,0,,-4828,15452,-396,-220,-1,-151
8.561,8.31,-0.50,-1.21,1.17,-3.52,3.38,-0.04,-0.54,-0.59,-0.03,382.00,791.00,187.00,318.00,369.00,746.00,734.00,1039.00,,,,,,,,,,,,0,0,0,,-4808,15608,-144,-40,189,-75
8.623,8.37,-0.46,0.13,0.01,0.04,0.31,0.34,-1.31,-0.65,-0.43,397.00,774.00,207.00,300.00,382.00,750.00,751.00,1053.00,,,,,,,,,,,,0,0,0,,-4772,15600,-332,-3,281,-89
8.665,8.42,-0.51,0.43,-0.78,0.95,-1.54,-1.39,0.22,-1.97,0.54,412.00,781.00,225.00,304.00,363.00,771.00,730.00,1081.00,,,,,,,,,,,,0,0,0,,-4692,15528,-400,-75,67,-246
8.726,8.48,-0.52,-1.40,0.43,-3.20,1.31,-0.80,0.27,-0.77,-0.04,399.00,813.00,208.00,332.00,358.00,752.00,737.00,1047.00,,,,,,,,,,,,0,0,0,,-4708,15528,-208,-58,-45,-57
8.788,8.53,-0.43,-0.13,-0.04,-1.70,2.38,1.34,-2.03,-0.24,-1.01,400.00,783.00,191.00,304.00,390.00,735.00,769.00,1052.00,,,,,,,,,,,,0,0,0,,-4712,15636,-172,32,231,-158
8.869,8.59,-0.44,0.66,-1.29,2.61,-2.10,-0.66,-0.23,-1.57,0.23,422.00,785.00,225.00,289.00,367.00,758.00,737.00,1073.00,,,,,,,,,,,,0,0,0,,-4840,15496,-536,-15,273,-176
8.911,8.64,-0.50,-0.87,0.21,-0.32,0.34,-1.57,1.16,-1.52,0.56,400.00,801.00,208.00,304.00,346.00,757.00,723.00,1061.00,,,,,,,,,,,,0,0,0,,-4832,15460,-336,-47,193,-116
8.973,8.70,-0.45,-1.73,0.97,-3.13,3.75,0.40,-0.49,-0.46,-0.40,390.00,812.00,182.00,310.00,365.00,732.00,747.00,1044.00,,,,,,,,,,,,0,0,0,,-4684,15560,-580,-208,56,-107
9.035,8.75,-0.43,0.35,-0.75,2.41,-0.49,-0.09,-0.82,-1.47,-0.03,412.00,783.00,207.00,279.00,375.00,753.00,746.00,1076.00,,,,,,,,,,,,0,0,0,,-4712,15504,-232,-63,137,-102
9.077,8.81,-0.52,-1.24,0.06,0.20,-1.04,-2.15,1.15,-1.87,0.63,406.00,816.00,222.00,309.00,350.00,775.00,725.00,1074.00,,,,,,,,,,,,0,0,0,,-4672,15756,-404,-105,201,-198
9.119,8.86,-0.53,-0.87,0.72,-3.33,2.64,-0.72,0.40,-0.40,-0.42,389.00,790.00,194.00,322.00,355.00,747.00,747.00,1042.00,,,,,,,,,,,,0,0,0,,-4684,15424,-300,-199,145,-178
9.179,8.92,-0.54,-0.12,0.19,-0.98,1.19,-0.69,-1.11,-0.14,-0.80,395.00,778.00,201.00,305.00,385.00,777.00,759.00,1042.00,,,,,,,,,,,,0,0,0,,-4716,15460,-252,-89,60,-88
9.241,8.97,-0.57,-1.52,-0.25,1.78,-2.15,-1.10,0.32,-1.68,0.41,415.00,832.00,229.00,299.00,359.00,760.00,731.00,1072.00,,,,,,,,,,,,0,0,0,,-4680,15700,-280,-20,156,-138
9.284,9.03,-0.58,-1.33,0.97,-2.29,1.45,-0.88,1.09,-0.84,0.41,387.00,799.00,203.00,319.00,343.00,738.00,720.00,1037.00,,,,,,,,,,,,0,0,0,,-4784,15540,-388,-60,260,-193
9.346,9.08,-0.48,0.34,-0.10,-0.40,0.45,1.43,-1.28,0.35,-0.79,398.00,770.00,207.00,304.00,374.00,718.00,752.00,1022.00,,,,,,,,,,,,0,0,0,,-4632,15408,-452,-69,87,-120
9.408,9.14,-0.45,0.42,-0.22,2.26,-0.53,0.04,-0.16,-0.80,0.22,400.00,770.00,208.00,281.00,361.00,736.00,727.00,1041.00,,,,,,,,,,,,0,0,0,,-4748,15476,-284,-22,115,-89
9.448,9.19,-0.50,0.28,-0.54,0.80,-0.82,-1.39,1.64,-1.16,0.86,408.00,781.00,217.00,300.00,336.00,742.00,707.00,1038.00,,,,,,,,,,,,0,0,0,,-4752,15576,-444,22,192,-187
9.51,9.25,-0.43,-0.38,0.18,-1.53,2.13,0.90,-0.30,0.40,-0.46,397.00,786.00,193.00,304.00,358.00,714.00,738.00,1011.00,,,,,,,,,,,,0,0,0,,-4676,15556,-512,-25,96,-186
9.632,9.30,-0.39,1.06,-1.16,2.60,-1.17,0.31,-0.36,-0.75,0.00,416.00,770.00,214.00,282.00,363.00,732.00,735.00,1045.00,,,,,,,,,,,,0,0,0,,-4700,15456,-468,-25,88,-168
9.653,9.36,-0.43,-0.26,-0.23,4.16,-2.12,-1.01,0.29,-0.85,-0.31,405.00,791.00,219.00,272.00,359.00,758.00,749.00,1058.00,,,,,,,,,,,,0,0,0,,-4752,15536,-392,-82,114,-127
9.674,9.41,-0.52,-1.44,0.40,-3.08,1.81,-2.32,3.33,-0.93,0.09,400.00,815.00,202.00,326.00,312.00,736.00,734.00,1050.00,,,,,,,,,,,,0,0,0,,-4720,15516,-280,-102,159,-111
9.736,9.47,-0.43,-0.71,0.06,-1.53,2.13,1.19,-1.40,-0.30,-0.84,402.00,799.00,193.00,304.00,378.00,727.00,763.00,1050.00,,,,,,,,,,,,0,0,0,,-4680,15660,-484,-68,181,-292
9.798,9.52,-0.46,1.13,-1.28,3.43,-2.13,-0.93,0.47,-1.74,0.72,418.00,770.00,222.00,280.00,355.00,752.00,720.00,1066.00,,,,,,,,,,,,0,0,0,,-4716,15428,-516,-177,81,-146
9.838,9.58,-0.37,-0.96,0.85,-2.16,1.13,1.25,-1.17,-0.09,0.27,387.00,790.00,206.00,320.00,373.00,721.00,716.00,1011.00,,,,,,,,,,,,0,0,0,,-4736,15456,-300,-110,49,-96
9.9,9.63,-0.29,0.69,-0.08,-2.49,4.15,1.32,-0.39,0.69,-0.33,395.00,759.00,176.00,299.00,357.00,704.00,729.00,996.00,,,,,,,,,,,,0,0,0,,-4720,15628,-340,1,229,-142
9.962,9.69,-0.24,0.52,0.16,3.95,-0.56,0.67,-0.27,-0.36,0.25,391.00,759.00,202.00,263.00,359.00,720.00,720.00,1022.00,,,,,,,,,,,,0,0,0,,-4752,15576,-528,-29,230,-188
10.002,9.74,-0.27,0.10,0.54,1.68,-0.60,-0.84,1.96,-0.61,0.88,386.00,764.00,211.00,288.00,327.00,720.00,699.00,1015.00,,,,,,,,,,,,0,0,0,,-4856,15492,-452,-52,56,-156
10.044,9.80,-0.19,-0.45,1.11,-2.66,3.80,1.41,-0.26,1.01,-0.54,378.00,769.00,180.00,304.00,354.00,699.00,733.00,989.00,,,,,,,,,,,,0,0,0,,-4668,15544,-376,-70,104,-111
10.104,9.85,-0.09,1.03,-0.24,1.39,1.14,1.67,-1.07,0.32,-0.31,396.00,752.00,193.00,278.00,368.00,707.00,733.00,1010.00,,,,,,,,,,,,0,0,0,,-4728,15544,-304,7,248,-179
10.167,9.91,-0.12,0.58,-0.51,2.86,-1.68,-0.60,0.68,-0.96,0.45,405.00,771.00,219.00,283.00,349.00,738.00,720.00,1041.00,,,,,,,,,,,,0,0,0,,-4764,15388,-612,-20,113,-190
10.251,9.96,-0.10,-0.91,0.50,-1.78,1.65,0.21,0.56,0.22,-0.12,394.00,796.00,199.00,311.00,346.00,717.00,727.00,1009.00,,,,,,,,,,,,0,0,0,,-4792,15540,-424,-143,9,-108
10.272,10.02,-0.01,-0.25,0.33,-1.08,2.07,1.85,-1.13,0.44,-0.82,393.00,779.00,192.00,299.00,368.00,703.00,752.00,1019.00,,,,,,,,,,,,0,0,0,,-4748,15600,-376,-189,119,-148
10.334,10.07,-0.01,1.08,-1.43,2.73,-1.89,-0.05,0.13,-1.15,0.42,422.00,775.00,222.00,286.00,356.00,733.00,724.00,1050.00,,,,,,,,,,,,0,0,0,,-4788,15432,-316,-141,154,-123
10.395,10.13,-0.04,-0.27,-0.49,0.92,-1.36,-0.58,1.37,-0.53,0.46,411.00,797.00,223.00,303.00,336.00,724.00,714.00,1023.00,,,,,,,,,,,,0,0,0,,-4720,15500,-412,-54,129,-15
10.438,10.18,0.04,-0.17,-0.03,-1.26,1.84,1.51,-0.14,0.67,-0.37,400.00,784.00,195.00,303.00,351.00,694.00,731.00,998.00,,,,,,,,,,,,0,0,0,,-4556,15576,-396,-109,186,-358
10.499,10.24,0.09,2.16,-1.35,2.72,-0.95,1.09,-0.15,0.11,0.04,412.00,741.00,211.00,279.00,354.00,706.00,722.00,1009.00,,,,,,,,,,,,0,0,0,,-4648,15464,-408,-112,20,-165
10.56,10.29,0.05,1.31,-0.75,2.29,-1.49,-0.76,2.05,-0.25,0.68,405.00,754.00,219.00,288.00,325.00,716.00,702.00,1006.00,,,,,,,,,,,,0,0,0,,-4648,15544,-300,39,118,-27
10.622,10.35,0.11,0.53,0.44,-0.88,1.53,1.23,0.60,0.67,-0.04,385.00,753.00,197.00,301.00,339.00,688.00,718.00,989.00,,,,,,,,,,,,0,0,0,,-4684,15700,-392,-24,314,-194
10.704,10.40,0.23,1.41,-0.56,2.21,-0.07,2.43,-1.22,0.96,-0.55,400.00,747.00,203.00,278.00,366.00,689.00,734.00,991.00,,,,,,,,,,,,0,0,0,,-4700,15568,-624,-33,171,-136
10.725,10.46,0.22,1.48,-0.86,4.21,-2.47,0.21,0.62,-0.85,0.65,406.00,751.00,223.00,274.00,345.00,716.00,711.00,1031.00,,,,,,,,,,,,0,0,0,,-4712,15500,-384,-37,59,-141
10.767,10.51,0.22,-0.50,0.79,-1.37,1.88,0.19,2.13,0.65,-0.01,385.00,777.00,195.00,304.00,318.00,688.00,717.00,989.00,,,,,,,,,,,,0,0,0,,-4724,15636,-240,-5,184,-158
10.829,10.57,0.35,0.41,0.78,1.89,2.06,2.67,-1.15,1.32,-1.04,379.00,750.00,182.00,266.00,363.00,681.00,749.00,990.00,,,,,,,,,,,,0,0,0,,-4764,15592,-436,57,242,-195
10.89,10.62,0.37,1.44,-0.80,3.44,-0.93,0.85,0.56,0.26,0.04,405.00,751.00,208.00,271.00,342.00,699.00,720.00,1003.00,,,,,,,,,,,,0,0,0,,-4776,15476,-588,6,44,-191
10.952,10.68,0.34,0.01,0.33,0.67,0.64,-0.21,1.98,-0.23,0.83,391.00,771.00,201.00,290.00,323.00,702.00,696.00,1001.00,,,,,,,,,,,,0,0,0,,-4824,15556,-576,-100,-20,-151
11.014,10.73,0.43,-0.37,1.04,-2.22,5.03,2.18,-0.26,1.13,-0.38,379.00,768.00,167.00,289.00,349.00,678.00,725.00,980.00,,,,,,,,,,,,0,0,0,,-4752,15480,-396,-128,154,-148
11.076,10.79,0.49,0.89,-0.34,3.46,-0.12,1.63,-0.75,0.17,-0.31,399.00,758.00,199.00,265.00,362.00,702.00,735.00,1016.00,,,,,,,,,,,,0,0,0,,-4780,15556,-504,-214,179,-138
11.097,10.84,0.45,-0.04,-0.07,1.95,-0.34,-0.45,1.44,-0.80,0.87,400.00,781.00,207.00,283.00,334.00,719.00,702.00,1023.00,,,,,,,,,,,,0,0,0,,-4816,15488,-428,-44,138,-68
11.158,10.90,0.45,-0.79,0.41,-2.63,2.31,0.62,0.80,0.43,-0.39,395.00,794.00,195.00,316.00,339.00,701.00,735.00,1008.00,,,,,,,,,,,,0,0,0,,-4644,15576,-328,-16,207,12
11.2,10.95,0.56,0.25,-0.17,0.40,1.29,2.46,-1.38,0.80,-0.94,400.00,774.00,195.00,288.00,369.00,691.00,752.00,1008.00,,,,,,,,,,,,0,0,0,,-4740,15484,-216,-94,151,-364
11.263,11.01,0.54,1.94,-1.24,3.38,-2.20,0.25,0.82,-0.46,0.36,411.00,745.00,223.00,281.00,341.00,711.00,717.00,1023.00,,,,,,,,,,,,0,0,0,,-4840,15504,-372,-143,-87,-208
11.325,11.06,0.55,-0.41,0.95,-1.23,1.93,0.79,1.24,0.60,0.21,381.00,771.00,194.00,302.00,330.00,688.00,709.00,985.00,,,,,,,,,,,,0,0,0,,-4644,15556,-360,-25,113,-21
11.366,11.12,0.67,0.68,1.03,0.05,2.98,2.82,-0.37,1.55,-0.77,372.00,737.00,179.00,279.00,347.00,663.00,735.00,974.00,,,,,,,,,,,,0,0,0,,-4756,15528,-384,-105,286,-232
11.448,11.17,0.72,1.49,-0.07,4.30,-0.21,1.84,-0.20,0.68,-0.02,389.00,735.00,197.00,257.00,350.00,686.00,717.00,988.00,,,,,,,,,,,,0,0,0,,-4728,15620,-588,-72,98,-139
11.489,11.23,0.70,1.23,-0.54,2.48,-1.13,0.20,2.01,0.36,0.71,401.00,752.00,214.00,283.00,320.00,690.00,693.00,981.00,,,,,,,,,,,,0,0,0,,-4732,15560,-208,-19,60,-53
11.531,11.28,0.80,0.53,0.49,-2.37,2.99,2.69,0.16,1.67,-0.48,384.00,752.00,187.00,307.00,338.00,657.00,722.00,962.00,,,,,,,,,,,,0,0,0,,-4704,15584,-336,-10,263,-134
11.593,11.34,0.88,1.45,0.04,3.37,0.57,2.40,-0.75,0.86,-0.36,387.00,734.00,192.00,261.00,357.00,681.00,728.00,990.00,,,,,,,,,,,,0,0,0,,-4644,15648,-600,28,259,-209
11.654,11.39,0.87,1.15,-0.43,3.08,-0.81,0.71,0.66,-0.05,0.28,399.00,752.00,208.00,274.00,341.00,701.00,715.00,1009.00,,,,,,,,,,,,0,0,0,,-4768,15452,-580,-46,23,-183
11.738,11.45,0.87,0.03,-0.32,-0.48,0.57,0.94,1.03,0.42,-0.01,405.00,784.00,206.00,304.00,333.00,688.00,720.00,998.00,,,,,,,,,,,,0,0,0,,-4868,15488,-260,-98,12,-138
11.798,11.50,0.98,0.14,0.53,-0.62,2.40,3.00,-1.41,0.97,-0.83,386.00,763.00,187.00,291.00,366.00,677.00,745.00,998.00,,,,,,,,,,,,0,0,0,,-4760,15512,-232,-117,137,-115
11.818,11.56,0.95,1.22,-1.26,4.47,-2.31,0.43,0.87,-0.36,0.25,417.00,767.00,220.00,270.00,339.00,705.00,720.00,1022.00,,,,,,,,,,,,0,0,0,,-4624,15512,-484,-22,184,-114
11.859,11.61,0.91,-0.79,0.46,-1.28,1.76,0.03,1.67,0.07,0.39,394.00,793.00,196.00,304.00,327.00,701.00,709.00,1001.00,,,,,,,,,,,,0,0,0,,-4812,15520,-588,61,78,-203
11.92,11.67,0.97,-0.54,0.85,-1.19,3.51,2.09,-0.07,1.08,-0.69,384.00,777.00,178.00,289.00,346.00,677.00,738.00,990.00,,,,,,,,,,,,0,0,0,,-4800,15296,-484,116,94,-180
11.98,11.72,0.98,0.87,-0.65,2.72,0.13,1.23,-0.20,-0.05,-0.06,406.00,765.00,199.00,271.00,354.00,703.00,728.00,1018.00,,,,,,,,,,,,0,0,0,,-4720,15652,-548,95,214,-188
12.043,11.78,0.94,0.30,-0.04,1.34,-0.22,0.14,1.35,-0.35,0.80,397.00,770.00,208.00,289.00,332.00,704.00,699.00,1007.00,,,,,,,,,,,,0,0,0,,-4656,15472,-392,-175,141,-323
12.084,11.83,0.98,0.02,1.25,0.25,0.23,1.71,0.49,1.23,-0.33,372.00,752.00,207.00,298.00,338.00,677.00,722.00,975.00,,,,,,,,,,,,0,0,0,,-4700,15348,-348,-138,-21,-187
12.188,11.89,1.07,0.58,0.48,1.59,0.98,2.86,-1.31,1.18,-0.57,384.00,751.00,194.00,277.00,365.00,679.00,732.00,983.00,,,,,,,,,,,,0,0,0,,-4760,15588,-376,5,124,-130
12.209,11.94,1.03,1.63,-0.63,4.38,-2.45,0.24,0.98,-0.32,0.52,400.00,742.00,222.00,272.00,338.00,708.00,709.00,1013.00,,,,,,,,,,,,0,0,0,,-4796,15492,-508,-47,201,-84
12.251,12.00,1.03,-0.24,0.90,-1.64,2.16,0.99,1.07,0.79,0.12,381.00,767.00,193.00,305.00,332.00,686.00,710.00,980.00,,,,,,,,,,,,0,0,0,,-4688,15516,-520,-79,72,-155
12.312,12.05,1.14,0.79,0.40,0.17,2.94,3.25,-1.40,1.69,-1.09,384.00,746.00,179.00,278.00,364.00,670.00,746.00,977.00,,,,,,,,,,,,0,0,0,,-4792,15608,-400,-37,110,-83
12.394,12.11,1.15,2.81,-2.32,6.11,-3.60,1.33,0.40,0.06,0.11,429.00,741.00,229.00,262.00,342.00,689.00,720.00,1009.00,,,,,,,,,,,,0,0,0,,-4816,15488,-724,101,218,-181
12.414,12.16,1.10,-0.45,0.82,1.73,0.65,0.21,1.89,-0.02,0.61,384.00,775.00,197.00,278.00,322.00,692.00,702.00,999.00,,,,,,,,,,,,0,0,0,,-4756,15448,-448,169,125,-97
12.476,12.22,1.17,-0.11,1.39,-1.67,4.09,2.43,-0.13,1.57,-0.73,370.00,753.00,174.00,290.00,345.00,669.00,733.00,972.00,,,,,,,,,,,,0,0,0,,-4808,15452,-572,105,125,-64
12.558,12.27,1.20,2.13,-1.61,3.33,0.49,1.88,-0.42,0.31,0.00,418.00,747.00,193.00,262.00,354.00,689.00,721.00,1002.00,,,,,,,,,,,,0,0,0,,-4796,15468,-572,25,211,-97
12.578,12.33,1.14,0.59,-0.28,2.65,-0.57,-0.10,1.66,-0.41,0.84,400.00,766.00,207.00,277.00,328.00,705.00,698.00,1008.00,,,,,,,,,,,,0,0,0,,-4812,15588,-508,-63,270,-65
12.641,12.38,1.13,-0.71,0.86,-0.63,1.92,0.95,0.75,0.30,-0.10,385.00,782.00,192.00,295.00,338.00,693.00,725.00,1005.00,,,,,,,,,,,,0,0,0,,-4800,15528,-356,-111,173,-109
12.703,12.44,1.19,-0.13,0.05,1.18,0.93,2.42,-1.32,0.47,-0.83,398.00,781.00,196.00,282.00,368.00,691.00,752.00,1018.00,,,,,,,,,,,,0,0,0,,-4692,15520,-508,148,168,-8
12.745,12.49,1.13,0.70,-1.22,3.67,-2.62,0.03,0.36,-0.99,0.46,420.00,782.00,227.00,281.00,351.00,726.00,720.00,1042.00,,,,,,,,,,,,0,0,0,,-4604,15604,-364,293,286,90
12.807,12.55,1.09,-1.52,0.71,-1.57,1.57,0.29,1.08,0.16,-0.08,394.00,811.00,199.00,309.00,336.00,705.00,726.00,1010.00,,,,,,,,,,,,0,0,0,,-4628,15584,-620,104,305,-287
12.91,12.60,1.16,1.19,-0.49,0.60,1.12,2.36,-0.68,1.22,-0.73,400.00,752.00,196.00,287.00,356.00,681.00,738.00,986.00,,,,,,,,,,,,0,0,0,,-4844,15640,-932,-72,164,-187
12.931,12.66,1.12,1.68,-0.65,4.05,-1.13,0.42,1.09,0.39,0.00,400.00,741.00,208.00,266.00,335.00,701.00,720.00,999.00,,,,,,,,,,,,0,0,0,,-4732,15488,-620,-59,96,-60
12.973,12.71,1.04,0.45,0.52,2.01,0.09,-0.36,2.14,0.08,0.76,384.00,754.00,202.00,279.00,321.00,703.00,695.00,991.00,,,,,,,,,,,,0,0,0,,-4668,15552,-524,-125,185,-175
13.055,12.77,1.10,0.75,0.42,0.27,1.62,2.19,0.11,1.38,-0.34,384.00,747.00,192.00,287.00,342.00,671.00,720.00,969.00,,,,,,,,,,,,0,0,0,,-4624,15612,-824,-45,173,-146
13.076,12.82,1.12,1.59,-0.01,3.33,0.49,1.46,-0.12,0.26,0.04,387.00,731.00,193.00,262.00,351.00,695.00,720.00,1003.00,,,,,,,,,,,,0,0,0,,-4696,15572,-656,-16,79,-122
13.138,12.88,1.06,1.16,-0.38,2.22,-0.60,-0.07,0.93,0.11,0.22,398.00,751.00,209.00,282.00,341.00,718.00,715.00,1004.00,,,,,,,,,,,,0,0,0,,-4640,15596,-756,32,146,-178
13.198,12.93,1.05,-0.16,0.58,-1.33,1.59,0.85,0.89,0.62,-0.15,387.00,771.00,198.00,306.00,336.00,693.00,723.00,994.00,,,,,,,,,,,,0,0,0,,-4700,15428,-632,-83,156,-267
13.28,12.99,1.11,0.61,0.23,1.39,1.83,2.34,-1.04,1.03,-1.02,389.00,755.00,186.00,273.00,363.00,688.00,752.00,1001.00,,,,,,,,,,,,0,0,0,,-4784,15408,-592,-151,16,-269
13.301,13.04,1.06,1.33,-1.03,4.28,-2.58,-0.02,0.80,-1.09,0.68,411.00,759.00,224.00,274.00,343.00,719.00,713.00,1040.00,,,,,,,,,,,,0,0,0,,-4700,15456,-672,-196,-34,-170
13.341,13.10,1.01,-1.00,0.86,6.78,-1.33,0.04,1.50,0.01,0.25,387.00,791.00,200.00,240.00,330.00,704.00,715.00,1007.00,,,,,,,,,,,,0,0,0,,-4640,15496,-612,-242,113,-111
13.402,13.15,1.05,-0.62,0.98,-1.59,3.33,1.84,-0.30,0.81,-0.62,382.00,777.00,181.00,295.00,352.00,688.00,739.00,999.00,,,,,,,,,,,,0,0,0,,-4812,15524,-632,-157,189,-176
13.465,13.21,1.04,0.59,-0.28,2.60,0.17,0.81,-0.01,-0.65,0.35,400.00,766.00,199.00,272.00,353.00,711.00,720.00,1031.00,,,,,,,,,,,,0,0,0,,-4744,15532,-536,-147,128,-133
13.506,13.26,0.95,-0.46,0.07,0.77,-0.03,-0.60,1.60,-1.04,0.82,400.00,791.00,208.00,294.00,332.00,720.00,707.00,1034.00,,,,,,,,,,,,0,0,0,,-4748,15476,-532,-113,159,-85
13.568,13.32,0.96,-1.62,1.31,-4.68,6.65,1.09,-0.05,0.49,-0.49,382.00,801.00,160.00,305.00,352.00,704.00,738.00,1008.00,,,,,,,,,,,,0,0,0,,-4748,15804,-680,-116,286,-135
13.631,13.37,1.00,0.60,-0.15,2.29,0.09,1.72,-0.98,0.24,-0.31,397.00,763.00,201.00,276.00,366.00,704.00,734.00,1013.00,,,,,,,,,,,,0,0,0,,-4712,15396,-688,-242,114,-191
13.715,13.43,0.94,1.66,-1.32,3.59,-3.54,-0.10,0.40,-0.87,0.42,415.00,755.00,239.00,289.00,351.00,729.00,720.00,1038.00,,,,,,,,,,,,0,0,0,,-4832,15356,-452,-189,-60,-93
13.737,13.48,0.93,0.50,-0.39,-1.12,0.43,0.61,0.91,0.39,0.00,403.00,771.00,210.00,313.00,337.00,699.00,720.00,999.00,,,,,,,,,,,,0,0,0,,-4700,15616,-368,-43,204,-87
13.798,13.54,1.00,0.96,0.11,0.89,1.22,2.43,-1.17,1.31,-1.06,389.00,747.00,194.00,283.00,365.00,688.00,750.00,991.00,,,,,,,,,,,,0,0,0,,-4648,15452,-564,-56,279,-131
13.84,13.59,0.96,1.69,-0.97,3.77,-1.82,0.21,0.40,-0.74,0.38,407.00,747.00,217.00,274.00,349.00,720.00,720.00,1034.00,,,,,,,,,,,,0,0,0,,-4716,15516,-752,-48,72,-144
13.902,13.65,0.91,0.05,0.51,0.62,0.20,-0.19,1.57,0.07,0.47,387.00,766.00,206.00,294.00,330.00,709.00,706.00,999.00,,,,,,,,,,,,0,0,0,,-4632,15624,-588,-130,56,-25
14.005,13.70,0.95,0.19,0.85,-1.71,3.89,1.84,-0.15,1.29,-0.59,379.00,755.00,176.00,292.00,349.00,685.00,731.00,979.00,,,,,,,,,,,,0,0,0,,-4744,15560,-392,-98,208,-141
14.025,13.76,0.96,0.96,0.02,3.33,-0.08,1.18,-0.24,-0.14,0.15,391.00,749.00,199.00,266.00,355.00,705.00,721.00,1016.00,,,,,,,,,,,,0,0,0,,-4712,15544,-612,-53,177,-203
14.086,13.81,0.88,0.17,0.14,1.26,-0.10,-0.79,1.77,-0.67,0.82,394.00,770.00,207.00,289.00,330.00,722.00,702.00,1019.00,,,,,,,,,,,,0,0,0,,-4704,15392,-612,-100,21,-158
14.127,13.87,0.87,-0.75,1.07,-2.81,4.26,0.71,0.61,0.63,-0.21,381.00,779.00,176.00,302.00,342.00,702.00,725.00,995.00,,,,,,,,,,,,0,0,0,,-4704,15456,-528,-89,65,-152
14.168,13.92,0.91,0.25,-0.08,-0.10,1.65,1.72,-1.08,0.22,-0.43,398.00,772.00,193.00,291.00,368.00,706.00,739.00,1017.00,,,,,,,,,,,,0,0,0,,-4652,15524,-452,-145,204,-132
14.231,13.98,0.83,0.75,-1.19,3.07,-2.25,-0.77,0.74,-1.41,0.66,419.00,780.00,225.00,285.00,349.00,742.00,718.00,1054.00,,,,,,,,,,,,0,0,0,,-4768,15592,-596,-112,183,-172
14.294,14.03,0.77,-1.00,-0.20,-2.55,1.72,-0.21,0.97,-0.28,0.10,410.00,814.00,201.00,320.00,341.00,721.00,725.00,1023.00,,,,,,,,,,,,0,0,0,,-4704,15608,-552,-69,81,-120
14.377,14.09,0.81,-0.34,0.08,-0.78,2.26,1.53,-1.07,0.51,-1.06,399.00,787.00,189.00,294.00,369.00,711.00,761.00,1023.00,,,,,,,,,,,,0,0,0,,-4604,15516,-440,-75,97,-147
14.398,14.14,0.76,0.68,-1.52,3.99,-2.15,-0.28,0.31,-1.19,0.51,427.00,789.00,220.00,274.00,354.00,736.00,721.00,1049.00,,,,,,,,,,,,0,0,0,,-4548,15780,-580,-86,244,-266
14.44,14.20,0.69,-0.16,0.20,0.27,0.59,-0.54,1.36,-0.51,0.59,395.00,779.00,203.00,295.00,336.00,723.00,709.00,1019.00,,,,,,,,,,,,0,0,0,,-4760,15348,-680,-146,115,-180
14.501,14.25,0.72,-0.29,1.35,-2.49,4.15,1.23,0.06,0.81,-0.47,372.00,759.00,176.00,299.00,349.00,698.00,733.00,995.00,,,,,,,,,,,,0,0,0,,-4712,15460,-376,-81,-50,-106
14.562,14.31,0.73,1.40,-0.13,2.52,0.29,0.94,-0.52,0.12,0.07,391.00,739.00,198.00,272.00,362.00,717.00,721.00,1008.00,,,,,,,,,,,,0,0,0,,-4788,15696,-404,-8,227,-151
14.624,14.36,0.66,0.44,0.38,2.10,-0.57,-0.77,1.49,-0.50,0.79,387.00,757.00,209.00,283.00,335.00,727.00,701.00,1013.00,,,,,,,,,,,,0,0,0,,-4752,15436,-612,-43,260,-110
14.665,14.42,0.64,-0.20,0.79,-1.51,2.22,0.25,0.93,0.18,0.04,383.00,768.00,192.00,303.00,339.00,709.00,721.00,1006.00,,,,,,,,,,,,0,0,0,,-4788,15440,-420,-73,54,-162
14.767,14.47,0.69,0.62,0.32,0.73,1.46,1.67,-1.07,0.68,-0.88,387.00,753.00,192.00,283.00,368.00,707.00,751.00,1011.00,,,,,,,,,,,,0,0,0,,-4808,15568,-464,-44,90,-79
14.788,14.53,0.63,1.17,-0.80,3.35,-1.34,-0.41,0.46,-1.05,0.59,407.00,759.00,213.00,275.00,352.00,737.00,716.00,1041.00,,,,,,,,,,,,0,0,0,,-4704,15580,-388,-58,248,-189
14.828,14.58,0.59,-0.83,0.66,-2.24,2.08,-0.31,1.23,-0.15,0.23,390.00,790.00,196.00,313.00,337.00,719.00,718.00,1014.00,,,,,,,,,,,,0,0,0,,-4640,15488,-652,-55,134,-195
14.89,14.64,0.67,-0.07,0.65,-0.64,3.22,2.28,-1.17,1.05,-0.98,385.00,767.00,179.00,285.00,366.00,692.00,750.00,999.00,,,,,,,,,,,,0,0,0,,-4696,15456,-632,-101,-50,-150
14.952,14.69,0.65,0.55,-0.31,3.12,-0.73,0.35,0.09,-0.70,0.31,401.00,768.00,207.00,273.00,354.00,722.00,722.00,1034.00,,,,,,,,,,,,0,0,0,,-4652,15380,-288,-144,102,-127
15.014,14.75,0.59,-0.75,0.64,0.89,-0.07,-0.72,1.42,-0.35,0.20,390.00,788.00,208.00,293.00,336.00,727.00,722.00,1023.00,,,,,,,,,,,,0,0,0,,-4620,15644,-424,-159,265,-124
15.138,14.80,0.59,-1.00,1.20,-6.18,9.10,0.62,0.48,0.24,-0.23,380.00,784.00,144.00,303.00,345.00,707.00,731.00,1011.00,,,,,,,,,,,,0,0,0,,-4616,15548,-624,-102,183,-132
15.159,14.86,0.60,0.33,-0.42,2.17,0.13,0.76,-0.76,-0.67,-0.13,405.00,777.00,201.00,277.00,368.00,727.00,739.00,1045.00,,,,,,,,,,,,0,0,0,,-4692,15564,-484,-19,87,-129
15.179,14.91,0.51,-0.60,-0.38,0.55,-0.82,-1.08,0.78,-1.47,0.50,411.00,805.00,218.00,303.00,350.00,750.00,725.00,1061.00,,,,,,,,,,,,0,0,0,,-4584,15476,-528,-25,137,-92
15.221,14.97,0.45,-1.68,0.48,-2.82,1.99,-0.79,1.06,-0.64,0.02,400.00,821.00,199.00,321.00,343.00,736.00,733.00,1040.00,,,,,,,,,,,,0,0,0,,-4608,15716,-668,-48,209,-384
15.284,15.02,0.49,-0.24,0.51,-0.75,2.35,1.29,-1.19,0.34,-0.81,389.00,775.00,188.00,293.00,373.00,720.00,753.00,1023.00,,,,,,,,,,,,0,0,0,,-4680,15540,-648,-155,8,-215
15.325,15.08,0.45,1.31,-1.25,3.84,-2.59,-0.36,0.28,-1.54,0.70,416.00,764.00,226.00,279.00,355.00,739.00,718.00,1058.00,,,,,,,,,,,,0,0,0,,-4812,15412,-272,-53,8,-15
15.386,15.13,0.40,-0.79,0.89,-0.69,0.64,-0.54,1.41,-0.20,0.46,385.00,784.00,206.00,306.00,335.00,722.00,710.00,1010.00,,,,,,,,,,,,0,0,0,,-4668,15560,-420,-23,325,-183
15.491,15.19,0.43,0.53,0.49,-1.59,3.33,1.09,0.06,0.50,-0.17,384.00,752.00,181.00,295.00,350.00,702.00,725.00,999.00,,,,,,,,,,,,0,0,0,,-4836,15740,-692,-11,293,-115
15.511,15.24,0.44,1.11,-0.37,3.53,-0.51,0.58,-0.14,-0.39,0.26,398.00,752.00,203.00,267.00,357.00,720.00,720.00,1023.00,,,,,,,,,,,,0,0,0,,-4648,15440,-720,-38,-19,-125
15.553,15.30,0.38,-0.07,0.46,0.99,0.17,-0.82,1.62,-0.57,0.90,389.00,771.00,205.00,290.00,333.00,726.00,698.00,1013.00,,,,,,,,,,,,0,0,0,,-4608,15560,-432,-65,64,-114
15.615,15.35,0.41,-0.80,1.63,-2.49,4.15,1.00,0.09,0.32,0.02,370.00,769.00,176.00,299.00,350.00,704.00,720.00,1001.00,,,,,,,,,,,,0,0,0,,-4752,15560,-672,-64,197,-216
15.677,15.41,0.44,0.77,-0.16,0.84,1.42,0.99,-0.58,-0.40,-0.09,396.00,758.00,192.00,282.00,363.00,717.00,734.00,1033.00,,,,,,,,,,,,0,0,0,,-4760,15428,-756,-79,103,-236
15.739,15.46,0.37,0.12,-0.22,2.14,-0.75,-0.90,0.67,-1.05,0.41,402.00,779.00,211.00,284.00,351.00,747.00,723.00,1046.00,,,,,,,,,,,,0,0,0,,-4760,15492,-472,-115,32,-106
15.802,15.52,0.34,-1.12,0.43,-2.27,1.53,-0.25,0.93,-0.35,0.20,397.00,804.00,202.00,318.00,342.00,723.00,722.00,1023.00,,,,,,,,,,,,0,0,0,,-4664,15524,-492,-134,167,-99
15.843,15.57,0.40,0.38,-0.21,-1.24,2.32,1.61,-1.39,0.42,-0.94,400.00,771.00,190.00,299.00,375.00,715.00,757.00,1023.00,,,,,,,,,,,,0,0,0,,-4672,15616,-456,-192,242,-123
15.904,15.63,0.35,0.81,-1.52,3.53,-2.41,-0.62,0.06,-1.75,0.69,426.00,785.00,225.00,281.00,361.00,751.00,721.00,1067.00,,,,,,,,,,,,0,0,0,,-4748,15676,-520,-137,128,-137
15.944,15.68,0.26,-1.48,0.41,-0.98,0.83,-1.38,1.59,-0.99,0.46,400.00,816.00,205.00,308.00,337.00,743.00,720.00,1042.00,,,,,,,,,,,,0,0,0,,-4724,15472,-516,-53,62,-102
16.006,15.74,0.28,-0.99,0.30,-2.13,3.01,0.49,-0.00,-0.05,-0.53,399.00,803.00,186.00,304.00,355.00,720.00,747.00,1031.00,,,,,,,,,,,,0,0,0,,-4716,15600,-484,-33,194,-12
16.048,15.79,0.27,0.60,-0.88,2.84,-0.73,0.22,-0.48,-1.37,0.41,413.00,778.00,208.00,276.00,366.00,737.00,727.00,1059.00,,,,,,,,,,,,0,0,0,,-4640,15432,-592,-120,197,-339
16.11,15.85,0.18,-0.25,0.09,0.77,-0.03,-1.56,1.70,-1.16,0.86,398.00,784.00,208.00,294.00,336.00,746.00,707.00,1038.00,,,,,,,,,,,,0,0,0,,-4728,15540,-500,-91,-22,-167
16.151,15.90,0.19,-1.93,1.90,-3.13,3.75,0.44,0.43,0.48,-0.36,372.00,798.00,182.00,310.00,347.00,713.00,733.00,1005.00,,,,,,,,,,,,0,0,0,,-4664,15516,-360,26,156,15
16.213,15.96,0.24,0.27,0.44,0.49,1.54,1.07,-0.86,-0.01,-0.30,387.00,761.00,192.00,285.00,368.00,720.00,737.00,1023.00,,,,,,,,,,,,0,0,0,,-4708,15652,-572,-3,364,-178
16.275,16.01,0.18,1.13,-0.74,2.99,-2.15,-0.95,0.79,-1.40,0.60,406.00,759.00,224.00,285.00,349.00,746.00,720.00,1055.00,,,,,,,,,,,,0,0,0,,-4588,15492,-828,-29,146,-155
16.337,16.07,0.15,-0.83,0.71,-3.07,2.36,-0.31,1.17,0.23,0.08,389.00,789.00,196.00,321.00,338.00,720.00,719.00,1003.00,,,,,,,,,,,,0,0,0,,-4648,15476,-512,-103,34,-72
16.399,16.12,0.23,0.05,0.41,-1.26,3.22,1.57,-1.13,0.61,-0.85,389.00,768.00,181.00,292.00,370.00,711.00,751.00,1013.00,,,,,,,,,,,,0,0,0,,-4520,15536,-428,-76,164,-141
16.44,16.18,0.20,1.44,-1.34,4.02,-1.65,-0.32,0.43,-1.04,0.53,417.00,762.00,214.00,270.00,352.00,735.00,718.00,1042.00,,,,,,,,,,,,0,0,0,,-4676,15604,-624,-2,182,-256
16.481,16.23,0.12,-0.71,0.76,0.19,0.71,-1.27,1.83,-1.43,0.61,387.00,784.00,202.00,295.00,332.00,735.00,720.00,1056.00,,,,,,,,,,,,0,0,0,,-4696,15504,-612,12,10,-224
16.584,16.29,0.16,-0.87,0.96,-2.49,4.15,0.86,0.19,0.41,-0.26,384.00,785.00,176.00,299.00,349.00,706.00,730.00,1005.00,,,,,,,,,,,,0,0,0,,-4728,15424,-408,-95,42,-113
16.605,16.34,0.16,0.38,-0.21,2.61,-0.11,0.22,-0.17,-0.90,0.18,400.00,771.00,202.00,274.00,360.00,731.00,730.00,1046.00,,,,,,,,,,,,0,0,0,,-4728,15512,-600,-169,219,-84
16.647,16.40,0.07,-0.83,0.15,0.94,-0.52,-1.78,1.78,-1.72,1.15,401.00,801.00,213.00,296.00,336.00,751.00,703.00,1053.00,,,,,,,,,,,,0,0,0,,-4660,15556,-444,-150,239,-130
16.709,16.45,0.05,-1.77,0.93,-3.50,3.47,-0.32,0.48,-0.83,-0.02,391.00,814.00,186.00,317.00,351.00,734.00,737.00,1049.00,,,,,,,,,,,,0,0,0,,-4660,15544,-556,-117,100,-162
16.77,16.51,0.07,-0.20,-0.87,0.64,-0.34,0.57,-1.04,-0.60,-0.54,419.00,803.00,212.00,298.00,375.00,738.00,755.00,1054.00,,,,,,,,,,,,0,0,0,,-4624,15532,-232,-16,124,-85
16.832,16.56,-0.02,0.17,-2.07,4.12,-4.33,-1.71,0.84,-2.25,0.71,444.00,817.00,247.00,289.00,353.00,768.00,727.00,1088.00,,,,,,,,,,,,0,0,0,,-4740,15724,-644,-26,253,-174
16.873,16.62,-0.05,-1.48,0.00,-1.45,-0.49,-0.74,1.05,-0.69,0.06,409.00,825.00,222.00,325.00,343.00,735.00,732.00,1041.00,,,,,,,,,,,,0,0,0,,-4656,15404,-516,-109,101,-293
16.976,16.67,0.01,0.04,-0.05,0.16,-0.00,1.21,-0.91,0.46,-0.85,399.00,778.00,210.00,301.00,368.00,717.00,753.00,1019.00,,,,,,,,,,,,0,0,0,,-4792,15504,-384,-161,-101,-158
16.996,16.73,0.02,1.00,-0.74,3.36,-1.08,0.17,0.21,-0.98,0.41,407.00,763.00,210.00,273.00,353.00,725.00,722.00,1043.00,,,,,,,,,,,,0,0,0,,-4644,15668,-364,-29,217,-31
17.037,16.78,-0.05,0.09,0.03,1.64,-1.69,-1.34,2.13,-0.76,0.80,397.00,775.00,224.00,297.00,327.00,731.00,704.00,1023.00,,,,,,,,,,,,0,0,0,,-4596,15376,-664,-25,342,-162
17.1,16.84,0.00,-0.50,0.89,-1.40,2.18,0.95,-0.00,0.35,-0.17,383.00,775.00,192.00,302.00,352.00,707.00,727.00,1005.00,,,,,,,,,,,,0,0,0,,-4596,15500,-804,-63,31,-221
17.161,16.89,0.04,1.29,-0.93,3.71,-1.46,0.71,-0.59,-0.72,0.25,409.00,758.00,213.00,272.00,365.00,725.00,725.00,1037.00,,,,,,,,,,,,0,0,0,,-4664,15576,-416,-86,-26,-122
17.202,16.95,-0.04,-0.05,-0.11,2.43,-1.95,-1.39,1.64,-1.40,0.89,401.00,782.00,224.00,290.00,336.00,742.00,709.00,1047.00,,,,,,,,,,,,0,0,0,,-4680,15532,-592,-105,251,-220
17.329,17.00,-0.07,-0.71,0.16,-0.64,0.45,-0.67,1.35,-0.28,0.10,400.00,797.00,208.00,307.00,337.00,727.00,725.00,1023.00,,,,,,,,,,,,0,0,0,,-4748,15656,-756,-7,177,-253
17.349,17.06,-0.01,-0.42,0.20,-0.24,1.98,1.07,-0.91,-0.29,-0.50,397.00,787.00,190.00,290.00,369.00,721.00,749.00,1040.00,,,,,,,,,,,,0,0,0,,-4744,15440,-824,-18,-70,-98
17.37,17.11,-0.07,0.20,-1.18,3.41,-2.37,-1.20,0.78,-1.97,0.74,423.00,797.00,225.00,282.00,351.00,754.00,722.00,1075.00,,,,,,,,,,,,0,0,0,,-4804,15556,-308,-100,93,-52
17.412,17.17,-0.12,-2.12,0.77,1.24,-3.88,-1.03,1.41,-1.24,0.55,397.00,829.00,254.00,320.00,338.00,736.00,720.00,1050.00,,,,,,,,,,,,0,0,0,,-4860,15528,-572,-211,426,-86
17.474,17.22,-0.18,-1.28,0.82,-2.54,3.86,-1.36,2.82,-0.23,-0.60,390.00,801.00,179.00,302.00,315.00,718.00,752.00,1040.00,,,,,,,,,,,,0,0,0,,-4624,15620,-592,-216,285,-81
17.535,17.28,-0.18,-0.16,-0.80,2.21,-0.07,-0.27,-0.21,-1.59,0.36,417.00,800.00,203.00,278.00,364.00,746.00,732.00,1070.00,,,,,,,,,,,,0,0,0,,-4628,15592,-336,-47,106,-113
17.577,17.33,-0.28,-1.48,0.32,-0.40,0.45,-2.07,2.15,-2.03,0.97,402.00,818.00,207.00,304.00,331.00,752.00,714.00,1071.00,,,,,,,,,,,,0,0,0,,-4736,15744,-604,-43,143,-138
17.741,17.39,-0.24,-1.62,1.21,-3.35,4.44,0.53,0.03,0.06,-0.37,384.00,803.00,176.00,307.00,354.00,718.00,739.00,1022.00,,,,,,,,,,,,0,0,0,,-4688,15368,-484,-141,82,-254
17.762,17.44,-0.21,0.93,-0.40,2.01,0.09,0.22,-0.22,-0.68,0.08,400.00,758.00,202.00,279.00,361.00,732.00,731.00,1040.00,,,,,,,,,,,,0,0,0,,-4688,15520,-324,-213,19,-188
17.782,17.50,-0.27,0.09,0.03,1.72,-0.79,-1.32,1.29,-1.21,0.54,397.00,775.00,213.00,289.00,342.00,747.00,720.00,1049.00,,,,,,,,,,,,0,0,0,,-4660,15660,-348,-99,272,-37
17.803,17.55,-0.26,-0.45,0.82,-2.11,2.13,-0.01,0.48,-0.26,0.14,384.00,775.00,195.00,311.00,349.00,725.00,723.00,1021.00,,,,,,,,,,,,0,0,0,,-4568,15584,-460,-53,278,-87
17.864,17.61,-0.19,-0.12,0.57,-0.36,2.02,1.12,-0.93,-0.16,-0.62,387.00,770.00,190.00,291.00,369.00,720.00,752.00,1038.00,,,,,,,,,,,,0,0,0,,-4680,15632,-624,-29,104,-142
17.925,17.66,-0.23,0.71,-1.09,3.63,-2.03,-1.03,0.72,-1.70,0.63,417.00,779.00,220.00,277.00,351.00,750.00,723.00,1067.00,,,,,,,,,,,,0,0,0,,-4636,15532,-428,-22,63,-67
17.987,17.72,-0.26,-1.40,0.71,-0.60,-0.09,-0.90,1.48,-1.06,0.75,393.00,807.00,214.00,311.00,336.00,731.00,710.00,1037.00,,,,,,,,,,,,0,0,0,,-4572,15540,-444,9,139,-186
18.049,17.77,-0.22,-0.79,0.84,-0.38,1.55,0.63,0.16,-0.08,-0.20,386.00,785.00,195.00,295.00,351.00,713.00,734.00,1023.00,,,,,,,,,,,,0,0,0,,-4568,15612,-564,-65,120,-251
18.09,17.83,-0.19,0.42,-0.22,2.97,-0.50,0.31,-0.25,-1.04,0.35,400.00,770.00,205.00,273.00,361.00,730.00,725.00,1047.00,,,,,,,,,,,,0,0,0,,-4796,15512,-492,-77,5,-224
18.137,17.88,-0.28,-0.87,0.35,0.65,0.28,-1.86,2.13,-1.54,0.98,397.00,798.00,205.00,293.00,330.00,746.00,707.00,1050.00,,,,,,,,,,,,0,0,0,,-4640,15488,-528,-143,48,-99
18.198,17.94,-0.25,-1.74,1.30,-3.37,4.34,0.17,0.37,-0.25,-0.24,383.00,805.00,177.00,308.00,350.00,722.00,738.00,1031.00,,,,,,,,,,,,0,0,0,,-4636,15600,-476,-166,226,-118
18.26,17.99,-0.23,-0.54,0.10,1.31,0.61,0.31,-0.61,-1.04,-0.08,400.00,793.00,199.00,283.00,368.00,737.00,742.00,1059.00,,,,,,,,,,,,0,0,0,,-4676,15600,-520,-167,153,-131
18.321,18.05,-0.20,-0.76,-0.28,1.83,-1.59,0.36,-2.07,-2.23,0.78,410.00,808.00,222.00,294.00,398.00,765.00,724.00,1085.00,,,,,,,,,,,,0,0,0,,-4660,15540,-380,-70,82,-108
18.422,18.10,-0.25,-2.35,0.66,-2.70,0.79,-1.21,0.88,-1.55,0.40,401.00,839.00,212.00,330.00,349.00,752.00,730.00,1067.00,,,,,,,,,,,,0,0,0,,-4544,15796,-552,-53,207,-311
18.443,18.16,-0.19,-0.58,0.11,0.22,0.15,0.89,-0.95,-0.11,-0.81,400.00,794.00,208.00,299.00,371.00,727.00,759.00,1041.00,,,,,,,,,,,,0,0,0,,-4768,15364,-416,-122,87,-246
18.485,18.21,-0.24,0.98,-1.05,3.77,-3.29,-1.16,0.81,-1.90,0.74,414.00,770.00,235.00,285.00,350.00,752.00,721.00,1072.00,,,,,,,,,,,,0,0,0,,-4684,15364,-304,-93,-45,-149
18.527,18.27,-0.28,-1.21,1.08,-0.49,0.22,-1.14,1.78,-0.99,0.65,384.00,793.00,210.00,307.00,332.00,732.00,713.00,1037.00,,,,,,,,,,,,0,0,0,,-4672,15644,-316,25,273,-126
18.568,18.32,-0.22,-0.45,1.07,-0.41,1.85,0.95,0.10,0.23,-0.18,379.00,770.00,192.00,293.00,350.00,705.00,729.00,1010.00,,,,,,,,,,,,0,0,0,,-4660,15476,-432,34,268,-107
18.63,18.38,-0.21,0.99,-0.28,3.25,-0.50,-0.05,0.23,-1.85,0.70,397.00,754.00,204.00,270.00,354.00,731.00,722.00,1071.00,,,,,,,,,,,,0,0,0,,-4572,15492,-540,-8,119,-169
18.693,18.43,-0.29,-0.54,0.57,1.34,-0.22,-1.79,2.39,-1.39,1.01,390.00,783.00,208.00,289.00,325.00,739.00,704.00,1043.00,,,,,,,,,,,,0,0,0,,-4724,15608,-440,-100,170,-80
18.797,18.49,-0.28,-1.17,1.36,-2.59,3.57,-0.07,0.82,0.10,-0.29,378.00,786.00,182.00,305.00,343.00,720.00,735.00,1018.00,,,,,,,,,,,,0,0,0,,-4612,15632,-648,-47,240,-198
18.818,18.54,-0.25,-0.12,0.19,1.26,0.81,0.27,-0.34,-0.75,-0.07,395.00,778.00,197.00,282.00,363.00,733.00,738.00,1047.00,,,,,,,,,,,,0,0,0,,-4708,15528,-628,-69,121,-273
18.859,18.60,-0.33,0.39,-0.89,1.91,-1.20,-1.69,1.10,-1.91,0.72,415.00,785.00,217.00,290.00,348.00,762.00,722.00,1073.00,,,,,,,,,,,,0,0,0,,-4760,15408,-452,-145,-43,-167
18.922,18.65,-0.36,-1.56,0.49,-2.49,1.98,-0.93,1.22,-0.93,0.09,399.00,817.00,198.00,317.00,341.00,737.00,734.00,1050.00,,,,,,,,,,,,0,0,0,,-4772,15488,-464,-120,147,-102
18.983,18.71,-0.28,-1.16,0.63,-1.09,1.60,1.07,-0.86,-0.31,-0.69,393.00,801.00,197.00,303.00,368.00,720.00,757.00,1046.00,,,,,,,,,,,,0,0,0,,-4720,15576,-444,-189,238,-148
19.045,18.76,-0.32,0.16,-1.17,3.18,-1.62,-1.02,0.50,-2.22,0.70,423.00,798.00,217.00,279.00,355.00,754.00,727.00,1087.00,,,,,,,,,,,,0,0,0,,-4712,15412,-568,-89,136,-91
19.086,18.82,-0.39,-1.96,0.72,0.28,-0.30,-1.78,1.78,-1.76,0.65,397.00,825.00,213.00,302.00,336.00,751.00,723.00,1069.00,,,,,,,,,,,,0,0,0,,-4612,15424,-224,-80,174,27
19.15,18.87,-0.36,-1.60,0.69,-1.58,1.95,0.22,0.14,-0.53,-0.15,395.00,814.00,195.00,306.00,354.00,725.00,738.00,1040.00,,,,,,,,,,,,0,0,0,,-4612,15800,-468,-108,266,-351
19.213,18.93,-0.36,0.55,-0.27,3.16,-0.66,-0.31,0.06,-1.24,0.37,400.00,767.00,206.00,272.00,359.00,742.00,727.00,1055.00,,,,,,,,,,,,0,0,0,,-4768,15568,-692,-119,-55,-211
19.233,18.98,-0.44,-0.54,0.57,0.93,-0.26,-1.83,1.85,-1.64,1.10,390.00,783.00,210.00,294.00,335.00,751.00,704.00,1051.00,,,,,,,,,,,,0,0,0,,-4688,15528,-184,9,-83,-126
19.295,19.04,-0.42,-2.49,2.00,-2.13,3.01,-0.21,1.03,-0.30,0.21,374.00,814.00,186.00,304.00,340.00,720.00,721.00,1021.00,,,,,,,,,,,,0,0,0,,-4744,15624,-260,16,292,-166
19.336,19.09,-0.36,0.22,0.12,0.15,1.66,0.76,-0.76,-0.54,-0.24,394.00,769.00,192.00,288.00,368.00,727.00,742.00,1043.00,,,,,,,,,,,,0,0,0,,-4672,15504,-568,0,322,-138
19.397,19.15,-0.43,0.90,-0.89,2.21,-1.13,-1.76,1.50,-1.99,0.88,411.00,769.00,215.00,286.00,341.00,756.00,717.00,1072.00,,,,,,,,,,,,0,0,0,,-4668,15604,-532,-44,103,-68
19.459,19.20,-0.47,-1.58,1.25,-3.19,2.78,-1.07,1.48,-0.93,0.44,383.00,801.00,192.00,319.00,337.00,736.00,720.00,1040.00,,,,,,,,,,,,0,0,0,,-4608,15688,-188,-45,109,-120
19.521,19.26,-0.39,-0.37,0.51,-0.33,2.11,1.12,-0.88,-0.27,-0.53,390.00,779.00,189.00,290.00,368.00,719.00,750.00,1040.00,,,,,,,,,,,,0,0,0,,-4604,15616,-452,-45,158,-294
19.583,19.31,-0.45,1.06,-1.08,3.24,-1.98,-1.54,1.42,-1.89,0.77,414.00,768.00,221.00,281.00,341.00,751.00,720.00,1071.00,,,,,,,,,,,,0,0,0,,-4600,15660,-692,-51,29,-303
19.625,19.37,-0.49,-1.04,0.73,0.70,0.08,-1.35,1.74,-1.44,0.77,390.00,795.00,207.00,294.00,334.00,739.00,714.00,1052.00,,,,,,,,,,,,0,0,0,,-4780,15340,-668,-97,44,-271
19.667,19.42,-0.44,-1.34,1.56,-2.70,4.22,0.49,0.31,-0.55,-0.11,375.00,787.00,176.00,301.00,349.00,714.00,737.00,1040.00,,,,,,,,,,,,0,0,0,,-4840,15444,-304,-141,117,-186
19.729,19.48,-0.44,-0.17,-0.03,2.36,0.53,-0.32,0.11,-1.31,0.29,400.00,784.00,196.00,272.00,358.00,741.00,731.00,1060.00,,,,,,,,,,,,0,0,0,,-4752,15460,-404,-197,111,-76
19.79,19.53,-0.51,-1.20,0.32,0.77,-0.03,-1.92,1.93,-2.24,1.25,400.00,809.00,208.00,294.00,334.00,752.00,706.00,1072.00,,,,,,,,,,,,0,0,0,,-4624,15468,-368,-96,100,-6
19.894,19.59,-0.52,-1.98,1.24,1.06,-2.06,-0.69,0.87,-1.25,0.17,386.00,814.00,231.00,307.00,346.00,737.00,735.00,1061.00,,,,,,,,,,,,0,0,0,,-4532,15600,-240,-76,250,42
19.914,19.64,-0.48,-1.08,0.23,-0.33,1.72,0.26,-0.59,-1.06,-0.31,401.00,807.00,193.00,293.00,368.00,738.00,752.00,1067.00,,,,,,,,,,,,0,0,0,,-4696,15596,-568,-105,261,-355
19.955,19.70,-0.53,0.61,-0.74,1.95,-1.38,-1.44,1.12,-1.98,0.80,410.00,775.00,219.00,291.00,346.00,754.00,720.00,1074.00,,,,,,,,,,,,0,0,0,,-4712,15588,-384,-85,-44,-234
20.016,19.75,-0.55,-1.21,1.17,-2.68,2.61,-1.08,1.54,-0.93,0.44,382.00,791.00,192.00,314.00,336.00,735.00,720.00,1040.00,,,,,,,,,,,,0,0,0,,-4784,15524,-288,54,98,-90
20.077,19.81,-0.47,-0.28,1.01,-0.76,2.75,1.16,-0.90,0.31,-0.78,379.00,766.00,184.00,290.00,368.00,718.00,752.00,1023.00,,,,,,,,,,,,0,0,0,,-4748,15500,-512,32,322,-198
20.119,19.86,-0.48,1.35,-0.86,3.55,-1.23,-0.73,0.67,-1.37,0.49,407.00,755.00,211.00,272.00,350.00,742.00,724.00,1057.00,,,,,,,,,,,,0,0,0,,-4720,15536,-736,14,163,-77
20.181,19.92,-0.53,-0.66,0.94,0.15,1.28,-1.42,2.04,-1.16,0.86,383.00,779.00,196.00,291.00,329.00,735.00,707.00,1038.00,,,,,,,,,,,,0,0,0,,-4620,15560,-528,-76,65,-51
20.285,19.97,-0.46,-0.97,1.68,-2.32,4.41,0.86,0.24,0.18,-0.29,370.00,773.00,173.00,295.00,348.00,705.00,734.00,1015.00,,,,,,,,,,,,0,0,0,,-4708,15492,-500,-66,192,-163
20.305,20.03,-0.43,0.14,0.43,3.25,0.05,0.17,0.10,-1.15,0.44,388.00,765.00,198.00,266.00,355.00,727.00,723.00,1049.00,,,,,,,,,,,,0,0,0,,-4656,15508,-592,-14,179,-264
20.346,20.08,-0.52,0.39,0.07,1.45,-0.26,-2.17,2.75,-1.85,1.19,394.00,765.00,208.00,288.00,321.00,743.00,703.00,1057.00,,,,,,,,,,,,0,0,0,,-4716,15544,-496,-37,-38,-211
20.407,20.14,-0.52,-1.30,1.45,-2.77,3.83,-0.52,0.86,-0.87,0.14,377.00,788.00,180.00,305.00,345.00,732.00,731.00,1046.00,,,,,,,,,,,,0,0,0,,-4708,15508,-552,-121,-11,-165
20.491,20.19,-0.45,-0.41,0.38,0.24,1.53,0.71,-0.84,-0.92,-0.31,393.00,783.00,193.00,288.00,370.00,730.00,750.00,1061.00,,,,,,,,,,,,0,0,0,,-4684,15476,-344,-228,151,-125
20.512,20.25,-0.51,0.09,-0.93,3.04,-2.08,-1.67,1.36,-2.43,0.97,418.00,795.00,223.00,284.00,343.00,756.00,719.00,1088.00,,,,,,,,,,,,0,0,0,,-4772,15616,-524,-202,183,-133
20.553,20.30,-0.56,-2.16,0.97,-2.04,1.55,-1.48,1.79,-1.52,0.64,393.00,826.00,201.00,315.00,334.00,742.00,720.00,1059.00,,,,,,,,,,,,0,0,0,,-4628,15548,-396,-32,183,-90
20.615,20.36,-0.51,-1.24,0.57,-2.05,4.00,0.58,-0.70,-0.77,-0.44,395.00,805.00,176.00,295.00,368.00,731.00,753.00,1058.00,,,,,,,,,,,,0,0,0,,-4520,15500,-328,79,239,13
20.678,20.41,-0.51,0.37,-1.15,2.96,-0.77,-0.62,0.27,-1.79,0.58,421.00,791.00,208.00,275.00,357.00,747.00,726.00,1072.00,,,,,,,,,,,,0,0,0,,-4584,15584,-516,51,208,-346
20.739,20.47,-0.58,-0.58,0.58,0.41,0.63,-1.87,2.31,-1.75,1.08,390.00,784.00,202.00,293.00,327.00,743.00,706.00,1056.00,,,,,,,,,,,,0,0,0,,-4764,15472,-728,-67,14,-198
20.801,20.52,-0.55,-0.59,1.60,-2.47,4.25,0.02,1.01,0.09,-0.15,369.00,763.00,175.00,298.00,339.00,714.00,730.00,1015.00,,,,,,,,,,,,0,0,0,,-4728,15376,-272,14,79,-50
20.843,20.58,-0.51,0.74,0.18,2.88,0.74,0.17,0.10,-1.09,0.32,389.00,752.00,192.00,265.00,355.00,727.00,727.00,1050.00,,,,,,,,,,,,0,0,0,,-4716,15688,-608,-39,202,-161
20.927,20.63,-0.57,0.06,0.56,2.14,-0.49,-1.61,1.72,-1.25,0.53,386.00,765.00,208.00,282.00,336.00,747.00,721.00,1051.00,,,,,,,,,,,,0,0,0,,-4612,15556,-664,-71,114,-132
20.989,20.69,-0.52,-0.62,1.12,-2.03,3.48,0.44,-0.25,-0.93,0.44,379.00,774.00,181.00,299.00,360.00,726.00,720.00,1040.00,,,,,,,,,,,,0,0,0,,-4668,15456,-564,-91,58,-73
21.01,20.74,-0.45,0.22,0.40,-0.40,2.73,0.85,-0.79,-0.57,-0.31,388.00,763.00,183.00,286.00,368.00,725.00,745.00,1046.00,,,,,,,,,,,,0,0,0,,-4772,15664,-320,-102,222,-84
21.051,20.80,-0.50,0.71,-0.55,3.37,-1.77,-1.49,1.24,-2.20,0.95,405.00,768.00,218.00,278.00,344.00,753.00,717.00,1079.00,,,,,,,,,,,,0,0,0,,-4740,15568,-576,-41,302,-117
21.134,20.85,-0.52,-1.45,1.16,-2.45,2.63,-0.90,1.48,-1.04,0.61,384.00,799.00,191.00,311.00,336.00,731.00,715.00,1040.00,,,,,,,,,,,,0,0,0,,-4672,15532,-600,-42,105,-141
21.155,20.91,-0.43,-0.62,0.98,-1.51,3.72,1.34,-1.01,-0.32,-0.57,382.00,777.00,177.00,291.00,369.00,715.00,752.00,1043.00,,,,,,,,,,,,0,0,0,,-4780,15412,-548,-60,35,-136
21.217,20.96,-0.43,0.40,-0.54,3.44,-0.93,-0.42,0.67,-1.92,0.88,407.00,777.00,208.00,271.00,348.00,733.00,716.00,1069.00,,,,,,,,,,,,0,0,0,,-4672,15644,-524,-147,121,-120
21.278,21.02,-0.49,-1.20,0.93,-0.05,1.06,-1.75,2.32,-2.03,1.26,387.00,796.00,199.00,295.00,326.00,739.00,703.00,1063.00,,,,,,,,,,,,0,0,0,,-4704,15548,-344,-171,165,-76
21.361,21.07,-0.47,-1.59,1.59,-2.89,4.50,-0.07,0.82,-0.64,0.02,376.00,794.00,174.00,301.00,343.00,720.00,733.00,1040.00,,,,,,,,,,,,0,0,0,,-4664,15492,-296,-91,178,-73
21.382,21.13,-0.47,-0.21,0.08,10.43,-2.09,-0.37,0.39,-1.54,0.24,398.00,783.00,195.00,212.00,353.00,737.00,736.00,1071.00,,,,,,,,,,,,0,0,0,,-4540,15768,-724,-76,150,-293
21.444,21.18,-0.53,-0.37,0.56,1.22,-0.18,-1.63,1.94,-1.84,1.22,389.00,778.00,208.00,290.00,332.00,743.00,702.00,1056.00,,,,,,,,,,,,0,0,0,,-4660,15468,-396,-187,89,-110
21.486,21.24,-0.53,-0.75,1.36,-1.98,2.66,-0.63,1.44,-0.96,0.45,375.00,773.00,189.00,305.00,335.00,724.00,720.00,1041.00,,,,,,,,,,,,0,0,0,,-4616,15424,-288,-48,57,-136
21.568,21.29,-0.45,-0.16,0.96,0.30,2.09,1.08,-0.71,-0.56,-0.21,379.00,763.00,187.00,283.00,365.00,717.00,741.00,1043.00,,,,,,,,,,,,0,0,0,,-4684,15608,-444,-31,183,-210
21.609,21.35,-0.51,1.19,-0.62,3.55,-1.23,-1.74,1.76,-1.96,0.87,403.00,755.00,211.00,272.00,336.00,750.00,717.00,1071.00,,,,,,,,,,,,0,0,0,,-4672,15556,-376,-28,136,-180
21.651,21.40,-0.55,-0.96,0.99,-2.17,2.34,-1.27,2.39,-1.19,0.79,384.00,787.00,193.00,310.00,322.00,724.00,710.00,1041.00,,,,,,,,,,,,0,0,0,,-4656,15356,-408,-29,54,-231
21.732,21.46,-0.46,-0.28,1.20,-0.27,3.20,1.36,-0.61,0.12,-0.49,375.00,762.00,178.00,281.00,361.00,707.00,743.00,1023.00,,,,,,,,,,,,0,0,0,,-4728,15640,-480,-1,97,-158
21.774,21.51,-0.43,1.15,-0.47,3.75,-0.12,0.08,0.40,-1.40,0.70,400.00,753.00,198.00,262.00,350.00,724.00,716.00,1052.00,,,,,,,,,,,,0,0,0,,-4620,15444,-432,-17,182,-228
21.836,21.57,-0.48,-0.92,1.17,0.52,1.25,-1.47,2.57,-1.66,1.13,380.00,782.00,195.00,287.00,320.00,726.00,703.00,1051.00,,,,,,,,,,,,0,0,0,,-4756,15548,-504,-57,134,-223
21.877,21.62,-0.43,-1.10,1.78,-3.40,5.87,0.53,0.78,-0.23,0.03,369.00,775.00,163.00,296.00,340.00,704.00,727.00,1023.00,,,,,,,,,,,,0,0,0,,-4768,15528,-596,-72,24,-141
21.94,21.68,-0.40,0.10,0.40,2.14,0.99,0.17,0.31,-1.38,0.47,389.00,767.00,192.00,271.00,351.00,723.00,725.00,1058.00,,,,,,,,,,,,0,0,0,,-4728,15536,-308,-105,87,-165
22.002,21.73,-0.49,-0.54,0.42,0.76,0.24,-2.07,2.21,-2.06,1.18,393.00,786.00,205.00,292.00,330.00,751.00,706.00,1066.00,,,,,,,,,,,,0,0,0,,-4760,15640,-464,-189,141,-180
22.103,21.79,-0.49,-1.88,1.74,-2.22,3.14,-0.54,1.36,-1.36,0.51,375.00,800.00,185.00,304.00,336.00,723.00,723.00,1056.00,,,,,,,,,,,,0,0,0,,-4624,15540,-464,-56,147,-96
22.123,21.84,-0.42,-0.87,0.49,-0.93,2.61,0.84,-0.84,-1.09,-0.28,394.00,795.00,186.00,293.00,369.00,726.00,751.00,1067.00,,,,,,,,,,,,0,0,0,,-4820,15656,-652,3,242,-172
22.164,21.90,-0.48,0.81,-0.99,2.26,-0.79,-1.54,1.42,-2.13,0.97,414.00,774.00,211.00,283.00,341.00,751.00,715.00,1075.00,,,,,,,,,,,,0,0,0,,-4644,15560,-548,-109,158,-175
22.205,21.95,-0.46,-1.00,1.15,-2.24,2.56,-0.20,1.80,-1.04,0.71,381.00,785.00,191.00,309.00,326.00,705.00,711.00,1037.00,,,,,,,,,,,,0,0,0,,-4744,15312,-392,-82,-20,-128
22.266,22.01,-0.37,0.10,1.17,-3.55,4.61,1.50,-0.55,0.26,-0.51,373.00,751.00,175.00,308.00,359.00,702.00,742.00,1018.00,,,,,,,,,,,,0,0,0,,-4652,15524,-236,-69,204,-97
22.329,22.06,-0.36,1.14,0.14,2.71,0.70,-0.26,1.10,-1.21,0.82,387.00,741.00,193.00,267.00,339.00,720.00,709.00,1041.00,,,,,,,,,,,,0,0,0,,-4736,15436,-464,-121,254,-176
22.431,22.12,-0.42,-0.33,1.32,0.62,1.89,-1.60,3.08,-0.69,0.34,373.00,761.00,188.00,281.00,312.00,720.00,721.00,1033.00,,,,,,,,,,,,0,0,0,,-4672,15652,-424,-90,53,-159
22.451,22.17,-0.36,-0.34,1.77,-2.72,5.76,0.90,0.93,0.26,0.04,364.00,752.00,162.00,289.00,335.00,691.00,720.00,1003.00,,,,,,,,,,,,0,0,0,,-4720,15560,-580,-52,117,-66
22.471,22.23,-0.32,1.10,0.30,3.03,1.08,0.30,0.53,-0.96,0.45,384.00,739.00,188.00,261.00,346.00,715.00,720.00,1041.00,,,,,,,,,,,,0,0,0,,-4696,15536,-492,-24,237,-133
22.533,22.28,-0.38,-0.11,0.81,1.79,-0.37,-1.54,2.42,-1.52,1.14,382.00,765.00,208.00,285.00,323.00,731.00,701.00,1045.00,,,,,,,,,,,,0,0,0,,-4696,15508,-592,14,181,-171
22.595,22.34,-0.37,-0.92,1.37,-2.49,3.53,-0.17,1.23,-0.75,0.36,376.00,778.00,182.00,304.00,336.00,715.00,721.00,1035.00,,,,,,,,,,,,0,0,0,,-4628,15364,-436,-71,32,-160
22.657,22.39,-0.30,-0.33,0.83,-0.42,2.64,1.13,-0.37,-0.68,-0.17,383.00,771.00,184.00,287.00,358.00,709.00,741.00,1047.00,,,,,,,,,,,,0,0,0,,-4664,15536,-504,-157,108,-157
22.699,22.45,-0.35,0.08,-0.25,2.64,-0.84,-1.33,1.46,-2.58,1.36,403.00,781.00,210.00,279.00,339.00,744.00,706.00,1083.00,,,,,,,,,,,,0,0,0,,-4652,15572,-452,-188,150,-151
22.76,22.50,-0.37,-1.66,1.18,-2.05,2.40,-0.84,1.96,-1.41,0.76,385.00,805.00,192.00,308.00,327.00,720.00,714.00,1051.00,,,,,,,,,,,,0,0,0,,-4712,15500,-380,-117,107,-129
22.821,22.56,-0.28,-0.71,0.91,-1.37,3.78,1.45,-0.64,-0.29,-0.58,384.00,781.00,176.00,289.00,361.00,705.00,752.00,1042.00,,,,,,,,,,,,0,0,0,,-4564,15544,-532,-26,138,-39
22.883,22.61,-0.30,1.19,-2.03,2.44,0.41,-0.67,1.29,-1.61,0.70,435.00,784.00,197.00,272.00,338.00,728.00,719.00,1061.00,,,,,,,,,,,,0,0,0,,-4660,15616,-488,-109,166,-346
22.925,22.67,-0.35,-0.20,1.03,0.32,1.41,-1.24,2.55,-1.33,1.07,378.00,763.00,194.00,288.00,319.00,720.00,701.00,1039.00,,,,,,,,,,,,0,0,0,,-4708,15528,-420,-98,0,-195
22.968,22.72,-0.26,-0.38,1.84,-1.92,4.71,1.47,0.68,-0.02,0.27,363.00,752.00,169.00,288.00,336.00,680.00,715.00,1008.00,,,,,,,,,,,,0,0,0,,-4680,15484,-320,-16,92,-39
23.071,22.78,-0.21,1.57,0.53,4.18,0.69,0.76,0.54,-0.90,0.43,376.00,721.00,188.00,252.00,343.00,702.00,720.00,1039.00,,,,,,,,,,,,0,0,0,,-4760,15616,-388,-23,284,-182
23.092,22.83,-0.26,0.06,1.29,2.77,-0.07,-1.30,2.63,-1.82,1.58,371.00,750.00,201.00,272.00,318.00,720.00,688.00,1045.00,,,,,,,,,,,,0,0,0,,-4648,15532,-648,-24,140,-121
23.154,22.89,-0.25,-0.46,1.71,-1.57,3.43,-0.01,1.57,-0.53,0.54,366.00,757.00,180.00,294.00,329.00,704.00,711.00,1021.00,,,,,,,,,,,,0,0,0,,-4716,15436,-264,-68,40,-122
23.195,22.94,-0.16,0.10,1.12,0.56,2.51,1.50,-0.40,-0.17,-0.07,374.00,752.00,182.00,277.00,356.00,699.00,730.00,1023.00,,,,,,,,,,,,0,0,0,,-4644,15512,-340,-109,190,-94
23.258,23.00,-0.22,1.07,-0.30,4.08,-2.01,-1.33,1.95,-1.80,1.13,397.00,752.00,218.00,272.00,330.00,734.00,705.00,1057.00,,,,,,,,,,,,0,0,0,,-4648,15632,-548,-3,204,-175
23.298,23.05,-0.25,-1.39,1.77,-2.35,3.08,-0.87,2.31,-0.82,0.90,371.00,784.00,186.00,306.00,321.00,714.00,701.00,1023.00,,,,,,,,,,,,0,0,0,,-4760,15472,-536,-8,59,-182
23.359,23.11,-0.18,-0.50,1.43,-1.40,4.21,1.18,0.08,-0.27,-0.21,372.00,764.00,172.00,286.00,349.00,699.00,737.00,1031.00,,,,,,,,,,,,0,0,0,,-4672,15420,-536,-64,-23,-149
23.42,23.16,-0.19,1.02,-0.47,3.99,-0.48,-0.31,1.17,-1.45,0.85,401.00,757.00,201.00,262.00,338.00,720.00,711.00,1050.00,,,,,,,,,,,,0,0,0,,-4696,15428,-384,-172,131,-117
23.482,23.22,-0.24,-0.71,0.91,0.55,1.33,-1.24,2.49,-1.59,1.24,384.00,781.00,194.00,286.00,320.00,721.00,698.00,1045.00,,,,,,,,,,,,0,0,0,,-4588,15544,-412,-263,185,-178
23.583,23.27,-0.19,-1.57,2.03,-2.18,4.58,0.71,0.94,-0.35,0.20,367.00,784.00,171.00,292.00,336.00,696.00,722.00,1023.00,,,,,,,,,,,,0,0,0,,-4676,15488,-392,-157,54,-96
23.604,23.33,-0.18,0.01,0.48,2.26,0.95,0.07,0.61,-1.58,0.66,388.00,768.00,192.00,270.00,346.00,720.00,720.00,1061.00,,,,,,,,,,,,0,0,0,,-4664,15472,-256,-54,114,-95
23.645,23.38,-0.25,-0.96,0.85,1.08,0.68,-1.66,2.29,-1.96,1.36,387.00,790.00,199.00,285.00,326.00,737.00,698.00,1057.00,,,,,,,,,,,,0,0,0,,-4724,15752,-536,22,272,-345
23.686,23.44,-0.25,-1.10,1.83,-2.56,3.76,-0.17,1.23,-1.12,0.69,368.00,774.00,180.00,303.00,336.00,715.00,713.00,1041.00,,,,,,,,,,,,0,0,0,,-4800,15424,-664,-47,90,-174
23.746,23.49,-0.17,0.24,1.08,0.68,2.07,1.27,-0.32,-0.75,0.28,374.00,749.00,186.00,279.00,356.00,704.00,724.00,1037.00,,,,,,,,,,,,0,0,0,,-4840,15356,-372,1,16,-47
23.809,23.55,-0.22,0.79,0.26,3.11,-1.26,-1.17,1.63,-1.80,1.13,387.00,749.00,213.00,277.00,335.00,736.00,705.00,1057.00,,,,,,,,,,,,0,0,0,,-4696,15636,-212,-2,305,-164
23.85,23.60,-0.25,-0.89,1.76,-2.40,3.40,-0.69,2.25,-0.59,0.77,368.00,769.00,183.00,304.00,321.00,710.00,703.00,1017.00,,,,,,,,,,,,0,0,0,,-4796,15544,-644,-7,245,-97
23.932,23.66,-0.17,0.10,1.37,-0.29,3.62,1.28,0.21,0.05,-0.09,369.00,747.00,174.00,278.00,346.00,694.00,728.00,1015.00,,,,,,,,,,,,0,0,0,,-4688,15492,-420,-14,58,-170
23.974,23.71,-0.18,0.83,0.15,4.37,-0.61,-0.40,1.31,-1.45,1.03,389.00,750.00,201.00,259.00,336.00,720.00,704.00,1045.00,,,,,,,,,,,,0,0,0,,-4788,15612,-400,-31,129,-117
24.035,23.77,-0.23,-0.50,1.63,0.35,1.88,-1.09,2.79,-1.46,1.33,368.00,760.00,189.00,284.00,314.00,711.00,693.00,1037.00,,,,,,,,,,,,0,0,0,,-4696,15544,-664,-31,248,-163
24.097,23.82,-0.17,-0.78,2.17,-2.40,5.43,0.90,0.93,0.03,0.12,359.00,757.00,164.00,288.00,335.00,691.00,720.00,1010.00,,,,,,,,,,,,0,0,0,,-4632,15556,-624,22,116,-214
24.178,23.88,-0.17,1.02,0.52,3.50,0.53,-0.12,1.00,-1.12,0.51,380.00,737.00,192.00,260.00,340.00,718.00,720.00,1046.00,,,,,,,,,,,,0,0,0,,-4692,15504,-480,-39,23,-170
24.199,23.93,-0.22,-0.24,0.85,1.31,0.61,-1.13,2.75,-1.78,1.62,382.00,768.00,199.00,283.00,315.00,713.00,686.00,1042.00,,,,,,,,,,,,0,0,0,,-4704,15520,-464,-104,140,-131
24.239,23.99,-0.23,-1.31,1.90,-9.38,6.57,-0.51,1.62,-0.96,0.45,368.00,779.00,175.00,368.00,331.00,717.00,720.00,1041.00,,,,,,,,,,,,0,0,0,,-4668,15560,-564,-142,196,-161
24.3,24.04,-0.18,-0.58,1.11,0.15,2.04,0.76,-0.41,-0.92,0.11,379.00,773.00,188.00,285.00,361.00,720.00,733.00,1049.00,,,,,,,,,,,,0,0,0,,-4732,15556,-572,-81,109,-101
24.361,24.10,-0.27,0.11,-0.44,2.41,-1.02,-1.88,1.98,-2.24,0.94,407.00,784.00,213.00,283.00,333.00,750.00,718.00,1081.00,,,,,,,,,,,,0,0,0,,-4668,15408,-392,14,87,-51
24.424,24.15,-0.28,-2.24,1.71,-2.56,3.16,-0.64,1.50,-1.44,0.77,378.00,812.00,186.00,308.00,334.00,723.00,714.00,1052.00,,,,,,,,,,,,0,0,0,,-4708,15748,-444,-11,253,-117
24.486,24.21,-0.21,-0.83,1.05,-1.75,3.69,1.27,-0.32,-0.45,-0.37,382.00,782.00,178.00,294.00,356.00,704.00,746.00,1043.00,,,,,,,,,,,,0,0,0,,-4692,15268,-476,-122,188,-281
24.527,24.26,-0.23,1.24,-0.50,3.53,-0.51,-0.72,1.42,-2.10,1.25,400.00,751.00,203.00,267.00,336.00,727.00,704.00,1066.00,,,,,,,,,,,,0,0,0,,-4816,15456,-452,-159,-93,-169
24.588,24.32,-0.29,-0.42,1.55,0.18,1.74,-1.40,2.84,-1.46,1.33,369.00,759.00,191.00,287.00,315.00,719.00,693.00,1037.00,,,,,,,,,,,,0,0,0,,-4820,15624,-332,-22,194,-95
24.67,24.37,-0.23,-0.65,2.24,-1.96,5.17,0.94,1.03,-0.34,0.48,357.00,752.00,165.00,285.00,333.00,688.00,711.00,1015.00,,,,,,,,,,,,0,0,0,,-4708,15448,-424,-68,290,-210
24.691,24.43,-0.23,1.37,0.30,2.71,0.99,-0.16,0.96,-1.28,0.74,382.00,731.00,190.00,265.00,341.00,720.00,713.00,1046.00,,,,,,,,,,,,0,0,0,,-4704,15588,-728,-58,108,-150
24.733,24.48,-0.29,-0.24,1.39,1.26,0.81,-1.51,2.59,-1.68,1.59,371.00,757.00,197.00,282.00,320.00,727.00,686.00,1039.00,,,,,,,,,,,,0,0,0,,-4708,15588,-364,-108,57,-67
24.794,24.54,-0.27,-1.30,2.51,-2.27,4.08,0.19,1.28,-0.37,0.41,356.00,766.00,176.00,297.00,333.00,704.00,714.00,1018.00,,,,,,,,,,,,0,0,0,,-4596,15512,-616,-101,210,-169
24.857,24.59,-0.21,0.02,1.00,-0.03,2.70,0.90,-0.04,-1.15,0.52,377.00,757.00,182.00,282.00,353.00,709.00,720.00,1047.00,,,,,,,,,,,,0,0,0,,-4724,15568,-580,-65,180,-209
24.919,24.65,-0.27,0.18,0.32,3.36,-1.08,-1.49,1.84,-2.18,1.23,390.00,766.00,210.00,273.00,333.00,741.00,706.00,1070.00,,,,,,,,,,,,0,0,0,,-4684,15432,-488,-76,10,-196
24.961,24.70,-0.30,-1.29,1.10,-2.95,2.89,-0.89,2.03,-1.02,0.58,384.00,795.00,190.00,315.00,326.00,720.00,716.00,1040.00,,,,,,,,,,,,0,0,0,,-4748,15496,-424,-123,58,-111
25.024,24.76,-0.23,-0.63,1.27,-1.15,3.70,1.18,-0.44,-0.57,-0.31,376.00,771.00,176.00,287.00,359.00,709.00,745.00,1046.00,,,,,,,,,,,,0,0,0,,-4784,15520,-412,-182,209,-85
25.065,24.81,-0.29,0.93,-0.53,3.51,-1.30,-1.43,1.66,-2.28,1.13,403.00,761.00,212.00,273.00,336.00,743.00,711.00,1077.00,,,,,,,,,,,,0,0,0,,-4724,15524,-400,-128,201,-136
25.127,24.87,-0.36,-1.83,1.63,-1.81,2.41,-1.68,2.53,-1.72,1.07,377.00,801.00,191.00,305.00,322.00,733.00,706.00,1055.00,,,,,,,,,,,,0,0,0,,-4792,15592,-480,-66,88,-117
25.168,24.92,-0.30,-1.81,1.91,-2.47,4.25,0.81,0.36,-1.65,0.58,371.00,794.00,175.00,298.00,346.00,704.00,724.00,1066.00,,,,,,,,,,,,0,0,0,,-4712,15516,-292,-32,127,-115
25.229,24.98,-0.31,-0.29,0.39,1.90,1.07,-0.56,0.77,-1.92,0.78,392.00,779.00,192.00,273.00,347.00,735.00,720.00,1072.00,,,,,,,,,,,,0,0,0,,-4672,15800,-744,-43,290,-279
25.29,25.03,-0.39,-0.87,0.96,0.35,0.47,-1.90,2.54,-2.07,1.45,384.00,785.00,204.00,295.00,323.00,739.00,696.00,1059.00,,,,,,,,,,,,0,0,0,,-4712,15500,-604,-160,101,-195
25.332,25.09,-0.38,-1.12,2.29,-3.03,4.33,-0.17,1.23,-0.50,0.43,359.00,765.00,176.00,304.00,336.00,715.00,715.00,1023.00,,,,,,,,,,,,0,0,0,,-4712,15412,-260,-75,20,-95
25.394,25.14,-0.35,0.10,1.17,1.22,1.39,0.31,0.27,-0.97,0.43,373.00,751.00,191.00,278.00,351.00,720.00,721.00,1042.00,,,,,,,,,,,,0,0,0,,-4572,15620,-424,37,282,-129
25.455,25.20,-0.41,0.61,0.13,1.22,-0.18,-1.63,1.94,-2.09,1.20,391.00,757.00,208.00,290.00,332.00,743.00,706.00,1067.00,,,,,,,,,,,,0,0,0,,-4652,15464,-584,15,282,-73
25.517,25.25,-0.44,-1.35,1.71,-3.77,3.86,-0.94,2.05,-1.15,0.80,372.00,784.00,183.00,317.00,326.00,721.00,709.00,1039.00,,,,,,,,,,,,0,0,0,,-4660,15596,-616,2,106,-175
25.578,25.31,-0.39,-2.56,1.87,-1.10,3.37,0.58,-0.14,-0.64,-0.06,377.00,819.00,179.00,289.00,357.00,720.00,736.00,1042.00,,,,,,,,,,,,0,0,0,,-4704,15488,-404,-85,72,-37
25.62,25.36,-0.44,0.97,-0.46,3.30,-1.41,-1.37,1.36,-2.08,1.01,401.00,758.00,214.00,276.00,341.00,747.00,713.00,1072.00,,,,,,,,,,,,0,0,0,,-4584,15528,-400,-21,80,-164
25.703,25.42,-0.50,-1.55,1.73,-2.26,2.47,-1.73,2.60,-1.39,1.01,373.00,790.00,192.00,310.00,321.00,733.00,704.00,1043.00,,,,,,,,,,,,0,0,0,,-4676,15532,-696,-10,-8,-299
25.766,25.47,-0.48,-0.80,1.68,-2.66,4.52,-0.03,1.08,-0.93,0.44,369.00,768.00,173.00,298.00,338.00,714.00,720.00,1040.00,,,,,,,,,,,,0,0,0,,-4656,15484,-504,-15,-43,-258
25.787,25.53,-0.49,0.01,0.52,2.02,1.03,-0.70,1.03,-1.68,0.77,387.00,767.00,192.00,272.00,343.00,734.00,717.00,1062.00,,,,,,,,,,,,0,0,0,,-4824,15548,-440,-135,95,-180
25.828,25.58,-0.60,-1.17,1.21,0.19,0.71,-2.63,3.08,-2.54,1.72,381.00,789.00,202.00,295.00,318.00,750.00,692.00,1071.00,,,,,,,,,,,,0,0,0,,-4656,15608,-360,-137,236,-141
25.89,25.64,-0.59,-1.98,2.17,-4.09,5.66,-0.45,1.38,-0.88,0.40,367.00,794.00,167.00,306.00,335.00,720.00,721.00,1039.00,,,,,,,,,,,,0,0,0,,-4700,15444,-440,4,222,-224
25.952,25.69,-0.58,-0.41,0.57,0.69,1.38,-0.50,0.43,-1.70,0.45,389.00,779.00,193.00,284.00,353.00,740.00,730.00,1072.00,,,,,,,,,,,,0,0,0,,-4688,15512,-588,212,59,-250
26.012,25.75,-0.68,-1.12,0.43,0.66,0.01,-2.42,1.94,-2.55,1.12,397.00,804.00,208.00,295.00,337.00,767.00,715.00,1089.00,,,,,,,,,,,,0,0,0,,-4788,15708,-816,161,67,-261
26.053,25.80,-0.71,-1.66,1.23,-3.77,3.17,-1.37,1.91,-1.42,0.63,384.00,804.00,190.00,323.00,331.00,736.00,719.00,1055.00,,,,,,,,,,,,0,0,0,,-4784,15312,-460,-82,48,-254
26.136,25.86,-0.66,-0.67,1.53,-2.30,3.88,0.31,-0.05,-0.84,-0.04,371.00,767.00,178.00,299.00,357.00,726.00,738.00,1050.00,,,,,,,,,,,,0,0,0,,-4772,15440,-624,-230,62,-80
26.156,25.91,-0.73,0.68,-0.31,1.91,-0.68,-2.03,1.69,-2.56,1.41,400.00,764.00,211.00,286.00,339.00,760.00,704.00,1081.00,,,,,,,,,,,,0,0,0,,-4684,15604,-388,-255,312,-39
26.239,25.97,-0.80,-1.72,1.89,-2.05,2.40,-2.08,2.72,-1.66,1.13,371.00,792.00,192.00,308.00,321.00,741.00,703.00,1051.00,,,,,,,,,,,,0,0,0,,-4704,15628,-468,-36,379,-4
26.279,26.02,-0.77,-0.59,1.60,-2.07,4.54,-0.21,1.03,-0.89,0.28,369.00,763.00,171.00,291.00,340.00,720.00,726.00,1043.00,,,,,,,,,,,,0,0,0,,-4720,15536,-608,49,181,-209
26.322,26.08,-0.78,0.49,0.51,2.44,0.41,-1.02,1.25,-1.66,0.74,384.00,753.00,197.00,272.00,341.00,739.00,718.00,1062.00,,,,,,,,,,,,0,0,0,,-4728,15548,-580,-11,83,-133
26.383,26.13,-0.87,-0.96,1.28,-0.88,1.53,-2.68,3.09,-2.32,1.75,378.00,781.00,197.00,301.00,318.00,751.00,688.00,1061.00,,,,,,,,,,,,0,0,0,,-4640,15564,-552,-53,121,-220
26.444,26.19,-0.86,-1.57,2.19,-3.62,4.96,-0.58,1.37,-0.89,0.38,364.00,781.00,172.00,306.00,336.00,724.00,722.00,1040.00,,,,,,,,,,,,0,0,0,,-4764,15456,-688,-49,129,-212
26.507,26.24,-0.87,-0.11,0.66,0.78,1.25,-1.07,0.73,-1.79,0.58,385.00,768.00,194.00,284.00,351.00,751.00,726.00,1072.00,,,,,,,,,,,,0,0,0,,-4760,15456,-556,-124,58,-124
26.568,26.30,-0.94,-0.71,0.67,0.10,0.47,-2.30,1.95,-2.32,0.99,389.00,786.00,205.00,298.00,336.00,763.00,717.00,1083.00,,,,,,,,,,,,0,0,0,,-4764,15516,-352,-147,202,-125
26.611,26.35,-0.97,-1.78,1.42,-3.48,2.98,-1.52,1.69,-1.81,0.71,381.00,804.00,191.00,321.00,336.00,745.00,721.00,1069.00,,,,,,,,,,,,0,0,0,,-4660,15560,-444,-182,199,-145
26.672,26.41,-0.94,-1.00,0.96,-1.87,2.63,-0.35,-0.39,-1.59,0.11,385.00,789.00,189.00,304.00,368.00,752.00,742.00,1077.00,,,,,,,,,,,,0,0,0,,-4744,15436,-500,-63,127,-128
26.755,26.46,-1.02,-0.31,-0.48,1.21,-1.30,-2.48,1.63,-2.57,0.64,411.00,798.00,221.00,299.00,343.00,775.00,734.00,1104.00,,,,,,,,,,,,0,0,0,,-4596,15664,-460,24,196,-192
26.776,26.52,-1.07,-2.02,1.40,-3.55,2.62,-2.01,1.96,-1.96,1.18,383.00,812.00,195.00,325.00,334.00,754.00,705.00,1062.00,,,,,,,,,,,,0,0,0,,-4740,15500,-680,-147,80,-237
26.901,26.57,-1.02,-1.02,1.95,-3.03,4.33,-0.06,0.71,-0.86,0.17,365.00,769.00,176.00,304.00,345.00,722.00,730.00,1045.00,,,,,,,,,,,,0,0,0,,-4780,15396,-448,-91,15,-175
26.921,26.63,-1.02,0.40,0.54,1.95,0.86,-1.04,0.88,-1.97,0.92,384.00,755.00,194.00,274.00,348.00,747.00,715.00,1070.00,,,,,,,,,,,,0,0,0,,-4736,15532,-384,16,246,-134
26.942,26.68,-1.10,-0.59,1.50,0.62,0.84,-2.73,3.17,-2.11,1.68,371.00,765.00,199.00,289.00,317.00,751.00,688.00,1054.00,,,,,,,,,,,,0,0,0,,-4780,15436,-452,-15,282,-164
27.023,26.74,-1.07,-0.87,2.36,-3.98,5.73,-0.54,1.30,-1.01,0.52,356.00,756.00,166.00,304.00,337.00,724.00,718.00,1041.00,,,,,,,,,,,,0,0,0,,-4800,15516,-472,-2,71,-205
27.044,26.79,-1.09,0.36,0.89,1.02,1.56,-1.47,1.62,-1.62,0.67,377.00,749.00,190.00,279.00,337.00,745.00,720.00,1062.00,,,,,,,,,,,,0,0,0,,-4812,15576,-504,-79,67,-82
27.105,26.85,-1.15,-1.54,1.48,1.01,-0.37,-2.31,2.06,-2.27,1.36,378.00,795.00,211.00,294.00,334.00,761.00,702.00,1070.00,,,,,,,,,,,,0,0,0,,-4720,15600,-576,-82,186,-144
27.146,26.90,-1.18,-1.09,1.33,-3.30,3.40,-1.71,1.92,-1.37,0.59,378.00,784.00,186.00,315.00,333.00,746.00,720.00,1054.00,,,,,,,,,,,,0,0,0,,-4752,15548,-648,-85,137,-179
27.227,26.96,-1.14,-0.62,0.93,-0.63,1.92,-0.27,-0.26,-1.36,0.06,383.00,778.00,192.00,295.00,365.00,747.00,741.00,1069.00,,,,,,,,,,,,0,0,0,,-4800,15488,-604,-69,14,-166
27.269,27.01,-1.21,-0.13,-0.04,-0.18,-0.24,-2.66,1.80,-3.02,1.30,400.00,783.00,214.00,307.00,341.00,777.00,714.00,1104.00,,,,,,,,,,,,0,0,0,,-4860,15404,-392,-122,80,-149
27.31,27.07,-1.27,-2.40,1.77,-3.48,2.98,-2.31,2.45,-2.15,1.11,378.00,816.00,191.00,321.00,327.00,753.00,710.00,1072.00,,,,,,,,,,,,0,0,0,,-4660,15520,-480,-131,185,-128
27.372,27.12,-1.22,-1.80,1.76,-3.03,4.33,-0.27,-0.06,-1.28,-0.17,374.00,797.00,176.00,304.00,361.00,743.00,749.00,1072.00,,,,,,,,,,,,0,0,0,,-4844,15408,-376,-90,136,-97
27.434,27.18,-1.25,-1.25,1.24,1.58,0.33,-1.78,1.23,-3.11,2.02,381.00,791.00,201.00,282.00,346.00,762.00,688.00,1087.00,,,,,,,,,,,,0,0,0,,-4652,15852,-672,-75,230,-210
27.537,27.23,-1.32,-1.21,1.22,-0.96,1.28,-2.63,2.73,-2.40,1.51,381.00,790.00,200.00,304.00,324.00,757.00,698.00,1071.00,,,,,,,,,,,,0,0,0,,-4664,15376,-600,-153,94,-224
27.558,27.29,-1.27,-1.03,2.26,-3.98,5.73,-0.35,1.24,-0.93,0.44,359.00,763.00,166.00,304.00,337.00,720.00,720.00,1040.00,,,,,,,,,,,,0,0,0,,-4872,15440,-256,-83,-32,-93
27.6,27.34,-1.25,0.71,0.58,1.85,1.28,-0.95,0.74,-1.73,0.74,381.00,745.00,190.00,272.00,350.00,747.00,719.00,1065.00,,,,,,,,,,,,0,0,0,,-4688,15620,-472,-30,253,-175
27.664,27.40,-1.33,-0.37,1.23,0.41,0.63,-2.83,2.97,-2.52,1.76,375.00,764.00,202.00,293.00,321.00,758.00,690.00,1069.00,,,,,,,,,,,,0,0,0,,-4652,15380,-624,-64,208,-149
27.706,27.45,-1.34,-1.15,1.89,-3.18,4.07,-1.62,1.83,-1.69,0.85,367.00,774.00,179.00,308.00,334.00,745.00,714.00,1060.00,,,,,,,,,,,,0,0,0,,-4728,15584,-504,-62,-1,-174
27.767,27.51,-1.27,-0.50,1.48,-0.97,2.92,0.04,-0.32,-1.45,0.29,371.00,763.00,183.00,291.00,364.00,739.00,733.00,1066.00,,,,,,,,,,,,0,0,0,,-4732,15508,-388,-125,113,-80
27.829,27.56,-1.35,0.38,-0.07,2.72,-0.95,-2.68,2.02,-2.90,1.49,397.00,768.00,211.00,279.00,337.00,773.00,705.00,1093.00,,,,,,,,,,,,0,0,0,,-4716,15540,-580,-105,245,-131
27.892,27.62,-1.40,-2.17,1.99,-3.09,2.75,-2.37,2.59,-1.97,1.13,372.00,804.00,192.00,318.00,325.00,752.00,707.00,1064.00,,,,,,,,,,,,0,0,0,,-4776,15500,-552,-80,116,-172
27.974,27.67,-1.32,-1.22,1.77,-2.36,4.21,0.18,-0.31,-1.01,-0.01,370.00,779.00,175.00,297.00,363.00,735.00,739.00,1056.00,,,,,,,,,,,,0,0,0,,-4752,15432,-528,-106,-1,-145
27.994,27.73,-1.35,0.12,-0.12,2.53,-0.53,-1.87,1.32,-2.44,0.95,400.00,777.00,207.00,278.00,345.00,763.00,720.00,1089.00,,,,,,,,,,,,0,0,0,,-4896,15604,-492,-141,122,-112
28.035,27.78,-1.42,-1.51,1.62,-0.88,1.53,-2.92,3.06,-2.39,1.30,375.00,791.00,197.00,301.00,320.00,759.00,706.00,1077.00,,,,,,,,,,,,0,0,0,,-4792,15616,-384,-164,177,-151
28.098,27.84,-1.38,-1.90,2.25,-3.98,5.73,-0.52,0.97,-1.32,0.45,365.00,790.00,166.00,304.00,343.00,730.00,725.00,1056.00,,,,,,,,,,,,0,0,0,,-4800,15476,-504,-49,144,-55
28.181,27.89,-1.35,-0.46,0.44,1.55,1.19,-0.89,0.41,-2.33,0.86,392.00,783.00,192.00,276.00,356.00,752.00,722.00,1087.00,,,,,,,,,,,,0,0,0,,-4656,15632,-424,-45,221,-154
28.202,27.95,-1.44,-0.62,0.64,-0.71,1.66,-3.12,3.01,-2.95,1.78,389.00,784.00,195.00,298.00,322.00,766.00,695.00,1087.00,,,,,,,,,,,,0,0,0,,-4828,15432,-612,-116,153,-229
28.264,28.00,-1.44,-1.42,2.44,-3.23,4.51,-1.30,1.61,-1.65,0.68,358.00,771.00,175.00,305.00,336.00,740.00,720.00,1063.00,,,,,,,,,,,,0,0,0,,-4808,15392,-468,-107,-5,-100
28.367,28.06,-1.39,-0.58,1.35,-0.42,2.64,-0.45,0.21,-1.66,0.64,374.00,768.00,184.00,287.00,357.00,743.00,722.00,1065.00,,,,,,,,,,,,0,0,0,,-4704,15632,-384,-125,172,-135
28.388,28.11,-1.44,0.31,0.19,1.80,-0.64,-2.50,1.91,-2.78,1.45,392.00,765.00,211.00,287.00,338.00,770.00,705.00,1089.00,,,,,,,,,,,,0,0,0,,-4676,15344,-524,-78,234,-224
28.428,28.17,-1.46,-1.52,1.97,-3.52,3.38,-1.83,1.85,-1.76,0.85,368.00,784.00,187.00,318.00,335.00,751.00,715.00,1063.00,,,,,,,,,,,,0,0,0,,-4764,15616,-524,8,76,-171
28.49,28.22,-1.37,-0.41,1.35,-1.15,3.70,0.31,-0.41,-1.14,-0.07,373.00,763.00,176.00,287.00,364.00,733.00,743.00,1063.00,,,,,,,,,,,,0,0,0,,-4696,15516,-360,-57,129,-111
28.552,28.28,-1.42,0.94,-0.35,3.09,-0.54,-2.23,1.65,-2.58,1.13,399.00,757.00,205.00,272.00,341.00,767.00,715.00,1090.00,,,,,,,,,,,,0,0,0,,-4628,15564,-440,-92,234,-144
28.613,28.33,-1.47,-1.39,1.77,-1.59,2.83,-2.57,2.88,-2.38,1.45,371.00,784.00,186.00,299.00,321.00,752.00,700.00,1072.00,,,,,,,,,,,,0,0,0,,-4708,15568,-532,-52,112,-195
28.716,28.39,-1.41,-1.44,2.04,0.03,4.39,-0.24,0.56,-1.43,0.61,366.00,780.00,166.00,269.00,349.00,730.00,720.00,1056.00,,,,,,,,,,,,0,0,0,,-4700,15388,-572,-46,-110,-169
28.737,28.44,-1.41,-0.11,0.71,1.90,1.07,-1.39,1.10,-2.25,1.02,384.00,767.00,192.00,273.00,346.00,753.00,715.00,1079.00,,,,,,,,,,,,0,0,0,,-4716,15576,-400,-123,6,-133
28.777,28.50,-1.49,-1.13,1.24,-4.85,8.65,-3.06,3.16,-2.83,1.73,380.00,787.00,144.00,291.00,319.00,761.00,695.00,1083.00,,,,,,,,,,,,0,0,0,,-4836,15556,-292,-130,279,-185
28.819,28.55,-1.48,-1.98,2.12,-3.44,4.58,-1.21,1.58,-1.86,0.76,368.00,795.00,175.00,307.00,336.00,738.00,720.00,1070.00,,,,,,,,,,,,0,0,0,,-4728,15456,-684,-112,179,-155
28.88,28.61,-1.45,-0.87,1.01,-0.22,2.07,-0.98,0.65,-2.18,0.63,383.00,784.00,189.00,289.00,352.00,750.00,729.00,1087.00,,,,,,,,,,,,0,0,0,,-4776,15592,-472,16,87,-88
28.922,28.66,-1.53,-1.04,0.50,0.77,-0.03,-2.98,2.18,-3.17,1.35,395.00,800.00,208.00,294.00,336.00,779.00,714.00,1109.00,,,,,,,,,,,,0,0,0,,-4676,15596,-432,50,238,-233
28.985,28.72,-1.57,-1.99,1.58,-4.12,3.68,-2.23,2.48,-2.09,0.88,379.00,807.00,186.00,323.00,326.00,750.00,718.00,1076.00,,,,,,,,,,,,0,0,0,,-4652,15484,-544,-53,152,-244
29.087,28.77,-1.49,-0.80,1.68,-2.32,3.78,-0.09,0.09,-1.46,0.09,369.00,768.00,179.00,300.00,357.00,735.00,741.00,1072.00,,,,,,,,,,,,0,0,0,,-4644,15396,-416,-24,16,-112
29.108,28.83,-1.51,0.81,-0.26,2.84,-0.73,-1.89,1.60,-2.74,1.05,398.00,759.00,208.00,276.00,340.00,758.00,720.00,1099.00,,,,,,,,,,,,0,0,0,,-4712,15548,-368,32,255,-177
29.149,28.88,-1.55,-1.73,2.04,-3.47,4.38,-2.30,2.74,-2.00,1.25,368.00,789.00,177.00,309.00,322.00,747.00,703.00,1062.00,,,,,,,,,,,,0,0,0,,-4764,15440,-676,8,282,-130
29.19,28.94,-1.49,-1.07,2.07,-3.96,5.95,-0.40,1.31,-1.40,0.60,363.00,768.00,164.00,302.00,336.00,720.00,720.00,1055.00,,,,,,,,,,,,0,0,0,,-4740,15600,-496,-52,92,-150
29.252,28.99,-1.46,0.45,0.52,2.10,1.20,-0.91,0.89,-2.51,1.15,384.00,754.00,190.00,270.00,347.00,743.00,713.00,1086.00,,,,,,,,,,,,0,0,0,,-4724,15576,-448,-116,149,-67
29.314,29.05,-1.55,-1.09,1.48,-0.47,1.30,-3.14,3.48,-2.62,1.77,375.00,781.00,198.00,298.00,314.00,757.00,691.00,1073.00,,,,,,,,,,,,0,0,0,,-4772,15540,-572,-104,221,-146
29.378,29.10,-1.50,-1.97,2.63,-4.69,6.42,-0.58,1.37,-1.43,0.61,358.00,784.00,162.00,307.00,336.00,724.00,720.00,1056.00,,,,,,,,,,,,0,0,0,,-4704,15576,-576,-68,108,-179
29.461,29.16,-1.46,1.59,-1.56,0.56,2.51,-0.68,0.65,-2.29,0.90,421.00,762.00,182.00,277.00,350.00,741.00,720.00,1084.00,,,,,,,,,,,,0,0,0,,-4800,15472,-584,-112,49,-167
29.482,29.21,-1.54,-0.58,0.53,1.11,-0.14,-3.17,3.09,-2.81,1.23,391.00,785.00,208.00,291.00,321.00,766.00,714.00,1097.00,,,,,,,,,,,,0,0,0,,-4708,15552,-416,-170,154,-114
29.523,29.27,-1.56,-2.11,1.62,-4.34,4.36,-1.80,2.00,-2.20,0.87,379.00,810.00,180.00,320.00,332.00,747.00,720.00,1081.00,,,,,,,,,,,,0,0,0,,-4712,15492,-512,-202,233,-107
29.585,29.32,-1.52,-1.34,1.41,-2.32,3.78,-0.76,0.42,-1.60,-0.01,378.00,790.00,179.00,300.00,355.00,748.00,747.00,1081.00,,,,,,,,,,,,0,0,0,,-4704,15608,-396,-158,125,-147
29.667,29.38,-1.57,-0.35,-0.47,1.46,-0.79,-2.53,1.75,-3.48,1.40,411.00,799.00,214.00,292.00,341.00,774.00,716.00,1121.00,,,,,,,,,,,,0,0,0,,-4704,15600,-560,5,141,-38
29.687,29.43,-1.63,-2.58,1.54,-3.08,2.27,-2.72,2.76,-2.69,1.30,384.00,827.00,197.00,322.00,324.00,759.00,710.00,1090.00,,,,,,,,,,,,0,0,0,,-4720,15676,-484,-34,320,-31
29.748,29.49,-1.58,-2.01,1.93,-2.89,4.50,-0.78,0.95,-1.52,0.19,372.00,800.00,174.00,301.00,345.00,738.00,738.00,1072.00,,,,,,,,,,,,0,0,0,,-4792,15508,-680,-144,258,-200
29.81,29.54,-1.57,-0.33,0.83,0.79,1.64,-1.40,1.27,-2.29,0.80,383.00,771.00,190.00,281.00,343.00,750.00,724.00,1087.00,,,,,,,,,,,,0,0,0,,-4740,15472,-452,-116,83,-84
29.872,29.60,-1.66,-1.31,1.75,-1.45,2.00,-3.29,3.95,-2.52,1.66,371.00,782.00,194.00,304.00,307.00,752.00,694.00,1072.00,,,,,,,,,,,,0,0,0,,-4684,15560,-300,30,223,-64
29.913,29.65,-1.60,-1.64,2.57,-4.37,6.32,-0.40,1.31,-1.27,0.56,357.00,775.00,162.00,304.00,336.00,720.00,720.00,1051.00,,,,,,,,,,,,0,0,0,,-4740,15540,-464,-10,272,-120
29.975,29.71,-1.56,0.10,0.83,1.61,1.36,-0.86,0.82,-2.04,0.84,380.00,758.00,190.00,274.00,348.00,743.00,719.00,1075.00,,,,,,,,,,,,0,0,0,,-4716,15644,-544,83,282,-23
30.037,29.76,-1.62,-0.79,1.08,-0.16,1.10,-2.83,2.97,-2.83,1.73,381.00,780.00,199.00,296.00,321.00,758.00,695.00,1083.00,,,,,,,,,,,,1,1,0,,-4700,15468,-548,-6,290,124
30.097,29.82,-1.47,-2.05,2.00,-2.21,1.33,1.52,0.89,-2.10,0.94,371.00,800.00,204.00,319.00,332.00,675.00,716.00,1075.00,,,,,,,,,,,,1,1,0,,-4564,15636,-500,-151,367,95
30.202,29.87,-1.39,-0.28,1.20,-0.97,2.92,0.08,0.08,-1.63,0.10,375.00,762.00,183.00,291.00,356.00,730.00,743.00,1079.00,,,,,,,,,,,,1,1,0,,-4744,15492,-500,-36,475,147
30.222,29.93,-1.44,-0.58,0.11,2.25,-1.31,-2.34,1.96,-3.27,1.57,400.00,794.00,217.00,287.00,336.00,764.00,707.00,1107.00,,,,,,,,,,,,1,1,0,,-4656,15532,-540,34,600,219
30.243,29.98,-1.48,-2.52,1.81,-4.36,4.26,-2.30,2.79,-2.40,1.27,378.00,819.00,181.00,321.00,321.00,746.00,707.00,1078.00,,,,,,,,,,,,1,1,0,,-4560,15732,-672,85,778,226
30.285,30.04,-1.42,-1.92,1.75,-3.64,4.75,-0.32,0.43,-1.56,0.10,375.00,801.00,174.00,308.00,352.00,735.00,742.00,1076.00,,,,,,,,,,,,1,1,0,,-4440,15632,-552,50,769,125
30.346,30.09,-1.45,-0.50,-0.05,1.31,0.61,-1.95,1.72,-2.42,0.59,403.00,795.00,199.00,283.00,338.00,757.00,734.00,1099.00,,,,,,,,,,,,1,1,0,,-4468,15572,-756,4,685,91
30.409,30.15,-1.54,-2.10,1.43,-1.90,2.06,-3.31,3.54,-2.94,1.59,383.00,814.00,195.00,309.00,314.00,761.00,702.00,1092.00,,,,,,,,,,,,1,1,0,,-4396,15660,-960,-149,463,68
30.451,30.20,-1.53,-2.83,2.41,-4.08,4.79,-1.20,1.42,-1.71,0.42,368.00,816.00,175.00,313.00,339.00,741.00,731.00,1073.00,,,,,,,,,,,,1,1,0,,-4316,15572,-708,-379,224,94
30.554,30.26,-1.51,-0.99,0.53,0.49,1.54,-1.20,0.78,-2.69,0.98,394.00,798.00,192.00,285.00,351.00,754.00,722.00,1099.00,,,,,,,,,,,,1,1,0,,-4428,15668,-536,-515,-37,-258
30.575,30.31,-1.60,-1.12,1.05,-0.14,0.82,-3.41,3.34,-2.94,1.69,384.00,791.00,202.00,298.00,318.00,768.00,698.00,1089.00,,,,,,,,,,,,1,1,0,,-4372,15708,-380,-405,-47,-90
30.616,30.37,-1.61,-1.81,2.07,-4.19,4.72,-1.66,1.79,-2.23,0.88,368.00,791.00,176.00,315.00,335.00,747.00,720.00,1082.00,,,,,,,,,,,,1,1,0,,-4276,15664,-432,-141,29,-113
30.677,30.42,-1.54,-1.09,1.53,-1.39,2.66,-0.18,0.17,-1.63,0.27,374.00,780.00,187.00,298.00,356.00,736.00,736.00,1074.00,,,,,,,,,,,,1,1,0,,-4348,15688,-492,-195,71,-132
30.739,30.48,-1.60,-0.20,0.31,0.82,-0.22,-2.76,2.44,-3.11,1.44,393.00,778.00,210.00,295.00,330.00,767.00,710.00,1104.00,,,,,,,,,,,,1,1,0,,-4332,15784,-436,-274,40,-163
30.78,30.53,-1.62,-2.24,1.86,-3.33,2.64,-2.03,2.59,-2.23,1.19,375.00,809.00,194.00,322.00,323.00,742.00,708.00,1073.00,,,,,,,,,,,,1,1,0,,-4500,15516,-384,-221,76,-218
30.841,30.59,-1.54,-1.09,1.48,-2.49,4.15,-0.05,0.23,-1.35,-0.07,375.00,781.00,176.00,299.00,354.00,731.00,746.00,1072.00,,,,,,,,,,,,1,1,0,,-4292,15696,-484,-200,92,-132
30.921,30.64,-1.55,-0.17,-0.03,2.02,-0.45,-1.83,1.79,-2.61,1.24,400.00,784.00,208.00,283.00,336.00,752.00,711.00,1088.00,,,,,,,,,,,,1,1,0,,-4308,15556,-684,-345,151,-86
30.941,30.70,-1.62,-1.71,1.64,-4.18,3.31,-2.77,3.18,-2.47,1.38,376.00,797.00,190.00,327.00,317.00,752.00,704.00,1078.00,,,,,,,,,,,,1,1,0,,-4372,15504,-532,-631,137,-119
31.023,30.75,-1.55,-1.64,1.91,-3.72,4.99,-0.40,1.31,-1.49,0.63,370.00,789.00,172.00,307.00,336.00,720.00,720.00,1058.00,,,,,,,,,,,,1,1,0,,-4344,15672,-204,-662,131,-92
31.085,30.81,-1.55,-0.66,0.75,-0.80,2.17,-1.36,1.31,-2.41,1.04,387.00,783.00,190.00,295.00,342.00,748.00,716.00,1085.00,,,,,,,,,,,,1,1,0,,-4372,15748,-68,-671,321,-251
31.128,30.86,-1.65,-1.24,0.52,-1.37,1.88,-3.56,3.28,-2.94,1.82,396.00,806.00,195.00,304.00,320.00,774.00,693.00,1085.00,,,,,,,,,,,,1,1,0,,-4392,15592,-16,-737,541,-380
31.19,30.92,-1.65,-2.71,2.37,-4.99,5.31,-1.68,2.07,-1.54,0.32,368.00,813.00,173.00,320.00,330.00,742.00,733.00,1069.00,,,,,,,,,,,,1,1,0,,-4576,15552,-104,-565,642,-348
31.273,30.97,-1.60,-1.61,1.07,-2.22,3.14,-0.77,0.63,-2.14,0.54,387.00,806.00,185.00,304.00,351.00,744.00,732.00,1088.00,,,,,,,,,,,,1,1,0,,-4520,15592,-296,-420,501,-299
31.293,31.03,-1.65,-0.75,0.17,0.24,-0.11,-2.47,2.01,-2.95,1.43,400.00,798.00,211.00,301.00,336.00,767.00,708.00,1097.00,,,,,,,,,,,,1,1,0,,-4568,15484,-140,-421,202,-300
31.376,31.08,-1.64,-2.17,1.89,-4.03,3.55,-1.57,2.26,-1.74,0.90,374.00,806.00,187.00,323.00,326.00,735.00,713.00,1061.00,,,,,,,,,,,,1,1,0,,-4568,15556,28,-286,58,-214
31.396,31.14,-1.54,-1.35,1.86,-0.14,0.82,0.49,0.15,-1.09,0.22,369.00,781.00,202.00,298.00,352.00,717.00,731.00,1053.00,,,,,,,,,,,,1,1,0,,-4428,15620,64,-59,160,-119
31.437,31.19,-1.54,0.38,-0.03,2.61,-0.65,-1.59,1.99,-2.57,1.38,396.00,767.00,208.00,278.00,331.00,741.00,705.00,1082.00,,,,,,,,,,,,1,1,0,,-4408,15500,-32,26,281,-139
31.499,31.25,-1.68,-1.52,1.97,-1.51,2.22,-4.31,4.23,-2.14,1.69,368.00,784.00,192.00,303.00,308.00,777.00,688.00,1055.00,,,,,,,,,,,,1,1,0,,-4492,15604,-116,55,223,-125
31.58,31.30,-1.60,-1.28,2.09,-3.65,5.62,-0.11,1.83,-0.55,0.50,364.00,774.00,166.00,301.00,325.00,702.00,713.00,1023.00,,,,,,,,,,,,1,1,0,,-4500,15604,-192,-12,117,-84
31.661,31.36,-1.55,0.02,0.91,1.84,1.58,-0.64,1.50,-1.82,1.08,379.00,759.00,187.00,270.00,334.00,723.00,707.00,1059.00,,,,,,,,,,,,1,1,0,,-4512,15628,-144,-5,79,-53
31.682,31.41,-1.60,-0.96,1.28,-1.02,1.86,-2.47,3.79,-2.30,1.82,378.00,781.00,194.00,300.00,305.00,731.00,685.00,1058.00,,,,,,,,,,,,1,1,0,,-4428,15576,-160,20,2,-32
31.723,31.47,-1.55,-1.92,2.56,-3.91,5.27,-0.58,2.10,-1.18,0.81,359.00,784.00,170.00,307.00,323.00,710.00,709.00,1040.00,,,,,,,,,,,,1,1,0,,-4468,15580,4,-3,-1,15
31.785,31.52,-1.49,-0.67,0.99,-0.69,3.03,-0.39,1.14,-1.70,0.83,382.00,778.00,181.00,287.00,339.00,723.00,715.00,1061.00,,,,,,,,,,,,1,1,0,,-4460,15596,-76,25,123,27
31.825,31.58,-1.41,-1.12,0.90,1.00,-0.11,0.12,-1.23,-2.69,1.42,387.00,794.00,208.00,292.00,382.00,755.00,705.00,1086.00,,,,,,,,,,,,1,1,0,,-4388,15592,-116,-58,160,3
31.886,31.63,-1.41,-2.14,1.39,-3.83,3.48,-1.51,2.59,-1.95,1.20,384.00,816.00,187.00,321.00,320.00,727.00,704.00,1061.00,,,,,,,,,,,,1,1,0,,-4436,15616,-168,-133,-37,-71
31.948,31.69,-1.34,-1.29,1.10,-2.38,3.49,0.08,0.40,-1.15,0.16,384.00,795.00,182.00,303.00,350.00,724.00,734.00,1057.00,,,,,,,,,,,,1,1,0,,-4440,15376,-164,-206,-84,-22
32.052,31.74,-1.39,-0.39,-0.32,0.92,0.01,-2.32,2.51,-2.95,1.56,408.00,797.00,207.00,292.00,326.00,752.00,703.00,1093.00,,,,,,,,,,,,1,1,0,,-4548,16036,224,-175,11,-86
32.071,31.80,-1.41,-1.92,1.75,-3.86,3.99,-1.76,3.32,-1.81,1.52,375.00,801.00,182.00,317.00,309.00,720.00,690.00,1046.00,,,,,,,,,,,,1,1,0,,-4432,15352,492,247,365,76
32.111,31.85,-1.32,-0.68,1.68,-3.01,5.29,0.40,1.71,-0.55,0.68,368.00,764.00,167.00,296.00,324.00,690.00,706.00,1018.00,,,,,,,,,,,,1,1,0,,-4212,15972,-4,651,569,84
32.173,31.91,-1.26,0.15,1.11,1.68,1.53,-0.14,1.39,-1.50,1.29,374.00,751.00,188.00,272.00,333.00,711.00,695.00,1040.00,,,,,,,,,,,,1,1,0,,-4088,15712,-356,908,433,-249
32.214,31.96,-1.29,-0.89,1.81,0.07,1.78,-2.02,3.64,-1.72,1.93,367.00,768.00,191.00,288.00,305.00,721.00,674.00,1031.00,,,,,,,,,,,,1,1,0,,-4276,15672,-524,579,249,-178
32.297,32.02,-1.23,-1.03,2.16,-3.92,6.39,0.01,2.01,-0.26,0.66,361.00,765.00,160.00,298.00,321.00,695.00,703.00,1007.00,,,,,,,,,,,,1,1,0,,-4396,15520,-424,244,319,-236
32.38,32.07,-1.18,1.07,0.75,1.24,2.18,-0.23,1.36,-1.29,1.00,375.00,731.00,183.00,272.00,334.00,714.00,703.00,1039.00,,,,,,,,,,,,1,1,0,,-4356,15560,-748,92,162,-22
32.401,32.13,-1.20,-0.37,1.09,1.32,0.33,-1.51,2.59,-1.68,1.38,378.00,767.00,202.00,285.00,320.00,727.00,694.00,1045.00,,,,,,,,,,,,1,1,0,,-4168,15656,-512,140,-16,45
32.442,32.18,-1.18,-1.61,2.00,-3.98,4.65,-0.80,2.58,-1.14,1.01,368.00,786.00,176.00,313.00,316.00,707.00,701.00,1033.00,,,,,,,,,,,,1,1,0,,-4192,15732,-352,453,36,-121
32.503,32.24,-1.08,-0.89,1.60,-1.01,3.76,0.67,0.63,-0.72,0.25,371.00,772.00,175.00,285.00,342.00,703.00,725.00,1037.00,,,,,,,,,,,,1,1,0,,-4248,15624,-560,413,80,-206
32.566,32.29,-1.11,0.16,-0.18,1.54,0.53,-1.60,2.62,-2.22,1.42,401.00,777.00,199.00,281.00,320.00,729.00,699.00,1066.00,,,,,,,,,,,,1,1,0,,-4384,15696,-456,262,192,-211
32.607,32.35,-1.14,-2.09,1.96,-3.02,3.11,-1.64,3.39,-1.69,1.57,372.00,802.00,188.00,314.00,307.00,715.00,687.00,1040.00,,,,,,,,,,,,1,1,0,,-4356,15736,-572,183,285,-261
32.648,32.40,-1.12,-1.48,1.95,-2.72,5.76,-0.72,2.15,-0.59,0.56,368.00,783.00,162.00,289.00,323.00,713.00,711.00,1023.00,,,,,,,,,,,,1,1,0,,-4328,15600,-616,398,295,-147
32.752,32.46,-1.09,-0.62,0.78,1.68,1.53,-0.69,1.69,-1.69,1.16,386.00,781.00,188.00,272.00,331.00,721.00,702.00,1051.00,,,,,,,,,,,,1,1,0,,-4328,15536,-696,423,273,-29
32.773,32.51,-1.15,-1.62,1.46,-1.16,2.19,-2.15,3.63,-1.87,1.76,379.00,798.00,191.00,299.00,306.00,725.00,682.00,1042.00,,,,,,,,,,,,1,1,0,,-4332,15708,-936,176,165,-196
32.814,32.57,-1.09,-1.39,2.59,-3.59,6.28,0.03,1.67,-0.14,0.51,355.00,767.00,160.00,295.00,327.00,701.00,707.00,1006.00,,,,,,,,,,,,1,1,0,,-4416,15596,-692,-108,151,-160
32.874,32.62,-1.03,0.23,0.93,1.19,2.40,0.06,1.16,-0.87,0.97,377.00,752.00,181.00,271.00,336.00,710.00,699.00,1023.00,,,,,,,,,,,,1,1,0,,-4308,15692,-700,4,178,-32
32.937,32.68,-1.05,-0.29,1.45,1.53,0.81,-1.48,2.75,-1.38,1.35,370.00,757.00,196.00,279.00,317.00,723.00,691.00,1033.00,,,,,,,,,,,,1,1,0,,-4280,15760,-964,227,185,-114
32.999,32.73,-1.04,-0.94,1.87,-2.60,4.19,-0.70,2.43,-0.48,0.84,366.00,768.00,176.00,300.00,318.00,707.00,699.00,1011.00,,,,,,,,,,,,1,1,0,,-4388,15744,-1004,264,137,-170
33.041,32.79,-0.95,-0.55,1.64,-0.10,3.35,0.62,0.64,-0.21,0.33,368.00,761.00,176.00,278.00,342.00,704.00,715.00,1014.00,,,,,,,,,,,,1,1,0,,-4220,15628,-932,191,41,-195
33.123,32.84,-0.98,0.61,0.13,2.69,-0.23,-1.54,2.48,-1.73,1.55,391.00,757.00,203.00,274.00,322.00,730.00,688.00,1042.00,,,,,,,,,,,,1,1,0,,-4324,15724,-908,12,122,-153
33.143,32.90,-1.00,-1.56,1.98,-2.75,3.93,-1.42,3.02,-0.74,1.22,368.00,785.00,179.00,304.00,312.00,716.00,688.00,1011.00,,,,,,,,,,,,1,1,0,,-4328,15616,-1160,-111,126,-183
33.205,32.95,-0.94,-1.28,2.19,-2.26,5.61,0.37,1.22,-0.01,0.29,362.00,772.00,162.00,285.00,333.00,700.00,714.00,1007.00,,,,,,,,,,,,1,1,0,,-4256,15556,-1068,-349,117,-211
33.288,33.01,-0.94,-0.07,0.69,1.70,1.92,-0.99,2.18,-1.53,1.41,384.00,766.00,184.00,269.00,324.00,720.00,691.00,1038.00,,,,,,,,,,,,1,1,0,,-4340,15628,-1012,-540,27,-168
33.308,33.06,-1.00,-1.48,1.90,-0.78,2.26,-2.27,3.91,-1.76,1.89,369.00,784.00,189.00,294.00,302.00,723.00,676.00,1034.00,,,,,,,,,,,,1,1,0,,-4460,15704,-724,-358,40,-228
33.371,33.12,-0.95,-1.57,2.03,-4.37,6.32,0.06,2.06,-0.28,0.61,367.00,784.00,162.00,304.00,320.00,693.00,705.00,1009.00,,,,,,,,,,,,1,1,0,,-4552,15916,-836,-172,221,-169
33.433,33.17,-0.91,-0.33,0.78,1.42,1.92,-0.22,1.19,-1.16,0.78,384.00,772.00,185.00,272.00,337.00,717.00,710.00,1040.00,,,,,,,,,,,,1,1,0,,-4392,14996,-456,-397,592,-238
33.473,33.23,-0.96,-1.00,0.96,-0.16,1.47,-1.74,2.72,-1.58,1.08,385.00,789.00,195.00,293.00,319.00,731.00,704.00,1049.00,,,,,,,,,,,,1,1,0,,-4280,15868,-636,-347,784,199
33.534,33.28,-0.96,-1.13,1.39,-2.33,3.18,-0.95,2.69,-0.76,0.80,377.00,784.00,185.00,305.00,315.00,709.00,704.00,1023.00,,,,,,,,,,,,1,1,0,,-4088,16140,-956,-532,-156,140
33.595,33.34,-0.87,-0.33,1.42,-0.48,3.37,0.81,0.63,-0.13,0.18,371.00,759.00,177.00,282.00,341.00,699.00,720.00,1015.00,,,,,,,,,,,,1,1,0,,-4344,15972,-540,867,-52,-231
33.656,33.39,-0.91,0.74,0.09,3.01,-0.42,-1.66,2.75,-1.69,1.46,391.00,754.00,204.00,272.00,318.00,728.00,691.00,1043.00,,,,,,,,,,,,1,1,0,,-4272,15424,-544,409,232,165
33.697,33.45,-0.92,-1.10,1.88,-2.30,3.88,-1.23,3.32,-0.58,1.16,367.00,773.00,178.00,299.00,306.00,705.00,688.00,1006.00,,,,,,,,,,,,1,1,0,,-4140,15744,-824,-66,218,301
33.76,33.50,-0.83,-0.59,1.81,-1.73,5.09,0.85,1.06,0.32,0.10,365.00,759.00,165.00,283.00,333.00,690.00,717.00,999.00,,,,,,,,,,,,1,1,0,,-3944,15636,-1280,-108,154,-78
33.861,33.56,-0.83,0.49,0.55,2.42,0.99,-0.81,2.18,-0.98,1.27,383.00,752.00,191.00,268.00,323.00,715.00,689.00,1019.00,,,,,,,,,,,,1,1,0,,-4288,15420,-1176,-233,-100,-204
33.882,33.61,-0.90,-0.89,1.76,-0.94,3.01,-2.19,3.94,-1.04,1.59,368.00,769.00,182.00,290.00,301.00,720.00,678.00,1013.00,,,,,,,,,,,,1,1,0,,-4216,15596,-584,-342,-153,20
33.922,33.67,-0.84,-0.90,2.06,-0.47,5.82,0.26,1.70,0.06,0.55,362.00,763.00,155.00,264.00,325.00,694.00,703.00,997.00,,,,,,,,,,,,1,1,0,,-4196,15936,-712,-295,-1,48
33.984,33.72,-0.81,-0.07,1.03,1.99,2.33,-0.13,1.16,-0.76,0.80,377.00,759.00,179.00,263.00,337.00,715.00,704.00,1023.00,,,,,,,,,,,,1,1,0,,-4200,15872,-612,-43,169,-144
34.047,33.78,-0.87,-1.04,1.26,1.22,1.39,-2.11,3.31,-1.83,1.78,379.00,784.00,191.00,278.00,311.00,730.00,681.00,1040.00,,,,,,,,,,,,1,1,0,,-4044,15724,-1020,69,178,-265
34.108,33.83,-0.88,-1.64,1.81,-3.03,4.33,-0.99,2.12,-0.64,0.63,372.00,791.00,176.00,304.00,325.00,721.00,709.00,1023.00,,,,,,,,,,,,1,1,0,,-4156,15692,-908,-343,34,-312
34.149,33.89,-0.82,-0.96,1.14,-0.01,3.21,0.26,0.28,-0.76,0.33,381.00,784.00,177.00,278.00,351.00,721.00,722.00,1036.00,,,,,,,,,,,,1,1,0,,-4312,15816,-696,-455,43,-336
34.231,33.94,-0.88,-0.42,-0.12,1.31,0.61,-1.90,2.15,-2.29,1.31,404.00,794.00,199.00,283.00,330.00,747.00,704.00,1072.00,,,,,,,,,,,,1,1,1,,-4220,15952,-580,-271,396,-503
34.25,34.00,-0.90,-2.03,1.50,-3.50,4.18,-1.40,2.78,-1.30,1.06,381.00,810.00,179.00,311.00,316.00,720.00,701.00,1038.00,,,,,,,,,,,,1,1,1,,-4280,15764,-692,-272,474,-664
34.311,34.05,-0.81,-0.59,1.65,-1.19,4.03,0.94,0.86,-0.04,0.14,368.00,762.00,173.00,285.00,336.00,691.00,720.00,1012.00,,,,,,,,,,,,1,1,1,,-4340,15420,-620,-191,234,-508
34.353,34.11,-0.79,0.66,0.31,3.12,0.66,-0.49,2.01,-1.08,1.28,387.00,752.00,192.00,263.00,324.00,709.00,690.00,1023.00,,,,,,,,,,,,1,1,1,,-4376,15524,-724,204,216,-205
34.416,34.16,-0.83,-0.76,1.81,-1.03,3.66,-1.61,3.57,-0.79,1.40,366.00,764.00,176.00,286.00,304.00,711.00,682.00,1008.00,,,,,,,,,,,,1,1,1,,-4224,15816,-748,354,242,-335
34.477,34.22,-0.78,-0.74,2.37,-3.12,6.36,0.35,1.90,0.18,0.56,355.00,752.00,158.00,289.00,321.00,688.00,701.00,992.00,,,,,,,,,,,,1,1,1,,-4244,15612,-720,-138,269,-651
34.539,34.27,-0.75,0.50,0.99,2.69,2.30,-0.18,1.46,-0.71,0.81,374.00,743.00,177.00,256.00,332.00,711.00,703.00,1021.00,,,,,,,,,,,,1,1,1,,-4452,16436,-288,-207,573,-1517
34.62,34.33,-0.80,-0.63,1.57,1.78,1.11,-1.86,3.41,-1.21,1.65,370.00,765.00,192.00,274.00,308.00,721.00,678.00,1018.00,,,,,,,,,,,,1,1,1,,-4292,16616,-184,-187,2047,-4813
34.641,34.38,-0.80,-1.50,2.42,-2.40,4.65,-0.74,2.32,-0.41,0.84,359.00,774.00,171.00,294.00,320.00,710.00,698.00,1008.00,,,,,,,,,,,,1,1,1,,-4716,15112,-1128,357,2955,-7032
34.704,34.44,-0.72,-0.58,1.30,-4.40,9.69,0.72,0.34,-0.46,0.36,375.00,769.00,135.00,278.00,347.00,707.00,717.00,1023.00,,,,,,,,,,,,1,1,1,,-6160,13332,-2240,605,1088,-4819
34.745,34.49,-0.78,-0.13,0.01,2.92,-0.58,-1.79,2.34,-1.94,1.54,399.00,782.00,206.00,274.00,326.00,740.00,691.00,1051.00,,,,,,,,,,,,1,1,1,,-6968,13728,-1464,255,-632,-1698
34.807,34.55,-0.81,-1.92,1.75,-2.70,3.60,-1.42,2.55,-0.82,1.01,375.00,801.00,182.00,306.00,320.00,725.00,697.00,1020.00,,,,,,,,,,,,1,1,1,,-6808,14092,-1388,-210,-1007,-3
34.868,34.60,-0.74,-1.00,1.20,-1.38,4.31,0.62,0.27,-0.23,0.03,380.00,784.00,171.00,285.00,349.00,711.00,727.00,1023.00,,,,,,,,,,,,1,1,1,,-6788,14648,-840,-399,-1059,690
34.971,34.66,-0.76,-0.13,-0.18,-0.16,1.47,-1.31,1.78,-1.83,1.14,403.00,786.00,195.00,293.00,333.00,737.00,705.00,1058.00,,,,,,,,,,,,1,1,1,,-6540,14840,-724,-168,-826,1059
35.015,34.71,-0.84,-1.62,1.26,-0.95,2.51,-2.21,3.47,-1.13,1.35,383.00,802.00,187.00,294.00,309.00,730.00,688.00,1023.00,,,,,,,,,,,,1,1,1,,-6204,15148,-868,301,-524,1217
35.035,34.77,-0.79,-1.46,2.46,-3.07,5.76,0.04,1.50,-0.08,0.57,358.00,772.00,163.00,293.00,330.00,704.00,704.00,1002.00,,,,,,,,,,,,1,1,1,,-6288,15004,-728,185,-550,1176
35.075,34.82,-0.77,0.24,1.13,2.29,2.03,-0.36,1.30,-0.81,0.95,373.00,748.00,181.00,262.00,336.00,719.00,699.00,1021.00,,,,,,,,,,,,1,1,1,,-5972,15052,-720,466,-360,978
35.138,34.88,-0.83,-0.41,1.25,0.82,1.72,-1.96,3.50,-1.27,1.78,375.00,765.00,189.00,280.00,307.00,722.00,674.00,1017.00,,,,,,,,,,,,1,1,1,,-5836,15092,-1036,747,-471,909
35.218,34.93,-0.81,-1.09,2.59,-2.43,5.21,-0.50,2.25,-0.53,1.10,353.00,758.00,166.00,290.00,320.00,705.00,690.00,1006.00,,,,,,,,,,,,1,1,1,,-5796,15188,-776,144,-577,481
35.239,34.99,-0.77,-0.50,1.58,0.25,3.23,0.11,0.87,-0.16,0.47,369.00,761.00,176.00,275.00,341.00,714.00,709.00,1008.00,,,,,,,,,,,,1,1,1,,-5828,15252,-924,-421,-467,266
35.321,35.04,-0.81,0.10,0.49,3.16,-0.66,-1.61,2.28,-1.50,1.31,387.00,765.00,206.00,272.00,326.00,736.00,694.00,1039.00,,,,,,,,,,,,1,1,1,,-5688,15236,-768,-281,-86,490
35.342,35.10,-0.82,-1.77,2.00,-2.92,4.30,-1.06,2.96,-0.52,1.04,369.00,791.00,176.00,303.00,311.00,707.00,692.00,1007.00,,,,,,,,,,,,1,1,1,,-5512,15168,-692,-5,249,613
35.426,35.15,-0.74,-1.10,1.83,-1.13,4.34,0.81,0.52,0.09,0.10,368.00,774.00,170.00,282.00,343.00,701.00,720.00,1008.00,,,,,,,,,,,,1,1,1,,-5564,15448,-956,38,481,580
35.468,35.21,-0.76,0.42,-0.22,3.17,0.17,-1.06,1.86,-1.46,1.22,400.00,770.00,197.00,266.00,330.00,728.00,697.00,1040.00,,,,,,,,,,,,1,1,1,,-5376,15300,-880,-78,342,359
35.529,35.26,-0.81,-1.34,1.41,-0.67,3.12,-1.76,3.32,-1.11,1.40,378.00,790.00,180.00,286.00,309.00,720.00,686.00,1021.00,,,,,,,,,,,,1,1,1,,-5340,15508,-1136,-216,241,199
35.591,35.32,-0.76,-1.56,1.98,-2.69,5.98,0.04,1.50,-0.17,0.52,368.00,785.00,160.00,287.00,330.00,704.00,707.00,1007.00,,,,,,,,,,,,1,1,1,,-5332,15288,-836,-192,122,-71
35.694,35.37,-0.75,-0.75,0.83,0.44,2.55,-0.45,1.33,-1.30,0.96,386.00,784.00,182.00,278.00,336.00,721.00,705.00,1041.00,,,,,,,,,,,,1,1,1,,-5320,15240,-1068,-117,80,-85
35.715,35.43,-0.83,-1.58,1.20,0.54,0.96,-2.36,3.28,-1.83,1.88,384.00,802.00,198.00,289.00,313.00,738.00,677.00,1037.00,,,,,,,,,,,,1,1,1,,-5392,15492,-932,-96,-58,-166
35.756,35.48,-0.80,-1.74,2.19,-3.31,5.62,-0.30,1.83,-0.26,0.66,365.00,786.00,165.00,297.00,326.00,707.00,703.00,1007.00,,,,,,,,,,,,1,1,1,,-5304,15212,-772,-147,-26,-42
35.798,35.54,-0.74,-0.46,1.41,-0.08,3.45,0.48,0.74,-0.21,0.43,372.00,763.00,175.00,277.00,341.00,706.00,711.00,1011.00,,,,,,,,,,,,1,1,1,,-5336,15292,-820,-63,24,-28
35.881,35.59,-0.78,0.09,0.35,1.76,0.73,-1.63,2.45,-1.55,1.36,390.00,768.00,196.00,277.00,323.00,733.00,693.00,1040.00,,,,,,,,,,,,1,1,1,,-5340,15148,-708,4,55,50
35.902,35.65,-0.80,-1.39,1.77,-7.27,5.76,-1.04,2.78,-0.41,1.03,371.00,784.00,176.00,346.00,314.00,710.00,691.00,1003.00,,,,,,,,,,,,1,1,1,,-5324,15484,-792,15,169,118
35.962,35.70,-0.71,-0.54,1.44,0.31,3.42,0.85,0.78,0.32,-0.13,372.00,765.00,174.00,273.00,338.00,695.00,726.00,1005.00,,,,,,,,,,,,1,1,1,,-5264,15336,-680,212,226,-21
36.045,35.76,-0.73,0.64,-0.21,3.96,-0.28,-1.10,2.45,-1.34,1.26,398.00,763.00,199.00,261.00,320.00,718.00,694.00,1034.00,,,,,,,,,,,,1,1,1,,-5164,15500,-836,356,324,58
36.064,35.81,-0.77,-1.13,1.54,-0.62,3.31,-1.45,3.33,-0.78,1.42,374.00,781.00,178.00,284.00,307.00,711.00,681.00,1007.00,,,,,,,,,,,,1,1,1,,-5180,15224,-1156,511,316,-8
36.125,35.87,-0.72,-1.62,2.36,-2.35,5.86,0.29,1.98,0.18,0.56,361.00,779.00,160.00,284.00,320.00,688.00,701.00,992.00,,,,,,,,,,,,1,1,1,,-5216,15396,-1344,409,271,-36
36.167,35.92,-0.68,-0.16,0.82,1.47,2.82,0.05,1.27,-0.53,0.91,382.00,766.00,176.00,265.00,334.00,708.00,697.00,1011.00,,,,,,,,,,,,1,1,1,,-5088,15140,-1100,221,241,-11
36.229,35.98,-0.73,-1.09,1.23,1.03,1.95,-1.81,3.39,-1.27,1.56,380.00,786.00,186.00,276.00,308.00,720.00,682.00,1023.00,,,,,,,,,,,,1,1,1,,-5256,15404,-1196,38,137,1
36.311,36.03,-0.71,-1.98,2.12,-3.59,6.28,-0.21,1.92,-0.15,0.67,368.00,795.00,160.00,295.00,324.00,703.00,701.00,1002.00,,,,,,,,,,,,1,1,1,,-5248,15360,-1092,98,65,112
36.351,36.09,-0.68,-0.87,0.35,-0.18,3.06,-0.12,1.05,-0.69,0.70,397.00,798.00,179.00,281.00,339.00,717.00,707.00,1023.00,,,,,,,,,,,,1,1,1,,-5184,15364,-1156,439,42,273
36.433,36.14,-0.72,-0.21,0.03,2.77,-0.07,-1.50,2.47,-1.34,1.05,399.00,784.00,201.00,272.00,322.00,729.00,702.00,1040.00,,,,,,,,,,,,1,1,1,,-5112,15496,-1384,379,-176,174
36.454,36.20,-0.73,-1.51,1.62,-2.65,3.89,-0.95,2.75,-0.32,1.08,375.00,791.00,179.00,303.00,314.00,708.00,688.00,998.00,,,,,,,,,,,,1,1,1,,-5092,15452,-1084,193,-64,83
36.496,36.25,-0.64,-0.63,1.67,-0.36,4.40,1.13,0.74,0.51,0.01,368.00,763.00,167.00,273.00,337.00,688.00,718.00,994.00,,,,,,,,,,,,1,1,1,,-5032,15376,-1032,159,152,8
36.557,36.31,-0.64,0.95,-0.12,3.71,0.36,-0.62,2.00,-0.85,1.23,394.00,752.00,193.00,259.00,325.00,713.00,689.00,1015.00,,,,,,,,,,,,1,1,1,,-4992,15448,-1276,9,273,-7
36.619,36.36,-0.67,-0.97,1.58,1.43,1.23,-1.20,3.49,-0.27,1.30,372.00,775.00,192.00,277.00,303.00,701.00,679.00,990.00,,,,,,,,,,,,1,1,1,,-5040,15552,-1372,-27,253,59
36.683,36.42,-0.58,-1.03,2.26,-1.29,5.51,1.07,1.66,0.77,0.42,359.00,763.00,160.00,275.00,321.00,673.00,699.00,973.00,,,,,,,,,,,,1,1,1,,-4924,15428,-1372,-138,149,73
36.786,36.47,-0.55,0.28,0.87,3.30,2.00,0.02,1.84,-0.48,1.13,378.00,752.00,178.00,252.00,324.00,698.00,688.00,1003.00,,,,,,,,,,,,1,1,1,,-5024,15436,-1424,-48,93,22
36.806,36.53,-0.60,-0.37,0.89,1.61,2.05,-1.48,3.58,-0.80,1.76,382.00,771.00,183.00,269.00,303.00,707.00,669.00,999.00,,,,,,,,,,,,1,1,1,,-4860,15544,-1404,80,65,-60
36.827,36.58,-0.55,-1.52,1.97,-1.93,5.38,0.29,1.98,0.55,0.52,368.00,784.00,163.00,283.00,320.00,688.00,698.00,979.00,,,,,,,,,,,,1,1,1,,-4884,15412,-1460,6,40,-126
36.888,36.64,-0.50,-0.67,1.14,0.49,3.15,0.47,0.96,-0.04,0.48,379.00,775.00,176.00,273.00,337.00,702.00,707.00,1003.00,,,,,,,,,,,,1,1,1,,-4868,15420,-1292,-101,59,-154
36.949,36.69,-0.54,-0.33,0.17,2.60,0.17,-1.29,2.57,-1.57,1.50,397.00,785.00,199.00,272.00,319.00,721.00,688.00,1037.00,,,,,,,,,,,,1,1,1,,-4932,15600,-1264,-104,65,-109
37.011,36.75,-0.57,-2.18,1.40,-3.03,4.33,-1.12,3.10,-0.63,1.13,384.00,817.00,176.00,304.00,309.00,706.00,690.00,1009.00,,,,,,,,,,,,1,1,1,,-4900,15376,-1216,102,119,-63
37.052,36.80,-0.50,-1.12,1.05,1.06,2.04,0.71,0.77,0.24,-0.08,384.00,791.00,185.00,275.00,339.00,699.00,725.00,1007.00,,,,,,,,,,,,1,1,1,,-4976,15596,-1456,211,162,-91
37.196,36.86,-0.52,0.63,-0.43,3.33,0.49,-0.85,2.08,-1.06,1.25,403.00,768.00,193.00,262.00,325.00,718.00,691.00,1023.00,,,,,,,,,,,,1,1,1,,-4928,15468,-1340,413,169,-39
37.216,36.91,-0.57,-1.35,1.76,-0.37,2.82,-1.45,3.70,-0.35,1.28,371.00,783.00,182.00,285.00,301.00,704.00,681.00,994.00,,,,,,,,,,,,1,1,1,,-4908,15608,-1632,539,349,-135
37.236,36.97,-0.49,-0.76,1.81,-2.10,5.90,1.07,1.60,1.06,0.29,366.00,764.00,159.00,281.00,322.00,674.00,700.00,965.00,,,,,,,,,,,,1,1,1,,-4796,15020,-1440,331,311,45
37.277,37.02,-0.45,0.45,0.96,2.98,2.31,0.30,1.92,-0.13,0.88,375.00,745.00,176.00,253.00,321.00,689.00,693.00,996.00,,,,,,,,,,,,1,1,1,,-4740,15416,-1436,88,61,546
37.338,37.08,-0.50,-0.41,1.10,1.87,1.66,-1.52,3.90,-0.70,1.64,378.00,768.00,186.00,269.00,298.00,702.00,672.00,998.00,,,,,,,,,,,,1,1,1,,-4816,15672,-1508,206,-86,188
37.38,37.13,-0.45,-0.89,1.86,-2.75,6.58,0.47,2.27,1.20,-0.30,366.00,767.00,155.00,283.00,314.00,678.00,721.00,975.00,,,,,,,,,,,,1,1,1,,-4764,15844,-1336,730,441,-259
37.442,37.19,-0.37,0.02,0.91,1.59,3.20,1.18,0.83,0.21,0.45,379.00,759.00,172.00,261.00,335.00,685.00,705.00,994.00,,,,,,,,,,,,1,1,1,,-4736,15208,-1680,377,912,-27
37.524,37.24,-0.41,-0.33,0.54,3.04,0.49,-1.12,2.63,-0.65,0.98,389.00,777.00,194.00,265.00,317.00,715.00,696.00,1014.00,,,,,,,,,,,,1,1,1,,-4548,15452,-1992,-85,523,331
37.546,37.30,-0.43,-1.75,1.60,-2.28,3.98,-0.85,3.13,-0.45,0.93,377.00,799.00,177.00,298.00,307.00,698.00,695.00,1007.00,,,,,,,,,,,,1,1,1,,-4528,15384,-2004,-108,231,190
37.629,37.35,-0.34,-0.96,1.14,-0.63,4.94,1.28,0.58,0.29,-0.12,381.00,784.00,163.00,272.00,339.00,687.00,726.00,1006.00,,,,,,,,,,,,1,1,1,,-4652,15500,-1772,14,-9,-16
37.671,37.41,-0.37,0.20,-0.29,4.35,0.15,-0.86,2.14,-1.37,1.16,403.00,778.00,193.00,254.00,324.00,717.00,698.00,1038.00,,,,,,,,,,,,1,1,1,,-4872,15556,-1552,188,-149,15
37.734,37.46,-0.44,-2.32,1.74,-1.60,3.85,-1.84,3.64,-1.00,1.31,378.00,814.00,176.00,291.00,304.00,716.00,688.00,1019.00,,,,,,,,,,,,1,1,1,,-4564,15816,-1732,551,178,98
37.775,37.52,-0.36,-0.79,1.18,-1.09,5.21,1.17,1.28,0.25,0.46,379.00,778.00,162.00,275.00,327.00,677.00,704.00,992.00,,,,,,,,,,,,1,1,1,,-4456,15680,-1836,468,227,-162
37.838,37.57,-0.35,0.19,1.04,3.24,2.22,-0.16,1.79,-0.48,0.94,375.00,751.00,176.00,251.00,326.00,704.00,695.00,1008.00,,,,,,,,,,,,1,1,1,,-4740,15364,-1924,571,115,-53
37.901,37.63,-0.42,-0.16,1.21,1.60,1.66,-1.70,3.53,-0.98,1.87,374.00,758.00,187.00,272.00,305.00,714.00,667.00,1003.00,,,,,,,,,,,,1,1,1,,-4668,15520,-2128,125,218,-141
37.942,37.68,-0.38,-0.16,1.66,-1.23,5.14,0.35,1.85,0.58,0.59,365.00,749.00,163.00,277.00,322.00,689.00,695.00,976.00,,,,,,,,,,,,1,1,2,,-4696,15408,-2028,-574,171,-194
38.003,37.74,-0.31,-0.24,1.49,1.25,3.43,0.99,0.90,0.26,0.38,369.00,755.00,171.00,263.00,335.00,689.00,707.00,994.00,,,,,,,,,,,,1,1,2,,-4600,15580,-1900,-290,233,-105
38.085,37.79,-0.36,0.59,-0.33,2.84,0.66,-1.24,2.55,-0.89,1.22,401.00,767.00,193.00,266.00,319.00,720.00,690.00,1017.00,,,,,,,,,,,,1,1,2,,-4720,15428,-1916,118,113,35
38.127,37.85,-0.40,-1.79,2.36,-0.69,3.54,-1.07,3.51,0.05,0.79,362.00,784.00,176.00,283.00,302.00,697.00,694.00,991.00,,,,,,,,,,,,1,1,2,,-4612,15520,-1864,329,51,170
38.147,37.90,-0.28,-0.24,1.09,0.86,3.99,1.93,-0.44,0.53,-0.18,377.00,763.00,167.00,263.00,354.00,688.00,725.00,998.00,,,,,,,,,,,,1,1,2,,-4468,15748,-1988,350,220,-193
38.208,37.96,-0.31,0.71,-0.46,4.34,-0.13,-0.89,2.03,-1.28,1.13,403.00,766.00,196.00,256.00,326.00,720.00,698.00,1035.00,,,,,,,,,,,,1,1,2,,-4488,15424,-2316,244,143,-244
38.27,38.01,-0.37,-1.25,1.09,-0.13,3.25,-1.43,3.08,-0.61,1.18,384.00,794.00,177.00,279.00,311.00,715.00,688.00,1007.00,,,,,,,,,,,,1,1,2,,-4604,15544,-2200,-61,-1,-206
38.312,38.07,-0.33,-1.09,1.33,-1.29,5.51,0.40,1.66,0.46,0.24,378.00,784.00,160.00,275.00,325.00,691.00,710.00,990.00,,,,,,,,,,,,1,1,2,,-4588,15552,-2032,-26,21,-302
38.374,38.12,-0.34,-0.58,0.63,3.66,1.16,-0.51,1.57,-1.05,0.87,389.00,783.00,185.00,254.00,332.00,718.00,705.00,1033.00,,,,,,,,,,,,1,1,2,,-4576,15392,-2016,150,208,-106
38.457,38.18,-0.42,-1.37,1.13,1.00,1.86,-1.95,3.44,-1.03,1.32,384.00,797.00,187.00,277.00,308.00,723.00,688.00,1020.00,,,,,,,,,,,,1,1,2,,-4620,15676,-2232,104,243,-130
38.498,38.23,-0.40,-0.98,2.04,-0.66,3.64,-0.07,1.93,0.53,0.24,363.00,766.00,175.00,282.00,323.00,699.00,709.00,987.00,,,,,,,,,,,,1,1,2,,-4596,15608,-2124,83,283,-104
38.54,38.29,-0.34,0.28,0.92,2.00,3.17,0.75,0.92,0.13,0.45,377.00,751.00,171.00,257.00,336.00,695.00,706.00,997.00,,,,,,,,,,,,1,1,2,,-4504,15448,-2112,127,340,-178
38.642,38.34,-0.38,0.61,0.13,2.75,0.78,-1.09,2.33,-0.73,1.06,391.00,757.00,192.00,266.00,322.00,720.00,694.00,1015.00,,,,,,,,,,,,1,1,2,,-4468,15668,-2192,51,180,-162
38.663,38.40,-0.38,-1.31,1.80,-2.20,4.48,-0.38,2.38,-0.06,0.80,370.00,781.00,172.00,293.00,317.00,699.00,695.00,995.00,,,,,,,,,,,,1,1,2,,-4532,15576,-2224,126,111,-111
38.704,38.45,-0.29,-0.71,1.50,-0.31,4.61,1.33,0.35,0.72,-0.11,372.00,769.00,165.00,271.00,343.00,690.00,720.00,989.00,,,,,,,,,,,,1,1,2,,-4520,15596,-2136,102,3,-157
38.767,38.51,-0.32,0.56,-0.04,5.43,-0.41,-0.81,2.18,-0.64,0.92,395.00,762.00,195.00,247.00,323.00,715.00,698.00,1015.00,,,,,,,,,,,,1,1,2,,-4576,15592,-2164,105,146,-76
38.807,38.56,-0.36,-0.92,1.03,-0.18,3.06,-1.12,3.10,-0.49,1.21,383.00,785.00,179.00,281.00,309.00,706.00,685.00,1001.00,,,,,,,,,,,,1,1,2,,-4548,15512,-2184,90,220,-209
38.87,38.62,-0.30,-1.01,1.50,-1.60,5.96,0.89,1.27,0.32,0.36,374.00,778.00,157.00,275.00,329.00,685.00,707.00,992.00,,,,,,,,,,,,1,1,2,,-4636,15572,-2492,146,167,-191
38.953,38.67,-0.30,0.10,0.40,3.77,2.05,-0.27,1.27,-0.35,0.64,389.00,767.00,176.00,247.00,336.00,717.00,705.00,1011.00,,,,,,,,,,,,1,1,2,,-4572,15472,-2348,122,164,-172
38.995,38.73,-0.37,-1.00,0.96,1.68,1.53,-1.81,3.39,-0.99,1.44,385.00,789.00,188.00,272.00,308.00,720.00,683.00,1015.00,,,,,,,,,,,,1,1,2,,-4624,15600,-2552,49,105,-53
39.057,38.78,-0.35,-1.92,1.75,-2.88,6.39,0.13,1.52,0.01,0.41,375.00,801.00,157.00,286.00,329.00,701.00,709.00,1003.00,,,,,,,,,,,,1,1,2,,-4468,15432,-2200,24,170,-129
39.099,38.84,-0.32,-0.79,0.60,0.73,3.07,0.12,0.54,-0.46,0.36,391.00,790.00,176.00,271.00,347.00,720.00,717.00,1023.00,,,,,,,,,,,,1,1,2,,-4628,15768,-2512,8,153,-320
39.161,38.89,-0.39,0.17,0.09,2.60,0.17,-1.62,2.33,-1.41,1.15,395.00,771.00,199.00,272.00,325.00,735.00,699.00,1040.00,,,,,,,,,,,,1,1,2,,-4576,15388,-2440,-235,55,-227
39.221,38.95,-0.41,-1.34,1.56,-1.01,3.24,-0.80,2.52,-0.31,0.91,375.00,787.00,180.00,289.00,317.00,708.00,694.00,1002.00,,,,,,,,,,,,1,1,2,,-4552,15464,-2412,-141,-42,-171
39.263,39.00,-0.31,-0.59,1.60,-0.22,4.47,1.51,0.13,0.67,-0.20,369.00,763.00,166.00,271.00,346.00,689.00,724.00,993.00,,,,,,,,,,,,1,1,2,,-4600,15496,-2292,26,5,-115
39.365,39.06,-0.35,1.06,-0.44,4.52,0.19,-1.14,2.34,-0.77,0.96,400.00,755.00,192.00,252.00,322.00,721.00,698.00,1019.00,,,,,,,,,,,,1,1,2,,-4644,15488,-2384,-32,191,-15
39.385,39.11,-0.33,-1.09,1.38,0.32,2.59,0.20,2.71,-0.47,1.16,377.00,783.00,182.00,279.00,308.00,677.00,687.00,1002.00,,,,,,,,,,,,1,1,2,,-4580,15468,-2532,-82,280,-58
39.447,39.17,-0.27,-0.68,1.68,-0.73,5.09,0.79,1.47,0.68,0.39,368.00,764.00,162.00,272.00,326.00,684.00,701.00,977.00,,,,,,,,,,,,1,1,2,,-4568,15644,-2544,-101,299,-81
39.467,39.22,-0.24,0.53,0.44,4.30,1.87,0.38,1.05,-0.45,0.93,385.00,753.00,176.00,243.00,336.00,703.00,695.00,1007.00,,,,,,,,,,,,1,1,2,,-4524,15456,-2312,-49,190,-119
39.529,39.28,-0.30,-0.54,0.95,0.95,2.48,-1.57,3.19,-0.83,1.49,382.00,775.00,181.00,273.00,310.00,717.00,679.00,1007.00,,,,,,,,,,,,1,1,2,,-4600,15456,-2396,-42,105,-125
39.591,39.33,-0.27,-1.52,1.97,-1.77,5.67,0.35,1.79,0.45,0.39,368.00,784.00,160.00,279.00,323.00,690.00,704.00,986.00,,,,,,,,,,,,1,1,2,,-4612,15504,-2360,-163,74,-130
39.654,39.39,-0.24,-0.41,0.76,1.84,2.70,0.39,0.66,0.09,0.10,385.00,775.00,176.00,262.00,343.00,710.00,720.00,1008.00,,,,,,,,,,,,1,1,2,,-4536,15588,-2248,-163,90,-121
39.757,39.44,-0.29,-0.25,-0.04,1.84,0.61,-1.29,2.00,-1.36,1.00,401.00,787.00,197.00,277.00,329.00,732.00,704.00,1042.00,,,,,,,,,,,,1,1,2,,-4572,15568,-2432,-130,150,-54
39.777,39.50,-0.31,-1.52,0.57,-1.59,3.33,-0.72,2.09,-0.30,0.65,397.00,814.00,181.00,295.00,324.00,714.00,704.00,1009.00,,,,,,,,,,,,1,1,2,,-4512,15636,-2156,-168,90,-278
39.819,39.55,-0.23,-0.89,1.71,-0.41,4.76,1.37,0.07,0.59,-0.22,369.00,770.00,164.00,271.00,348.00,694.00,726.00,997.00,,,,,,,,,,,,1,1,2,,-4544,15500,-2124,-233,84,-137
39.881,39.61,-0.25,1.11,-0.46,4.74,0.02,-0.65,1.78,-0.71,0.92,400.00,754.00,193.00,251.00,329.00,718.00,699.00,1018.00,,,,,,,,,,,,1,1,2,,-4500,15528,-2196,-33,147,-112
39.923,39.66,-0.29,-1.01,1.65,0.65,2.78,-1.01,3.36,-0.24,1.29,371.00,775.00,179.00,274.00,304.00,698.00,679.00,989.00,,,,,,,,,,,,1,1,2,,-4640,15592,-2340,-45,108,-211
39.985,39.72,-0.23,-0.29,1.71,-0.79,5.46,0.93,1.59,0.87,0.30,365.00,752.00,159.00,270.00,323.00,678.00,702.00,972.00,,,,,,,,,,,,1,1,2,,-4492,15520,-2308,-128,83,-166
40.046,39.77,-0.18,0.49,0.60,4.67,1.64,0.75,1.26,-0.10,0.87,382.00,751.00,177.00,241.00,330.00,689.00,693.00,995.00,,,,,,,,,,,,1,1,2,,-4528,15572,-2228,-143,82,-153
40.108,39.83,-0.23,-0.24,1.19,2.52,1.54,-1.18,3.30,-0.46,1.48,375.00,761.00,185.00,263.00,306.00,704.00,675.00,993.00,,,,,,,,,,,,1,1,2,,-4568,15708,-2240,-7,175,-179
40.149,39.88,-0.19,-0.73,1.95,-1.26,5.73,0.52,2.13,0.58,0.69,363.00,760.00,158.00,273.00,316.00,679.00,691.00,973.00,,,,,,,,,,,,1,1,2,,-4568,15592,-2280,109,196,-171
40.211,39.94,-0.13,0.32,0.76,3.37,2.18,1.04,0.83,-0.03,0.50,380.00,753.00,176.00,250.00,336.00,689.00,706.00,1002.00,,,,,,,,,,,,1,1,2,,-4540,15488,-2332,83,170,-196
40.273,39.99,-0.18,0.17,0.09,2.75,0.78,-1.15,2.46,-0.79,1.00,395.00,771.00,192.00,266.00,320.00,719.00,697.00,1019.00,,,,,,,,,,,,1,1,2,,-4628,15460,-2460,-77,153,-156
40.334,40.05,-0.20,-1.37,1.13,-1.82,3.93,-0.57,2.50,0.02,0.54,384.00,797.00,176.00,293.00,316.00,702.00,704.00,999.00,,,,,,,,,,,,1,1,2,,-4484,15540,-2208,-315,89,-127
40.354,40.10,-0.12,-0.75,1.17,1.13,3.04,1.47,0.25,0.36,-0.14,379.00,777.00,175.00,267.00,344.00,688.00,726.00,1004.00,,,,,,,,,,,,1,1,2,,-4620,15568,-2164,-85,146,-23
40.416,40.16,-0.14,-0.02,-0.58,4.33,-0.41,-0.68,2.19,-0.82,0.92,411.00,791.00,199.00,258.00,322.00,711.00,700.00,1022.00,,,,,,,,,,,,1,1,2,,-4604,15584,-2220,-136,54,-256
40.477,40.21,-0.16,-0.97,1.48,0.37,3.19,-0.53,3.08,-0.08,1.11,374.00,777.00,176.00,274.00,306.00,690.00,684.00,988.00,,,,,,,,,,,,1,1,2,,-4668,15492,-2084,-63,45,-98
40.54,40.27,-0.10,-0.47,2.02,-0.33,5.18,1.12,1.64,1.64,-0.37,360.00,751.00,160.00,267.00,321.00,672.00,718.00,960.00,,,,,,,,,,,,1,1,2,,-4488,15628,-2244,112,237,-96
