Time_Host,Time_Arduino,easingdata,CH1_Oxy,CH1_Deoxy,CH2_Oxy,CH2_Deoxy,CH3_Oxy,CH3_Deoxy,CH4_Oxy,CH4_Deoxy,CH1_PD730,CH1_PD850,CH2_PD730,CH2_PD850,CH3_PD730,CH3_PD850,CH4_PD730,CH4_PD850,Answers,airplane_playstate,trail_times,frameRate,Airplane X,Airplane Y,Correct,Wrong,Slow,AnswerRate,CorrectRate,VFTstates,VFTchoose,VFTCount,Culfstates,ax,ay,az,gx,gy,gz
1.443,0.04,0.00,0.00,0.00,0.00,0.00,0.00,0.00,0.00,0.00,1124.00,2331.00,352.00,524.00,607.00,1191.00,1409.00,2059.00,,,,,,,,,,,,0,0,0,,1552,15992,696,-103,192,-197
1.504,0.10,0.00,0.00,0.00,0.00,0.00,0.00,0.00,0.00,0.00,1145.00,2303.00,386.00,496.00,578.00,1203.00,1408.00,2117.00,,,,,,,,,,,,0,0,0,,1588,16044,524,-34,172,-149
1.525,0.15,0.00,0.00,0.00,0.00,0.00,0.00,0.00,0.00,0.00,1116.00,2317.00,351.00,534.00,570.00,1168.00,1345.00,2047.00,,,,,,,,,,,,0,0,0,,1576,16096,660,-105,123,-115
1.545,0.21,0.00,0.00,0.00,0.00,0.00,0.00,0.00,0.00,0.00,1104.00,2290.00,336.00,501.00,596.00,1138.00,1421.00,2036.00,,,,,,,,,,,,0,0,0,,1656,16244,520,-272,99,-140
1.566,0.26,0.00,0.00,0.00,0.00,0.00,0.00,0.00,0.00,0.00,1132.00,2286.00,363.00,473.00,581.00,1170.00,1335.00,2069.00,,,,,,,,,,,,0,0,0,,1604,16144,708,-178,79,-162
1.587,0.32,0.00,0.00,0.00,0.00,0.00,0.00,0.00,0.00,0.00,1105.00,2301.00,354.00,511.00,558.00,1171.00,1377.00,2006.00,,,,,,,,,,,,0,0,0,,1672,16168,604,-115,108,-165
1.607,1.10,0.00,0.00,0.00,0.00,0.00,0.00,0.00,0.00,0.00,1045.00,2215.00,345.00,528.00,559.00,1152.00,1339.00,2017.00,,,,,,,,,,,,0,0,0,,1640,16140,552,-252,-199,-49
1.628,1.16,0.00,0.00,0.00,0.00,0.00,0.00,0.00,0.00,0.00,1034.00,2182.00,333.00,497.00,598.00,1136.00,1408.00,2013.00,,,,,,,,,,,,0,0,0,,1696,16204,908,-343,-64,1
1.67,1.21,0.00,0.00,0.00,0.00,0.00,0.00,0.00,0.00,0.00,1053.00,2174.00,371.00,478.00,576.00,1169.00,1329.00,2065.00,,,,,,,,,,,,0,0,0,,1648,16184,996,-217,63,-46
1.733,1.27,0.00,0.00,0.00,0.00,0.00,0.00,0.00,0.00,0.00,1039.00,2187.00,357.00,497.00,556.00,1166.00,1371.00,2000.00,,,,,,,,,,,,0,0,0,,1592,16136,896,-89,255,-126
1.794,1.32,0.04,0.34,0.82,-2.13,2.91,0.75,-0.13,0.04,-0.07,1036.00,2180.00,315.00,507.00,574.00,1136.00,1378.00,2043.00,,,,,,,,,,,,0,0,0,,1672,16092,608,-33,169,-120
1.919,1.38,0.05,0.30,0.71,1.58,-0.44,0.21,-0.17,-0.13,0.47,1043.00,2190.00,353.00,479.00,581.00,1162.00,1343.00,2028.00,,,,,,,,,,,,0,0,0,,1768,16132,708,-25,137,-97
1.939,1.43,-0.01,-0.30,1.50,1.04,-1.03,-1.06,1.00,0.38,-0.37,1010.00,2195.00,368.00,497.00,558.00,1184.00,1392.00,2032.00,,,,,,,,,,,,0,0,0,,1728,16140,632,-164,131,-147
1.96,1.49,-0.03,0.03,0.76,-2.54,1.86,-0.47,0.54,-0.80,0.69,1045.00,2210.00,336.00,530.00,566.00,1171.00,1343.00,2070.00,,,,,,,,,,,,0,0,0,,1700,16124,832,-135,98,-162
2.022,1.54,0.01,-0.07,0.89,-0.95,1.33,0.81,-1.24,0.67,-0.67,1040.00,2212.00,336.00,505.00,609.00,1168.00,1408.00,2026.00,,,,,,,,,,,,0,0,0,,1664,16200,764,-221,132,9
2.064,1.60,-0.04,0.68,0.11,2.02,-2.09,-1.06,0.42,-0.85,0.27,1070.00,2192.00,383.00,492.00,576.00,1203.00,1375.00,2097.00,,,,,,,,,,,,0,0,0,,1672,16052,884,-96,108,-241
2.127,1.65,-0.05,-0.18,1.23,-1.89,0.83,-0.22,0.75,0.12,0.37,1023.00,2201.00,351.00,531.00,557.00,1153.00,1344.00,2013.00,,,,,,,,,,,,0,0,0,,1784,16060,716,-167,82,-156
2.19,1.71,0.03,0.35,1.05,-1.09,2.04,1.59,-0.76,1.03,-0.83,1023.00,2166.00,324.00,498.00,585.00,1118.00,1411.00,2006.00,,,,,,,,,,,,0,0,0,,1644,16160,960,-74,160,-112
2.25,1.76,0.05,0.87,0.37,2.89,-1.19,0.44,-0.02,-0.40,0.81,1051.00,2160.00,359.00,464.00,574.00,1147.00,1325.00,2031.00,,,,,,,,,,,,0,0,0,,1764,16152,884,-128,264,-135
2.311,1.82,0.03,0.66,0.60,0.87,0.06,-0.35,1.44,1.10,-0.23,1042.00,2165.00,348.00,486.00,538.00,1138.00,1364.00,1968.00,,,,,,,,,,,,0,0,0,,1688,16116,820,-124,140,-138
2.373,1.87,0.10,0.38,1.20,-1.35,2.36,1.49,-0.15,0.16,0.21,1014.00,2154.00,320.00,499.00,567.00,1104.00,1355.00,2019.00,,,,,,,,,,,,0,0,0,,1616,16180,856,-134,-36,-207
2.393,1.93,0.16,0.44,1.20,2.03,-0.01,1.24,-0.52,0.67,0.10,1013.00,2149.00,342.00,465.00,581.00,1126.00,1350.00,1984.00,,,,,,,,,,,,0,0,0,,1640,16188,1044,-130,104,-144
2.455,1.99,0.15,0.73,0.78,1.74,-0.75,-0.02,0.59,0.55,-0.18,1031.00,2149.00,358.00,480.00,560.00,1149.00,1374.00,2009.00,,,,,,,,,,,,0,0,0,,1792,16120,720,-100,188,-192
2.497,2.04,0.16,0.21,1.10,-0.30,0.51,0.30,0.65,-0.15,0.68,1023.00,2175.00,347.00,503.00,555.00,1133.00,1328.00,2018.00,,,,,,,,,,,,0,0,0,,1656,16212,808,-116,123,-118
2.6,2.10,0.24,0.25,1.30,-0.54,1.46,1.82,-1.34,1.29,-0.82,1011.00,2160.00,331.00,495.00,601.00,1125.00,1403.00,1984.00,,,,,,,,,,,,0,0,0,,1740,16072,1012,-172,114,-181
2.621,2.15,0.21,0.91,0.38,2.99,-2.13,-0.47,0.54,-0.55,0.38,1050.00,2157.00,377.00,474.00,566.00,1171.00,1360.00,2067.00,,,,,,,,,,,,0,0,0,,1656,16144,884,-211,205,-150
2.661,2.20,0.19,0.11,1.13,-1.89,1.05,-0.02,0.79,0.39,0.20,1023.00,2182.00,347.00,528.00,554.00,1143.00,1350.00,2001.00,,,,,,,,,,,,0,0,0,,1732,16164,840,-211,91,-148
2.724,2.26,0.24,0.34,1.09,-1.25,2.21,1.07,-0.43,0.62,-0.62,1021.00,2164.00,322.00,499.00,580.00,1131.00,1405.00,2027.00,,,,,,,,,,,,0,0,0,,1692,16068,1008,-154,56,-136
2.786,2.31,0.24,0.57,0.67,1.71,-0.48,0.18,-0.10,-0.66,0.65,1040.00,2169.00,353.00,477.00,579.00,1161.00,1343.00,2061.00,,,,,,,,,,,,0,0,0,,1652,16000,800,-39,166,-7
2.828,2.37,0.19,0.12,1.13,0.13,-0.06,-0.77,1.27,0.76,-0.49,1023.00,2181.00,355.00,502.00,547.00,1162.00,1392.00,2009.00,,,,,,,,,,,,0,0,0,,1700,16076,656,-189,107,-190
2.889,2.42,0.23,0.28,1.25,-1.47,1.95,1.14,-0.10,-0.10,0.19,1013.00,2160.00,328.00,507.00,569.00,1118.00,1363.00,2041.00,,,,,,,,,,,,0,0,0,,1764,16056,976,-134,15,-81
3.01,2.48,0.29,0.46,1.29,1.73,0.04,1.36,-0.40,0.77,-0.07,1008.00,2143.00,343.00,470.00,576.00,1117.00,1360.00,1985.00,,,,,,,,,,,,0,0,0,,1672,16104,1020,-36,209,-153
3.031,2.54,0.29,0.78,1.10,2.12,-1.08,0.33,0.47,0.50,-0.34,1012.00,2126.00,362.00,477.00,560.00,1137.00,1387.00,2021.00,,,,,,,,,,,,0,0,0,,1736,16136,656,2,186,-133
3.072,2.59,0.31,0.47,1.34,-0.72,0.76,0.70,0.64,-0.06,0.75,1005.00,2139.00,345.00,508.00,551.00,1115.00,1321.00,2007.00,,,,,,,,,,,,0,0,0,,1824,15924,948,-76,-62,-114
3.112,2.64,0.40,0.47,1.58,0.22,1.49,2.05,-0.98,1.62,-0.94,992.00,2125.00,326.00,480.00,587.00,1104.00,1404.00,1965.00,,,,,,,,,,,,0,0,0,,1744,16088,908,-57,91,-227
3.173,2.70,0.40,1.09,0.89,3.29,-1.78,0.38,0.29,-0.30,0.51,1018.00,2112.00,368.00,464.00,565.00,1140.00,1344.00,2039.00,,,,,,,,,,,,0,0,0,,1732,16128,864,-67,138,-152
3.234,2.75,0.40,0.36,1.67,-0.21,0.37,0.35,1.07,0.95,0.05,989.00,2129.00,349.00,503.00,542.00,1118.00,1347.00,1965.00,,,,,,,,,,,,0,0,0,,1756,16176,756,-70,77,-169
3.336,2.81,0.48,0.80,1.50,-0.66,2.01,1.99,-0.45,0.80,-0.43,990.00,2102.00,322.00,490.00,571.00,1091.00,1386.00,2002.00,,,,,,,,,,,,0,0,0,,1732,16144,828,-35,151,-198
3.357,2.87,0.51,0.91,1.34,2.78,-0.79,1.16,-0.23,0.05,0.64,997.00,2102.00,352.00,461.00,573.00,1121.00,1326.00,2004.00,,,,,,,,,,,,0,0,0,,1732,16036,660,-69,62,-170
3.399,2.92,0.47,0.44,1.57,1.30,-0.34,-0.23,1.26,0.95,-0.44,993.00,2128.00,353.00,483.00,542.00,1138.00,1383.00,1991.00,,,,,,,,,,,,0,0,0,,1612,16144,932,-139,75,-169
3.462,2.98,0.50,0.54,1.54,-1.43,1.87,0.97,0.39,-0.53,0.40,993.00,2122.00,329.00,507.00,556.00,1111.00,1358.00,2064.00,,,,,,,,,,,,0,0,0,,1680,16132,828,-54,187,-177
3.503,3.03,0.52,0.63,1.47,0.81,0.46,1.01,-0.31,1.08,-0.53,995.00,2118.00,341.00,482.00,577.00,1130.00,1387.00,1986.00,,,,,,,,,,,,0,0,0,,1600,16072,776,-3,161,-84
3.584,3.08,0.47,0.82,1.16,1.51,-1.18,-0.47,0.64,-0.09,-0.09,1008.00,2119.00,368.00,490.00,563.00,1168.00,1383.00,2055.00,,,,,,,,,,,,0,0,0,,1756,16184,536,94,127,-189
3.646,3.14,0.47,0.51,1.45,-1.91,1.00,0.35,0.96,0.06,0.51,998.00,2129.00,348.00,529.00,545.00,1121.00,1335.00,2010.00,,,,,,,,,,,,0,0,0,,1640,15996,752,-20,165,-198
3.666,3.19,0.57,0.61,1.93,-0.11,1.21,2.52,-1.29,1.47,-0.90,971.00,2094.00,333.00,490.00,592.00,1093.00,1405.00,1975.00,,,,,,,,,,,,0,0,0,,1760,16152,708,-74,162,-173
3.707,3.25,0.57,1.24,1.28,3.31,-1.89,0.56,0.39,0.20,-0.09,994.00,2078.00,370.00,465.00,560.00,1129.00,1376.00,2032.00,,,,,,,,,,,,0,0,0,,1612,16064,736,-209,65,-91
3.768,3.31,0.57,0.81,1.78,0.57,-0.10,0.61,1.22,1.32,-0.25,975.00,2085.00,353.00,494.00,535.00,1102.00,1360.00,1952.00,,,,,,,,,,,,0,0,0,,1668,16044,748,-217,125,-166
3.832,3.36,0.65,1.08,1.77,-0.24,1.70,2.10,-0.13,1.29,-1.09,971.00,2064.00,325.00,486.00,560.00,1077.00,1424.00,1999.00,,,,,,,,,,,,0,0,0,,1652,16276,776,-80,302,-141
3.873,3.41,0.70,1.15,1.65,3.22,-0.78,1.64,-0.14,0.39,0.51,976.00,2065.00,349.00,453.00,565.00,1097.00,1327.00,1984.00,,,,,,,,,,,,0,0,0,,1804,16168,660,28,132,-138
3.934,3.47,0.68,1.05,1.70,2.03,-0.80,0.31,1.49,1.33,-0.55,975.00,2070.00,357.00,475.00,530.00,1107.00,1382.00,1967.00,,,,,,,,,,,,0,0,0,,1732,16080,716,-32,77,-166
3.996,3.52,0.72,0.85,1.98,-0.48,1.44,1.53,0.33,0.20,0.38,964.00,2071.00,331.00,494.00,552.00,1088.00,1341.00,2006.00,,,,,,,,,,,,0,0,0,,1668,16148,716,-50,162,-174
4.078,3.58,0.78,0.90,2.02,1.05,0.65,1.93,-0.56,1.48,-0.52,961.00,2065.00,336.00,475.00,575.00,1097.00,1376.00,1954.00,,,,,,,,,,,,0,0,0,,1768,16180,604,-149,133,-218
4.098,3.63,0.75,1.36,1.37,3.08,-1.71,0.21,0.48,0.18,-0.19,987.00,2063.00,368.00,467.00,561.00,1142.00,1384.00,2039.00,,,,,,,,,,,,0,0,0,,1772,16104,732,-198,97,-156
4.16,3.69,0.75,0.74,1.83,-1.89,1.05,0.73,0.80,0.24,0.45,974.00,2089.00,347.00,528.00,546.00,1109.00,1335.00,1999.00,,,,,,,,,,,,0,0,0,,1580,16236,820,-267,163,-179
4.202,3.75,0.82,0.89,2.06,0.03,1.38,2.13,-0.78,1.33,-0.99,959.00,2063.00,329.00,485.00,580.00,1095.00,1415.00,1990.00,,,,,,,,,,,,0,0,0,,1664,16152,668,-154,69,-171
4.286,3.80,0.81,1.36,1.26,3.45,-1.94,0.56,0.33,-0.53,0.56,993.00,2069.00,370.00,463.00,562.00,1131.00,1346.00,2055.00,,,,,,,,,,,,0,0,0,,1700,16236,776,-12,111,-17
4.346,3.85,0.77,0.60,2.08,0.74,-0.05,0.08,1.26,1.17,-0.44,963.00,2086.00,351.00,490.00,539.00,1124.00,1378.00,1974.00,,,,,,,,,,,,0,0,0,,1744,16112,808,-58,135,-218
4.386,3.91,0.84,1.11,2.18,-1.01,2.54,2.16,-0.08,0.33,-0.22,949.00,2039.00,315.00,490.00,558.00,1073.00,1382.00,2028.00,,,,,,,,,,,,0,0,0,,1628,16056,644,-103,11,-215
4.468,3.96,0.88,1.31,1.98,3.60,-1.01,1.61,-0.06,0.47,0.27,956.00,2034.00,351.00,449.00,563.00,1096.00,1343.00,1991.00,,,,,,,,,,,,0,0,0,,1568,16152,736,-109,108,-177
4.489,4.02,0.87,1.45,1.87,2.63,-1.20,0.79,0.92,1.15,-0.49,959.00,2028.00,361.00,469.00,542.00,1103.00,1382.00,1978.00,,,,,,,,,,,,0,0,0,,1700,16176,808,-145,208,-179
4.551,4.08,0.91,1.17,2.14,-0.27,0.99,1.66,0.46,0.09,0.55,950.00,2036.00,338.00,496.00,547.00,1079.00,1332.00,2006.00,,,,,,,,,,,,0,0,0,,1692,16084,696,-132,114,-120
4.612,4.13,1.00,1.23,2.24,1.65,0.56,2.67,-0.93,1.80,-0.84,944.00,2026.00,334.00,465.00,579.00,1076.00,1392.00,1946.00,,,,,,,,,,,,0,0,0,,1612,16188,768,-82,48,-194
4.674,4.18,1.00,1.75,1.66,3.71,-2.07,0.96,0.09,0.06,0.14,965.00,2016.00,371.00,460.00,565.00,1120.00,1362.00,2030.00,,,,,,,,,,,,0,0,0,,1636,15992,688,-36,138,-132
4.715,4.24,1.00,0.93,2.32,-0.48,0.62,1.00,1.12,0.69,0.36,945.00,2046.00,346.00,505.00,534.00,1088.00,1331.00,1969.00,,,,,,,,,,,,0,0,0,,1752,16132,644,-73,139,-154
4.817,4.29,1.08,1.21,2.24,0.22,1.72,2.68,-0.81,1.47,-0.94,944.00,2027.00,322.00,477.00,575.00,1072.00,1408.00,1977.00,,,,,,,,,,,,0,0,0,,1664,16120,584,-138,91,-179
4.837,4.35,1.11,2.18,0.89,3.31,-1.07,1.56,0.06,-0.13,0.59,998.00,2023.00,354.00,455.00,560.00,1095.00,1334.00,2021.00,,,,,,,,,,,,0,0,0,,1640,16088,836,-197,84,-163
4.878,4.41,1.08,1.14,2.13,1.53,-0.53,0.48,1.50,1.63,-0.65,951.00,2039.00,355.00,481.00,528.00,1099.00,1382.00,1949.00,,,,,,,,,,,,0,0,0,,1616,16108,708,-161,185,-138
4.94,4.46,1.13,1.24,2.10,-0.44,2.00,2.08,0.02,0.33,-0.12,951.00,2033.00,321.00,486.00,556.00,1074.00,1375.00,2023.00,,,,,,,,,,,,0,0,0,,1556,16152,812,-137,133,-197
4.98,4.51,1.15,1.28,1.93,3.22,-0.78,1.69,-0.41,0.65,-0.04,959.00,2039.00,349.00,453.00,573.00,1103.00,1361.00,1993.00,,,,,,,,,,,,0,0,0,,1600,16096,684,-104,32,-145
5.022,4.57,1.10,1.22,1.87,1.85,-0.99,-0.01,1.29,0.54,-0.43,963.00,2047.00,362.00,481.00,539.00,1127.00,1393.00,2023.00,,,,,,,,,,,,0,0,0,,1592,16052,832,-59,146,13
5.085,4.62,1.09,0.93,1.89,-0.65,0.74,0.91,0.68,-0.21,0.61,967.00,2069.00,345.00,507.00,548.00,1105.00,1335.00,2027.00,,,,,,,,,,,,0,0,0,,1788,16148,760,-124,174,-303
5.19,4.68,1.18,1.07,2.31,0.96,0.63,3.00,-1.42,1.79,-1.08,943.00,2035.00,337.00,477.00,591.00,1076.00,1410.00,1959.00,,,,,,,,,,,,0,0,0,,1556,16060,588,-197,50,-134
5.211,4.74,1.16,1.87,1.46,3.87,-2.47,0.76,0.76,0.07,0.11,973.00,2017.00,378.00,462.00,547.00,1109.00,1364.00,2031.00,,,,,,,,,,,,0,0,0,,1612,16120,768,-68,145,-113
5.252,4.79,1.16,1.07,2.33,-0.06,0.75,1.15,1.25,1.01,0.11,942.00,2034.00,341.00,495.00,529.00,1078.00,1341.00,1957.00,,,,,,,,,,,,0,0,0,,1656,16196,660,-92,200,-110
5.313,4.84,1.26,1.39,2.28,1.01,1.51,3.10,-0.69,1.54,-0.77,939.00,2011.00,321.00,465.00,567.00,1051.00,1393.00,1962.00,,,,,,,,,,,,0,0,0,,1644,16096,532,-31,155,-184
5.355,4.90,1.28,1.56,1.99,3.66,-0.77,1.71,0.24,0.83,0.54,951.00,2013.00,346.00,445.00,553.00,1083.00,1315.00,1949.00,,,,,,,,,,,,0,0,0,,1644,16260,632,-25,72,-158
5.415,4.95,1.25,1.27,2.34,2.25,-0.56,0.75,1.52,1.59,-0.53,938.00,2017.00,351.00,468.00,525.00,1087.00,1374.00,1946.00,,,,,,,,,,,,0,0,0,,1696,16100,792,-45,160,-149
5.477,5.01,1.30,1.32,2.34,-1.16,2.30,2.12,0.37,0.60,0.11,937.00,2013.00,320.00,496.00,545.00,1062.00,1351.00,1989.00,,,,,,,,,,,,0,0,0,,1608,16088,620,-109,168,-156
5.579,5.07,1.35,1.38,2.19,3.18,-0.23,2.40,-0.39,1.29,-0.20,944.00,2017.00,339.00,447.00,565.00,1072.00,1357.00,1952.00,,,,,,,,,,,,0,0,0,,1656,16180,616,-42,79,-182
5.599,5.12,1.34,1.56,1.99,3.24,-1.46,1.03,0.53,0.92,-0.40,951.00,2013.00,362.00,461.00,551.00,1104.00,1381.00,1991.00,,,,,,,,,,,,0,0,0,,1536,16080,716,-156,115,-138
5.64,5.17,1.33,1.03,2.19,-0.28,0.56,1.21,0.81,0.30,0.52,950.00,2045.00,346.00,502.00,541.00,1088.00,1329.00,1991.00,,,,,,,,,,,,0,0,0,,1628,16084,720,-104,179,-91
5.701,5.23,1.39,1.10,2.28,1.40,0.54,2.51,-1.01,1.83,-1.04,944.00,2034.00,336.00,470.00,583.00,1085.00,1406.00,1954.00,,,,,,,,,,,,0,0,0,,1668,16208,632,-128,189,-113
5.743,5.29,1.35,1.69,1.45,3.56,-2.17,0.61,0.44,-0.24,0.37,977.00,2032.00,374.00,464.00,558.00,1125.00,1353.00,2042.00,,,,,,,,,,,,0,0,0,,1608,16160,716,-89,143,-162
5.806,5.34,1.30,0.63,2.30,0.16,0.20,0.37,1.51,0.94,-0.06,951.00,2071.00,350.00,498.00,529.00,1104.00,1355.00,1971.00,,,,,,,,,,,,0,0,0,,1644,16092,748,-45,33,-153
5.846,5.39,1.32,1.02,2.06,-0.00,1.51,1.77,-0.01,0.82,-0.53,957.00,2053.00,327.00,484.00,560.00,1088.00,1393.00,2006.00,,,,,,,,,,,,0,0,0,,1660,16032,804,-49,180,27
5.931,5.45,1.31,1.19,1.81,2.83,-0.70,0.99,0.25,0.06,0.45,967.00,2053.00,350.00,459.00,560.00,1114.00,1340.00,2014.00,,,,,,,,,,,,0,0,0,,1756,16044,644,-162,219,-302
5.972,5.50,1.28,0.65,2.75,1.76,-0.39,0.66,1.44,1.38,-0.66,928.00,2045.00,351.00,475.00,528.00,1093.00,1389.00,1969.00,,,,,,,,,,,,0,0,0,,1616,16176,676,-129,39,-134
6.032,5.56,1.31,1.19,2.19,-2.09,4.81,1.93,0.40,0.54,0.16,947.00,2032.00,284.00,481.00,546.00,1069.00,1349.00,1991.00,,,,,,,,,,,,0,0,0,,1728,16172,672,-107,87,-87
6.095,5.62,1.36,1.20,2.29,2.36,0.32,2.40,-0.39,1.64,-0.37,942.00,2026.00,334.00,455.00,565.00,1072.00,1361.00,1934.00,,,,,,,,,,,,0,0,0,,1732,16240,668,-83,246,-175
6.157,5.67,1.33,1.73,1.80,3.95,-1.85,0.67,0.96,0.87,-0.14,958.00,2010.00,365.00,453.00,542.00,1107.00,1363.00,1981.00,,,,,,,,,,,,0,0,0,,1612,16016,568,-129,46,-205
6.219,5.72,1.33,1.15,2.22,-0.10,0.66,1.30,0.88,1.09,0.03,946.00,2033.00,343.00,497.00,538.00,1082.00,1345.00,1955.00,,,,,,,,,,,,0,0,0,,1696,16212,688,-115,30,-156
6.281,5.78,1.41,1.37,2.39,1.60,0.63,2.99,-0.94,2.13,-1.05,934.00,2007.00,333.00,465.00,576.00,1063.00,1399.00,1931.00,,,,,,,,,,,,0,0,0,,1776,16172,536,-86,167,-154
6.303,5.83,1.39,1.86,1.62,4.25,-1.39,1.03,0.53,0.26,0.55,965.00,2009.00,354.00,442.00,551.00,1104.00,1328.00,1993.00,,,,,,,,,,,,0,0,0,,1740,16092,624,-108,118,-183
6.362,5.89,1.41,1.07,2.31,1.32,-0.14,1.68,0.18,1.64,-0.14,943.00,2035.00,349.00,480.00,555.00,1086.00,1344.00,1922.00,,,,,,,,,,,,0,0,0,,1600,16176,584,-139,105,-217
6.403,5.95,1.46,1.39,2.18,0.47,1.75,2.48,0.05,1.25,-0.51,944.00,2016.00,320.00,472.00,551.00,1056.00,1381.00,1971.00,,,,,,,,,,,,0,0,0,,1564,16208,812,-204,65,-176
6.465,6.00,1.48,1.53,1.88,3.61,-0.86,1.83,-0.03,0.67,0.41,957.00,2021.00,348.00,447.00,560.00,1086.00,1328.00,1968.00,,,,,,,,,,,,0,0,0,,1596,16096,724,-105,257,-116
6.527,6.05,1.42,1.46,1.79,2.22,-0.91,0.31,1.49,1.19,-0.43,963.00,2032.00,358.00,473.00,530.00,1107.00,1376.00,1971.00,,,,,,,,,,,,0,0,0,,1700,16124,552,-117,184,-122
6.57,6.11,1.43,0.91,2.36,-0.72,2.03,1.59,0.24,0.33,0.34,943.00,2045.00,322.00,491.00,554.00,1088.00,1341.00,1998.00,,,,,,,,,,,,0,0,0,,1708,16308,708,-173,89,-179
6.652,6.16,1.45,1.02,2.25,0.71,0.77,1.79,-0.22,1.71,-0.61,947.00,2042.00,336.00,480.00,566.00,1093.00,1377.00,1941.00,,,,,,,,,,,,0,0,0,,1712,16136,752,-133,-26,-154
6.672,6.22,1.37,1.56,1.51,3.60,-2.23,-0.17,1.00,0.16,0.00,976.00,2039.00,375.00,464.00,549.00,1143.00,1370.00,2030.00,,,,,,,,,,,,0,0,0,,1736,16060,536,-108,55,-32
6.734,6.28,1.32,0.64,2.10,-0.53,0.48,0.52,1.08,0.58,0.35,961.00,2081.00,349.00,508.00,540.00,1110.00,1334.00,1978.00,,,,,,,,,,,,0,0,0,,1712,16124,788,-147,147,-284
6.795,6.33,1.40,1.09,2.27,0.91,1.26,2.79,-0.97,1.90,-1.09,945.00,2036.00,326.00,470.00,579.00,1072.00,1408.00,1951.00,,,,,,,,,,,,0,0,0,,1652,15956,604,-116,96,-96
6.837,6.38,1.39,1.73,1.64,4.44,-2.17,1.32,0.30,0.32,0.62,966.00,2018.00,368.00,448.00,555.00,1098.00,1321.00,1984.00,,,,,,,,,,,,0,0,0,,1680,16092,604,-53,145,-58
6.898,6.44,1.34,1.21,2.24,2.27,-0.35,0.27,1.75,1.99,-0.41,944.00,2027.00,347.00,465.00,523.00,1101.00,1355.00,1909.00,,,,,,,,,,,,0,0,0,,1728,16168,756,-142,180,-50
6.959,6.50,1.38,1.31,2.33,-0.03,2.32,2.24,0.33,1.24,-0.09,938.00,2015.00,313.00,474.00,545.00,1058.00,1350.00,1950.00,,,,,,,,,,,,0,0,0,,1672,16080,804,-191,128,-172
7.04,6.55,1.41,1.56,2.03,3.75,-0.31,1.95,-0.07,1.41,0.26,949.00,2011.00,337.00,438.00,560.00,1082.00,1321.00,1919.00,,,,,,,,,,,,0,0,0,,1660,16256,532,-95,149,-189
7.061,6.61,1.37,1.47,2.15,2.96,-1.21,0.55,1.41,1.79,-0.41,944.00,2011.00,359.00,463.00,530.00,1099.00,1360.00,1924.00,,,,,,,,,,,,0,0,0,,1704,16256,684,-108,116,-125
7.123,6.66,1.36,1.40,2.12,0.59,0.86,1.27,0.79,0.76,0.63,947.00,2019.00,335.00,481.00,541.00,1086.00,1310.00,1949.00,,,,,,,,,,,,0,0,0,,1664,16132,676,8,129,-169
7.185,6.71,1.44,1.26,2.37,2.03,0.32,2.91,-1.14,2.49,-0.96,937.00,2017.00,336.00,461.00,583.00,1072.00,1383.00,1899.00,,,,,,,,,,,,0,0,0,,1596,16204,540,-45,174,-188
7.248,6.77,1.39,1.93,1.58,5.76,-2.76,0.41,0.95,0.71,0.21,966.00,2006.00,371.00,432.00,545.00,1119.00,1341.00,1975.00,,,,,,,,,,,,0,0,0,,1600,16076,324,-145,71,-153
7.308,6.83,1.36,0.97,2.32,-0.13,0.56,0.85,1.28,1.37,0.25,944.00,2042.00,345.00,499.00,531.00,1090.00,1322.00,1922.00,,,,,,,,,,,,0,0,0,,1668,16148,636,-203,112,-139
7.391,6.88,1.41,1.39,2.18,0.99,1.46,2.27,-0.38,1.87,-0.69,944.00,2016.00,322.00,466.00,566.00,1077.00,1379.00,1933.00,,,,,,,,,,,,0,0,0,,1684,16192,736,-149,191,-196
7.412,6.93,1.39,1.60,1.82,3.81,-1.24,1.05,0.29,0.46,0.66,959.00,2019.00,354.00,448.00,558.00,1110.00,1315.00,1971.00,,,,,,,,,,,,0,0,0,,1700,16068,728,-146,69,-156
7.474,6.99,1.31,1.05,2.30,1.39,-0.16,-0.16,1.72,1.94,-0.53,944.00,2037.00,349.00,479.00,528.00,1121.00,1365.00,1919.00,,,,,,,,,,,,0,0,0,,1636,16044,820,-75,15,-146
7.515,7.04,1.31,1.20,2.19,-0.01,1.91,1.30,0.51,0.75,0.16,947.00,2031.00,320.00,479.00,549.00,1093.00,1344.00,1975.00,,,,,,,,,,,,0,0,0,,1684,16448,584,-24,219,-200
7.576,7.10,1.33,1.25,2.11,2.74,-0.41,1.70,-0.16,1.57,-0.11,950.00,2031.00,345.00,457.00,565.00,1095.00,1343.00,1925.00,,,,,,,,,,,,0,0,0,,1640,16104,592,-132,122,-116
7.618,7.16,1.28,1.44,2.17,2.87,-1.08,0.41,0.98,1.59,-0.34,944.00,2013.00,357.00,463.00,544.00,1118.00,1360.00,1936.00,,,,,,,,,,,,0,0,0,,1624,16072,752,-134,90,-143
7.68,7.21,1.27,1.26,2.33,0.13,0.85,1.06,1.10,0.96,0.76,939.00,2019.00,338.00,490.00,534.00,1086.00,1296.00,1927.00,,,,,,,,,,,,0,0,0,,1704,16200,684,-112,133,-124
7.74,7.26,1.34,1.41,2.45,1.48,0.90,2.65,-0.83,2.72,-0.91,930.00,2000.00,329.00,464.00,576.00,1074.00,1374.00,1880.00,,,,,,,,,,,,0,0,0,,1676,16164,692,-98,160,-133
7.781,7.32,1.30,2.17,1.61,4.81,-2.54,0.55,0.90,0.81,0.49,960.00,1985.00,373.00,446.00,545.00,1114.00,1319.00,1953.00,,,,,,,,,,,,0,0,0,,1720,16132,576,-80,114,-158
7.842,7.37,1.27,1.24,2.37,0.25,0.59,0.69,1.40,2.13,0.11,937.00,2018.00,342.00,491.00,529.00,1093.00,1314.00,1872.00,,,,,,,,,,,,0,0,0,,1668,16276,640,-25,36,-140
7.883,7.43,1.32,1.39,2.56,0.30,1.92,2.29,-0.02,1.93,-0.32,925.00,1996.00,318.00,473.00,555.00,1066.00,1350.00,1909.00,,,,,,,,,,,,0,0,0,,1728,16088,648,-87,29,-180
7.945,7.49,1.34,1.80,2.04,3.88,-0.84,1.62,0.14,1.08,0.72,944.00,1991.00,346.00,442.00,557.00,1090.00,1296.00,1920.00,,,,,,,,,,,,0,0,0,,1656,16224,596,-26,127,-149
8.006,7.54,1.26,1.40,2.44,1.89,0.04,-0.20,2.34,2.22,-0.43,931.00,2002.00,342.00,467.00,511.00,1104.00,1351.00,1893.00,,,,,,,,,,,,0,0,0,,1616,16076,564,-81,139,-209
8.047,7.59,1.28,1.33,2.38,-0.24,2.16,1.66,0.46,1.17,0.24,935.00,2010.00,317.00,480.00,547.00,1079.00,1328.00,1938.00,,,,,,,,,,,,0,0,0,,1644,16176,656,-164,139,-184
8.152,7.65,1.30,1.41,2.20,2.60,0.30,1.58,-0.12,2.19,-0.37,943.00,2014.00,333.00,451.00,565.00,1099.00,1347.00,1892.00,,,,,,,,,,,,0,0,0,,1652,16088,796,-161,166,-144
8.172,7.70,1.24,1.76,1.94,3.43,-1.57,0.09,0.85,1.27,-0.24,950.00,2000.00,363.00,459.00,551.00,1136.00,1360.00,1955.00,,,,,,,,,,,,0,0,0,,1720,16188,664,-131,67,-140
8.233,7.76,1.20,1.09,2.29,-1.08,1.15,0.61,0.91,0.90,0.68,944.00,2035.00,340.00,510.00,544.00,1111.00,1303.00,1936.00,,,,,,,,,,,,0,0,0,,1656,16012,804,-32,109,-141
8.275,7.82,1.23,1.27,2.30,0.67,1.06,1.74,-0.65,3.39,-1.38,940.00,2019.00,331.00,477.00,580.00,1108.00,1392.00,1854.00,,,,,,,,,,,,0,0,0,,1784,16376,552,-43,177,-96
8.336,7.87,1.18,1.86,1.69,4.23,-2.35,0.26,0.96,0.44,0.61,961.00,2005.00,373.00,454.00,546.00,1125.00,1319.00,1975.00,,,,,,,,,,,,0,0,0,,1664,16148,600,-145,192,-118
8.376,7.92,1.15,1.33,2.48,1.46,-0.19,0.45,1.51,2.17,-0.10,930.00,2005.00,349.00,478.00,528.00,1100.00,1328.00,1880.00,,,,,,,,,,,,0,0,0,,1664,16152,556,-167,61,-98
8.479,7.98,1.19,1.67,2.38,0.67,2.09,2.06,0.42,1.91,-0.32,929.00,1983.00,313.00,464.00,544.00,1063.00,1350.00,1910.00,,,,,,,,,,,,0,0,0,,1600,16188,736,-173,38,-120
8.499,8.04,1.22,1.93,2.20,4.16,-0.39,1.80,0.17,1.53,0.57,934.00,1973.00,336.00,432.00,554.00,1081.00,1296.00,1894.00,,,,,,,,,,,,0,0,0,,1680,16192,816,-202,167,-183
8.561,8.09,1.18,1.72,2.41,2.98,-0.59,0.45,1.69,2.46,-0.43,927.00,1978.00,347.00,455.00,523.00,1095.00,1345.00,1875.00,,,,,,,,,,,,0,0,0,,1652,16200,716,-88,126,-124
8.621,8.15,1.20,1.71,2.25,0.15,1.74,1.54,0.87,1.34,0.58,935.00,1987.00,322.00,478.00,536.00,1072.00,1300.00,1908.00,,,,,,,,,,,,0,0,0,,1648,16208,740,-61,65,-154
8.661,8.20,1.26,1.45,2.70,1.47,1.07,2.31,-0.29,2.76,-0.48,917.00,1984.00,326.00,462.00,563.00,1073.00,1341.00,1855.00,,,,,,,,,,,,0,0,0,,1716,16172,480,31,169,-120
8.722,8.26,1.21,2.03,1.97,4.46,-2.02,0.29,1.05,1.40,0.04,944.00,1977.00,365.00,446.00,543.00,1121.00,1337.00,1931.00,,,,,,,,,,,,0,0,0,,1708,16224,536,-47,212,-128
8.762,8.31,1.19,1.50,2.32,-0.40,1.25,0.79,1.19,1.51,0.57,935.00,2000.00,334.00,495.00,534.00,1095.00,1296.00,1895.00,,,,,,,,,,,,0,0,0,,1776,16072,448,-125,132,-150
8.864,8.37,1.24,1.52,2.53,1.45,1.42,2.30,-0.49,2.63,-0.88,924.00,1987.00,320.00,458.00,569.00,1079.00,1374.00,1885.00,,,,,,,,,,,,0,0,0,,1668,16236,556,-189,122,-130
8.884,8.42,1.23,1.93,1.96,4.94,-1.98,0.97,0.49,0.93,0.63,946.00,1985.00,361.00,437.00,553.00,1108.00,1306.00,1936.00,,,,,,,,,,,,0,0,0,,1748,16196,624,-179,174,-120
8.946,8.48,1.16,1.28,2.43,1.41,0.21,-0.14,1.89,2.32,-0.33,933.00,2011.00,342.00,474.00,523.00,1115.00,1341.00,1880.00,,,,,,,,,,,,0,0,0,,1700,16204,696,-70,84,-161
8.988,8.53,1.18,1.38,2.48,-0.85,2.84,1.53,0.33,1.37,-0.14,929.00,2001.00,309.00,483.00,552.00,1088.00,1351.00,1943.00,,,,,,,,,,,,0,0,0,,1772,16188,496,-87,52,-202
9.051,8.59,1.16,1.53,2.23,2.97,0.01,0.85,0.30,1.14,0.32,939.00,2002.00,336.00,448.00,560.00,1119.00,1323.00,1936.00,,,,,,,,,,,,0,0,0,,1656,16120,616,-64,147,-136
9.111,8.64,1.06,1.37,2.23,1.94,-0.35,-0.82,1.73,1.47,-0.35,942.00,2015.00,349.00,471.00,534.00,1150.00,1363.00,1945.00,,,,,,,,,,,,0,0,0,,1648,16172,636,-101,223,28
9.152,8.70,1.02,1.35,1.98,-0.48,1.22,0.09,1.02,0.51,0.64,955.00,2030.00,335.00,497.00,546.00,1131.00,1315.00,1968.00,,,,,,,,,,,,0,0,0,,1748,16104,652,-176,167,-255
9.214,8.75,1.07,1.46,2.37,1.29,0.85,2.11,-0.62,2.60,-0.83,933.00,2000.00,331.00,468.00,575.00,1091.00,1371.00,1885.00,,,,,,,,,,,,0,0,0,,1584,16148,704,-164,29,-173
9.275,8.81,1.02,2.20,1.68,4.11,-1.60,0.06,1.10,1.01,0.21,956.00,1979.00,359.00,447.00,544.00,1130.00,1334.00,1952.00,,,,,,,,,,,,0,0,0,,1680,16148,648,-70,86,-102
9.335,8.86,1.00,1.29,2.61,0.33,0.78,0.66,1.59,1.86,0.36,924.00,2001.00,338.00,487.00,524.00,1089.00,1303.00,1880.00,,,,,,,,,,,,0,0,0,,1580,16184,548,-101,174,-129
9.398,8.91,1.08,1.47,2.79,0.91,1.89,2.51,-0.06,2.63,-0.72,912.00,1977.00,315.00,462.00,554.00,1058.00,1362.00,1877.00,,,,,,,,,,,,0,0,0,,1644,16100,412,-152,115,-209
9.439,8.97,1.10,2.09,2.12,4.16,-0.39,1.45,0.66,1.16,0.83,935.00,1964.00,336.00,432.00,543.00,1082.00,1286.00,1908.00,,,,,,,,,,,,0,0,0,,1724,16320,580,30,99,-150
9.48,9.03,1.05,1.41,2.77,1.89,0.37,0.19,2.35,2.76,-0.44,914.00,1983.00,336.00,463.00,507.00,1087.00,1338.00,1853.00,,,,,,,,,,,,0,0,0,,1520,16204,564,-61,198,-143
9.582,9.08,1.10,1.67,2.55,0.16,2.68,1.97,0.69,1.64,0.11,921.00,1975.00,306.00,466.00,537.00,1059.00,1326.00,1909.00,,,,,,,,,,,,0,0,0,,1680,16220,492,-34,117,-155
9.622,9.14,1.13,1.82,2.35,3.46,0.12,1.86,0.05,2.20,-0.01,928.00,1973.00,331.00,438.00,557.00,1082.00,1321.00,1873.00,,,,,,,,,,,,0,0,0,,1688,16100,420,-165,48,-179
9.683,9.19,1.11,1.89,2.31,2.43,-0.36,0.67,0.96,1.90,-0.35,929.00,1970.00,346.00,462.00,542.00,1107.00,1353.00,1913.00,,,,,,,,,,,,0,0,0,,1716,16204,604,-196,73,-158
9.703,9.25,1.09,1.50,2.32,0.23,0.93,0.64,1.14,1.17,0.69,935.00,2000.00,336.00,487.00,537.00,1103.00,1296.00,1915.00,,,,,,,,,,,,0,0,0,,1676,16140,700,-198,156,-165
9.766,9.30,1.14,1.44,2.50,0.80,1.81,2.17,-0.64,2.73,-0.97,927.00,1995.00,317.00,465.00,575.00,1089.00,1378.00,1882.00,,,,,,,,,,,,0,0,0,,1608,16112,640,-90,204,-148
9.827,9.36,1.08,2.07,1.68,4.24,-1.95,0.01,0.81,0.63,0.46,958.00,1989.00,365.00,449.00,553.00,1141.00,1325.00,1968.00,,,,,,,,,,,,0,0,0,,1632,16048,528,-121,120,-144
9.867,9.41,1.15,1.09,2.54,-0.02,0.85,2.48,0.83,1.82,0.12,931.00,2021.00,339.00,493.00,528.00,1034.00,1321.00,1895.00,,,,,,,,,,,,0,0,0,,1716,16128,696,-91,62,-156
9.969,9.47,1.17,1.41,2.45,-0.05,2.27,1.38,0.18,1.70,-0.50,930.00,2000.00,314.00,475.00,558.00,1099.00,1369.00,1936.00,,,,,,,,,,,,0,0,0,,1720,16044,688,-103,132,-165
9.991,9.52,1.12,1.48,2.11,3.06,-0.13,0.27,0.59,0.74,0.62,946.00,2013.00,338.00,448.00,557.00,1136.00,1311.00,1951.00,,,,,,,,,,,,0,0,0,,1740,16464,564,-143,196,-140
10.032,9.58,1.05,1.34,2.30,1.92,0.09,-0.37,1.83,2.19,-0.59,939.00,2014.00,341.00,466.00,527.00,1127.00,1363.00,1903.00,,,,,,,,,,,,0,0,0,,1760,16064,380,-210,119,-201
10.094,9.63,1.06,1.45,2.58,-0.03,2.32,1.27,0.76,1.19,0.27,923.00,1990.00,313.00,474.00,542.00,1087.00,1325.00,1935.00,,,,,,,,,,,,0,0,0,,1608,16120,640,-138,-22,-111
10.155,9.69,1.09,1.69,2.46,2.60,0.80,1.71,0.24,2.23,-0.17,925.00,1978.00,324.00,445.00,553.00,1083.00,1332.00,1879.00,,,,,,,,,,,,0,0,0,,1668,16176,732,-85,244,-136
10.216,9.74,1.05,2.06,2.13,3.62,-1.12,0.31,1.35,1.65,-0.12,935.00,1966.00,353.00,450.00,534.00,1111.00,1342.00,1920.00,,,,,,,,,,,,0,0,0,,1672,16188,612,-138,170,-194
10.258,9.80,1.04,1.34,2.82,0.16,1.34,0.78,1.51,1.41,0.84,913.00,1986.00,329.00,483.00,525.00,1086.00,1280.00,1889.00,,,,,,,,,,,,0,0,0,,1660,16124,556,-95,81,-72
10.319,9.85,1.10,1.62,2.74,3.65,-1.90,2.24,-0.34,3.00,-0.84,912.00,1968.00,368.00,459.00,565.00,1077.00,1362.00,1856.00,,,,,,,,,,,,0,0,0,,1656,16156,664,-75,109,-217
10.38,9.91,1.07,2.42,1.82,5.41,-2.24,0.49,1.29,0.99,0.72,945.00,1955.00,363.00,432.00,534.00,1105.00,1298.00,1927.00,,,,,,,,,,,,0,0,0,,1584,16096,496,-89,126,-157
10.441,9.96,1.03,1.60,2.77,-0.58,3.86,0.28,2.18,2.48,0.03,911.00,1968.00,291.00,465.00,511.00,1088.00,1311.00,1850.00,,,,,,,,,,,,0,0,0,,1664,16272,552,-39,108,-198
10.482,10.02,1.06,2.18,2.56,0.05,2.84,1.66,0.80,2.00,-0.26,912.00,1935.00,304.00,466.00,537.00,1069.00,1344.00,1901.00,,,,,,,,,,,,0,0,0,,1568,16068,444,-114,87,-169
10.545,10.07,1.08,1.77,2.49,3.91,-0.03,1.41,0.27,1.44,0.60,922.00,1970.00,331.00,432.00,555.00,1095.00,1296.00,1899.00,,,,,,,,,,,,0,0,0,,1584,16068,584,-114,92,-141
10.606,10.13,0.99,1.51,2.70,1.91,0.25,-0.61,2.48,2.21,-0.36,916.00,1979.00,338.00,464.00,511.00,1118.00,1346.00,1890.00,,,,,,,,,,,,0,0,0,,1708,16132,600,-125,192,-118
10.728,10.18,0.98,1.36,2.79,-0.89,2.73,0.76,1.10,1.01,0.73,914.00,1986.00,311.00,485.00,537.00,1099.00,1297.00,1925.00,,,,,,,,,,,,0,0,0,,1656,16236,596,-63,168,-133
10.748,10.24,1.00,1.49,2.57,1.11,1.36,1.43,-0.13,2.48,-0.52,923.00,1988.00,323.00,465.00,567.00,1106.00,1351.00,1878.00,,,,,,,,,,,,0,0,0,,1552,16072,616,-91,133,-148
10.768,10.29,0.93,2.13,1.85,3.43,-1.57,-0.57,1.21,0.90,0.12,948.00,1975.00,363.00,459.00,547.00,1155.00,1343.00,1965.00,,,,,,,,,,,,0,0,0,,1700,16084,696,-144,105,-135
10.808,10.35,0.86,1.05,2.55,-1.07,1.42,-0.36,1.61,1.07,0.62,931.00,2023.00,335.00,506.00,533.00,1133.00,1303.00,1926.00,,,,,,,,,,,,0,0,0,,1660,16040,724,-190,166,-79
10.87,10.40,0.90,1.25,2.66,0.40,1.77,1.71,-0.67,2.18,-0.88,922.00,2001.00,320.00,473.00,581.00,1110.00,1385.00,1919.00,,,,,,,,,,,,0,0,0,,1776,16412,576,-142,207,-275
10.912,10.46,0.88,1.95,1.94,3.86,-1.31,0.50,0.71,0.50,0.83,947.00,1985.00,355.00,448.00,551.00,1122.00,1302.00,1959.00,,,,,,,,,,,,0,0,0,,1672,16104,524,-148,93,-147
10.974,10.51,0.82,1.37,2.83,1.77,0.47,-0.34,2.39,2.53,-0.44,912.00,1983.00,335.00,464.00,511.00,1109.00,1344.00,1870.00,,,,,,,,,,,,0,0,0,,1660,16136,548,-164,90,-65
11.057,10.57,0.87,1.62,2.80,0.19,2.79,1.79,0.69,1.64,0.06,909.00,1965.00,304.00,464.00,539.00,1067.00,1329.00,1911.00,,,,,,,,,,,,0,0,0,,1628,16088,708,-121,198,-128
11.077,10.62,0.90,1.86,2.64,3.02,0.44,1.42,0.50,1.75,0.49,913.00,1955.00,328.00,442.00,548.00,1088.00,1296.00,1881.00,,,,,,,,,,,,0,0,0,,1668,16204,616,-202,116,-150
11.139,10.68,0.84,1.90,2.53,2.89,-0.13,-0.17,2.33,2.23,-0.31,918.00,1958.00,339.00,451.00,511.00,1103.00,1342.00,1886.00,,,,,,,,,,,,0,0,0,,1644,16232,568,-46,118,-99
11.182,10.73,0.84,1.64,2.72,4.29,0.81,0.84,1.35,1.22,0.83,913.00,1968.00,314.00,416.00,529.00,1088.00,1285.00,1904.00,,,,,,,,,,,,0,0,0,,1720,16296,624,-41,158,-126
11.264,10.79,0.92,1.58,2.94,1.15,1.87,2.36,-0.41,3.02,-0.70,903.00,1961.00,314.00,458.00,566.00,1074.00,1351.00,1847.00,,,,,,,,,,,,0,0,0,,1676,16144,548,19,173,-123
11.325,10.84,0.88,2.28,2.06,4.13,-1.71,0.05,1.48,1.18,0.40,935.00,1953.00,361.00,448.00,533.00,1119.00,1316.00,1929.00,,,,,,,,,,,,0,0,0,,1540,16044,500,-57,145,-199
11.365,10.90,0.83,1.44,2.82,0.09,1.14,-0.14,2.32,1.89,0.45,911.00,1978.00,333.00,487.00,511.00,1102.00,1296.00,1873.00,,,,,,,,,,,,0,0,0,,1700,16164,456,-139,34,-138
11.428,10.95,0.89,1.68,2.84,0.18,2.49,2.01,-0.06,2.29,-0.58,906.00,1958.00,309.00,468.00,559.00,1079.00,1360.00,1895.00,,,,,,,,,,,,0,0,0,,1676,16080,840,-186,192,-131
11.49,11.01,0.87,1.71,2.71,2.79,1.03,0.50,0.88,1.03,0.78,912.00,1963.00,319.00,439.00,546.00,1117.00,1293.00,1921.00,,,,,,,,,,,,0,0,0,,1636,16220,496,-93,261,-120
11.532,11.06,0.79,1.48,2.75,1.20,0.82,-0.72,2.52,2.48,-0.47,914.00,1979.00,332.00,470.00,511.00,1122.00,1347.00,1875.00,,,,,,,,,,,,0,0,0,,1708,16172,560,-126,141,-104
11.592,11.12,0.79,1.54,2.67,-1.12,3.53,0.94,0.77,1.22,0.22,917.00,1978.00,299.00,479.00,545.00,1101.00,1328.00,1935.00,,,,,,,,,,,,0,0,0,,1688,16164,540,-89,107,-180
11.655,11.17,0.78,1.58,2.53,1.63,1.07,0.59,0.45,1.65,0.09,923.00,1982.00,325.00,459.00,558.00,1126.00,1327.00,1909.00,,,,,,,,,,,,0,0,0,,1636,16012,756,-79,110,-148
11.716,11.23,0.71,1.73,2.21,1.76,-0.23,-0.77,1.31,1.43,-0.30,937.00,1988.00,348.00,473.00,546.00,1161.00,1361.00,1946.00,,,,,,,,,,,,0,0,0,,1796,16456,508,-130,200,-116
11.8,11.28,0.66,1.38,2.38,-1.17,1.79,-0.13,1.47,0.86,0.74,934.00,2006.00,329.00,503.00,535.00,1127.00,1300.00,1936.00,,,,,,,,,,,,0,0,0,,1604,16128,480,-234,209,-178
11.82,11.34,0.73,1.47,2.79,0.74,2.07,1.90,-0.39,2.86,-0.96,912.00,1977.00,313.00,463.00,570.00,1093.00,1374.00,1872.00,,,,,,,,,,,,0,0,0,,1672,16004,696,-134,43,-111
11.861,11.39,0.70,2.23,2.02,4.39,-1.33,0.26,1.03,0.99,0.51,938.00,1959.00,352.00,439.00,544.00,1123.00,1313.00,1938.00,,,,,,,,,,,,0,0,0,,1756,16216,612,-92,153,-127
11.902,11.45,0.67,1.49,2.81,0.14,1.69,0.10,2.31,2.22,0.31,911.00,1975.00,323.00,479.00,509.00,1092.00,1298.00,1856.00,,,,,,,,,,,,0,0,0,,1540,16224,620,-10,171,-193
11.963,11.50,0.73,1.78,2.87,0.14,2.87,1.81,0.54,2.12,-0.29,903.00,1949.00,303.00,464.00,543.00,1070.00,1343.00,1893.00,,,,,,,,,,,,0,0,0,,1680,16208,480,24,124,-157
12.024,11.56,0.74,2.04,2.30,3.81,-0.22,1.03,0.60,1.31,0.81,927.00,1959.00,335.00,436.00,549.00,1102.00,1284.00,1898.00,,,,,,,,,,,,0,0,0,,1708,16276,380,5,101,-152
12.086,11.61,0.69,1.72,2.71,1.89,0.37,-0.38,2.55,1.95,0.65,912.00,1962.00,336.00,463.00,507.00,1106.00,1280.00,1858.00,,,,,,,,,,,,0,0,0,,1592,16176,740,28,110,-209
12.168,11.66,0.73,1.62,2.74,-0.78,3.12,1.45,0.80,1.39,0.51,912.00,1968.00,304.00,478.00,539.00,1078.00,1303.00,1907.00,,,,,,,,,,,,0,0,0,,1628,16024,456,19,91,-130
12.208,11.72,0.77,1.66,2.73,1.25,1.31,1.59,0.05,2.59,-0.24,912.00,1966.00,323.00,463.00,560.00,1094.00,1328.00,1856.00,,,,,,,,,,,,0,0,0,,1664,16220,480,-94,59,-137
12.249,11.78,0.72,2.05,2.32,2.81,-0.59,-0.20,1.25,1.42,0.08,926.00,1957.00,348.00,458.00,542.00,1137.00,1333.00,1927.00,,,,,,,,,,,,0,0,0,,1644,16096,532,-19,138,-109
12.31,11.83,0.69,1.90,2.53,-1.05,1.92,0.13,1.52,1.33,0.72,918.00,1958.00,326.00,499.00,531.00,1114.00,1290.00,1901.00,,,,,,,,,,,,0,0,0,,1652,16100,408,-168,179,-117
12.37,11.89,0.74,1.52,2.80,-0.03,2.56,1.72,-0.45,2.64,-0.83,911.00,1973.00,309.00,471.00,574.00,1103.00,1370.00,1882.00,,,,,,,,,,,,0,0,0,,1724,16288,540,-130,122,-158
12.391,11.94,0.68,2.22,1.87,2.59,-0.83,-0.46,1.20,0.44,0.86,946.00,1968.00,354.00,465.00,546.00,1150.00,1301.00,1962.00,,,,,,,,,,,,0,0,0,,1644,16212,556,-94,51,-166
12.453,12.00,0.61,1.28,2.82,0.27,1.02,-0.81,2.04,2.02,-0.10,914.00,1991.00,334.00,485.00,525.00,1140.00,1332.00,1891.00,,,,,,,,,,,,0,0,0,,1556,16236,532,-87,105,-24
12.534,12.05,0.62,1.50,2.66,-0.25,2.34,0.91,0.64,1.40,-0.10,918.00,1982.00,314.00,478.00,549.00,1106.00,1347.00,1938.00,,,,,,,,,,,,0,0,0,,1780,16144,528,-94,195,-207
12.616,12.11,0.64,1.73,2.58,3.14,0.17,1.03,0.43,1.34,0.59,918.00,1968.00,332.00,443.00,554.00,1107.00,1299.00,1907.00,,,,,,,,,,,,0,0,0,,1632,16080,488,-165,80,-206
12.638,12.16,0.51,1.64,2.80,2.03,0.32,-2.08,4.75,2.19,-0.27,909.00,1964.00,336.00,461.00,464.00,1115.00,1340.00,1887.00,,,,,,,,,,,,0,0,0,,1740,16192,492,-45,109,-102
12.701,12.22,0.51,1.71,2.85,-0.55,2.62,0.51,1.46,1.39,0.61,905.00,1955.00,311.00,480.00,529.00,1099.00,1296.00,1902.00,,,,,,,,,,,,0,0,0,,1696,16112,456,-144,185,-132
12.742,12.27,0.58,1.69,2.98,0.92,2.12,1.98,-0.08,2.99,-0.57,899.00,1950.00,311.00,459.00,560.00,1081.00,1342.00,1843.00,,,,,,,,,,,,0,0,0,,1720,16076,496,-134,121,-142
12.825,12.33,0.55,2.41,2.18,4.09,-1.64,-0.13,1.47,1.38,0.32,927.00,1937.00,360.00,448.00,535.00,1127.00,1317.00,1918.00,,,,,,,,,,,,0,0,0,,1732,16132,564,-59,72,-221
12.886,12.38,0.52,1.50,2.93,-0.59,1.76,-0.05,2.29,1.86,0.51,905.00,1968.00,326.00,492.00,511.00,1099.00,1292.00,1872.00,,,,,,,,,,,,0,0,0,,1620,16084,592,-27,109,-135
12.906,12.44,0.60,1.79,3.01,3.25,-1.72,2.19,-0.16,2.67,-0.64,896.00,1941.00,367.00,464.00,560.00,1074.00,1355.00,1870.00,,,,,,,,,,,,0,0,0,,1556,16188,380,-63,111,-169
12.947,12.49,0.61,2.15,2.34,3.63,-0.22,0.85,0.70,0.99,0.89,923.00,1948.00,336.00,439.00,548.00,1107.00,1286.00,1918.00,,,,,,,,,,,,0,0,0,,1552,16208,480,-123,125,-155
13.008,12.55,0.54,1.57,2.86,1.50,0.78,-0.79,2.68,2.56,-0.24,907.00,1966.00,331.00,465.00,507.00,1120.00,1329.00,1858.00,,,,,,,,,,,,0,0,0,,1584,16096,368,-194,157,-133
13.07,12.60,0.57,1.75,2.80,-0.59,3.24,1.06,0.83,1.27,0.25,907.00,1955.00,301.00,473.00,542.00,1094.00,1325.00,1930.00,,,,,,,,,,,,0,0,0,,1652,16188,460,-157,136,-144
13.131,12.66,0.59,1.69,2.70,2.25,0.98,0.93,0.17,1.77,0.28,913.00,1965.00,323.00,449.00,563.00,1119.00,1311.00,1891.00,,,,,,,,,,,,0,0,0,,1584,16196,480,-134,205,-157
13.172,12.71,0.52,1.80,2.48,2.22,-0.44,-0.64,1.54,1.82,-0.41,922.00,1968.00,349.00,467.00,538.00,1148.00,1359.00,1922.00,,,,,,,,,,,,0,0,0,,1744,16196,568,-158,124,-139
13.296,12.77,0.48,1.49,2.42,-0.49,1.39,-0.30,1.42,0.84,0.80,930.00,1995.00,332.00,495.00,538.00,1136.00,1296.00,1934.00,,,,,,,,,,,,0,0,0,,1608,16144,640,-25,93,-140
13.316,12.82,0.50,1.26,2.88,-0.30,2.18,0.90,-0.24,2.33,-0.80,911.00,1989.00,317.00,481.00,576.00,1133.00,1375.00,1903.00,,,,,,,,,,,,0,0,0,,1600,16076,496,-69,131,12
13.357,12.88,0.43,1.95,1.86,3.05,-1.50,-1.02,1.29,0.42,0.50,951.00,1989.00,364.00,465.00,549.00,1173.00,1327.00,1982.00,,,,,,,,,,,,0,0,0,,1744,16220,472,-100,197,-289
13.399,12.93,0.39,1.20,2.76,-0.43,1.15,-0.41,1.98,1.66,0.25,918.00,2000.00,336.00,497.00,523.00,1124.00,1315.00,1900.00,,,,,,,,,,,,0,0,0,,1616,16060,300,-226,37,-182
13.46,12.99,0.45,1.65,2.83,-0.47,3.13,1.75,0.33,2.10,-0.43,907.00,1961.00,302.00,472.00,550.00,1079.00,1354.00,1902.00,,,,,,,,,,,,0,0,0,,1628,16108,732,-125,82,-108
13.502,13.04,0.48,2.15,2.36,3.09,0.24,0.97,0.66,1.19,0.87,922.00,1947.00,331.00,443.00,548.00,1103.00,1283.00,1904.00,,,,,,,,,,,,0,0,0,,1728,16108,608,-110,252,-151
13.563,13.10,0.45,1.52,3.06,1.82,0.39,-0.11,2.38,2.55,-0.24,898.00,1959.00,336.00,464.00,509.00,1099.00,1329.00,1859.00,,,,,,,,,,,,0,0,0,,1624,16112,356,-121,67,-195
13.626,13.15,0.50,1.87,2.76,-0.23,2.93,1.39,0.99,1.35,0.57,907.00,1948.00,304.00,470.00,534.00,1075.00,1300.00,1907.00,,,,,,,,,,,,0,0,0,,1864,16316,392,-117,-1,-155
13.688,13.21,0.55,1.82,2.78,2.39,1.28,1.56,0.29,2.41,0.05,907.00,1951.00,317.00,443.00,553.00,1088.00,1312.00,1855.00,,,,,,,,,,,,0,0,0,,1664,16120,548,-39,116,-140
13.73,13.26,0.53,2.20,2.49,3.10,-0.53,0.14,1.38,1.51,0.08,915.00,1937.00,345.00,452.00,535.00,1118.00,1331.00,1920.00,,,,,,,,,,,,0,0,0,,1696,16108,448,-117,170,-179
13.792,13.32,0.53,1.62,2.74,-1.43,2.33,0.42,1.52,1.37,0.87,912.00,1968.00,321.00,501.00,528.00,1101.00,1279.00,1891.00,,,,,,,,,,,,0,0,0,,1784,16112,432,-101,98,-226
13.876,13.37,0.59,1.70,3.04,0.46,2.40,1.91,-0.32,2.69,-0.71,896.00,1946.00,309.00,464.00,568.00,1091.00,1360.00,1872.00,,,,,,,,,,,,0,0,0,,1612,16224,480,-203,62,-145
13.897,13.43,0.57,2.31,2.15,3.75,-1.06,0.11,1.18,2.55,-1.92,930.00,1946.00,351.00,447.00,541.00,1125.00,1456.00,1945.00,,,,,,,,,,,,0,0,0,,1560,16180,660,-157,172,-155
14.0,13.48,0.54,1.37,2.93,0.57,0.81,-0.08,1.84,2.32,-0.11,907.00,1978.00,336.00,482.00,524.00,1114.00,1325.00,1869.00,,,,,,,,,,,,0,0,0,,1584,16248,580,-84,153,-138
14.02,13.54,0.54,1.57,2.86,-0.13,2.48,0.64,1.38,1.59,-0.17,907.00,1966.00,311.00,474.00,530.00,1096.00,1347.00,1927.00,,,,,,,,,,,,0,0,0,,1592,16124,580,-123,72,-158
14.061,13.59,0.52,1.63,2.68,2.40,0.93,0.15,0.76,1.01,0.68,915.00,1971.00,323.00,447.00,553.00,1136.00,1300.00,1927.00,,,,,,,,,,,,0,0,0,,1612,16232,600,-7,86,-153
14.123,13.65,0.43,1.46,2.78,2.08,-0.55,-1.29,2.14,1.78,-0.41,913.00,1979.00,352.00,471.00,527.00,1159.00,1360.00,1925.00,,,,,,,,,,,,0,0,0,,1620,16056,256,-68,138,-126
14.185,13.70,0.40,1.35,2.63,-1.71,2.89,-0.23,1.16,0.53,0.75,922.00,1995.00,313.00,499.00,545.00,1141.00,1307.00,1961.00,,,,,,,,,,,,0,0,0,,1744,16500,576,-124,233,-126
14.225,13.76,0.43,1.30,2.79,-0.05,1.81,1.10,-0.21,2.29,-0.58,915.00,1991.00,322.00,481.00,573.00,1123.00,1360.00,1895.00,,,,,,,,,,,,0,0,0,,1640,16040,440,-196,148,-166
14.267,13.81,0.40,2.05,2.30,4.63,-3.68,-0.35,1.41,0.94,0.29,927.00,1958.00,398.00,463.00,539.00,1139.00,1330.00,1953.00,,,,,,,,,,,,0,0,0,,1628,16144,516,-151,-21,-136
14.369,13.87,0.37,1.42,2.85,-0.94,1.82,-0.14,2.32,1.53,0.64,910.00,1978.00,327.00,498.00,511.00,1102.00,1291.00,1890.00,,,,,,,,,,,,0,0,0,,1816,16260,468,-67,184,-147
14.39,13.92,0.47,1.71,2.98,0.11,2.76,2.31,-0.26,2.66,-0.70,899.00,1949.00,305.00,466.00,562.00,1072.00,1360.00,1874.00,,,,,,,,,,,,0,0,0,,1708,16208,380,-133,161,-179
14.431,13.98,0.49,2.37,2.31,3.90,-0.36,0.88,1.06,1.13,0.79,921.00,1933.00,337.00,436.00,537.00,1095.00,1290.00,1913.00,,,,,,,,,,,,0,0,0,,1560,16240,460,-85,83,-100
14.514,14.03,0.45,1.60,3.10,1.37,1.22,-0.21,2.52,2.54,-0.21,895.00,1951.00,324.00,462.00,506.00,1099.00,1327.00,1858.00,,,,,,,,,,,,0,0,0,,1744,16136,472,-104,136,-199
14.554,14.09,0.50,1.89,2.94,-0.72,3.34,1.48,0.99,1.63,0.13,898.00,1937.00,300.00,474.00,533.00,1071.00,1325.00,1909.00,,,,,,,,,,,,0,0,0,,1576,16160,384,-135,115,-119
14.595,14.14,0.54,1.94,2.88,2.40,1.10,1.30,0.58,1.93,0.40,900.00,1936.00,320.00,445.00,547.00,1091.00,1298.00,1872.00,,,,,,,,,,,,0,0,0,,1624,16184,480,-105,100,-157
14.656,14.20,0.51,2.09,2.65,1.80,0.35,-0.10,1.53,2.01,-0.23,909.00,1937.00,337.00,465.00,533.00,1124.00,1341.00,1898.00,,,,,,,,,,,,0,0,0,,1708,16188,500,-155,93,-148
14.739,14.25,0.51,1.72,2.77,-0.54,2.15,0.52,1.28,0.99,0.96,909.00,1959.00,319.00,486.00,534.00,1104.00,1281.00,1914.00,,,,,,,,,,,,0,0,0,,1608,16132,640,-214,147,-101
14.76,14.31,0.58,1.99,2.52,0.68,1.91,1.86,-0.60,2.69,-0.81,917.00,1951.00,316.00,466.00,577.00,1101.00,1367.00,1877.00,,,,,,,,,,,,0,0,0,,1616,16204,452,-140,224,-99
14.823,14.36,0.53,2.26,2.13,3.26,-1.42,-0.49,1.35,0.62,0.52,932.00,1951.00,361.00,460.00,542.00,1147.00,1321.00,1966.00,,,,,,,,,,,,0,0,0,,1588,16156,372,-134,126,-90
14.885,14.41,0.55,1.27,2.86,-1.10,1.76,0.96,-0.26,1.59,0.33,912.00,1989.00,329.00,502.00,576.00,1131.00,1311.00,1901.00,,,,,,,,,,,,0,0,0,,1764,16232,580,-100,133,-121
14.925,14.47,0.58,1.46,2.98,-0.97,3.24,1.12,0.40,1.66,-0.37,903.00,1968.00,303.00,480.00,554.00,1104.00,1360.00,1932.00,,,,,,,,,,,,0,0,0,,1632,16092,384,-60,194,-80
14.987,14.53,0.55,1.73,2.48,2.60,0.30,0.00,0.91,0.71,0.80,923.00,1973.00,333.00,451.00,550.00,1138.00,1299.00,1944.00,,,,,,,,,,,,0,0,0,,1712,15968,464,-114,178,-8
15.049,14.58,0.46,1.40,2.74,0.33,0.78,-1.12,2.08,1.91,-0.45,916.00,1986.00,338.00,487.00,527.00,1153.00,1360.00,1917.00,,,,,,,,,,,,0,0,0,,1692,16252,516,-244,217,-282
15.09,14.64,0.47,1.52,2.77,-1.66,3.41,0.67,1.03,0.90,0.33,912.00,1974.00,304.00,491.00,540.00,1105.00,1328.00,1954.00,,,,,,,,,,,,0,0,0,,1672,16088,268,-240,109,-202
15.152,14.69,0.52,1.61,2.93,1.74,1.32,1.44,0.03,2.07,-0.08,903.00,1959.00,320.00,454.00,562.00,1101.00,1329.00,1886.00,,,,,,,,,,,,0,0,0,,1776,16180,712,-81,-5,-126
15.213,14.75,0.49,2.16,2.54,3.10,-0.69,-0.20,1.22,1.46,-0.05,913.00,1937.00,348.00,454.00,543.00,1138.00,1342.00,1931.00,,,,,,,,,,,,0,0,0,,1708,16220,492,-44,140,-127
15.276,14.80,0.49,1.57,2.88,-1.54,2.48,0.51,1.49,1.31,0.71,906.00,1965.00,319.00,501.00,528.00,1098.00,1291.00,1903.00,,,,,,,,,,,,0,0,0,,1672,16000,380,-80,171,-227
15.357,14.86,0.58,1.87,2.98,0.30,2.63,2.28,-0.32,2.73,-0.77,896.00,1936.00,306.00,464.00,564.00,1075.00,1363.00,1872.00,,,,,,,,,,,,0,0,0,,1740,16196,476,-79,126,-194
15.378,14.91,0.56,2.42,2.27,3.59,-0.74,0.26,1.23,0.79,0.82,922.00,1931.00,346.00,446.00,538.00,1117.00,1296.00,1937.00,,,,,,,,,,,,0,0,0,,1568,16144,340,-109,99,-208
15.48,14.97,0.52,1.55,3.11,1.04,0.99,-0.29,2.52,2.37,-0.13,895.00,1954.00,330.00,471.00,507.00,1103.00,1325.00,1866.00,,,,,,,,,,,,0,0,0,,1652,16080,492,-78,136,-203
15.521,15.02,0.59,1.79,2.99,-0.18,3.10,1.90,0.34,1.62,-0.05,897.00,1942.00,301.00,467.00,548.00,1072.00,1338.00,1919.00,,,,,,,,,,,,0,0,0,,1660,16236,344,-56,132,-196
15.542,15.08,0.61,2.06,2.62,3.07,0.70,1.03,0.60,1.36,0.63,911.00,1941.00,323.00,438.00,549.00,1102.00,1296.00,1904.00,,,,,,,,,,,,0,0,0,,1656,16100,444,-54,95,-149
15.583,15.13,0.55,1.82,2.72,1.61,0.46,-0.52,1.91,2.03,-0.27,910.00,1954.00,336.00,467.00,526.00,1131.00,1344.00,1899.00,,,,,,,,,,,,0,0,0,,1588,16128,320,-16,108,-107
15.644,15.19,0.54,1.65,2.79,-1.46,2.75,0.25,1.37,0.83,0.76,909.00,1963.00,314.00,496.00,534.00,1113.00,1299.00,1937.00,,,,,,,,,,,,0,0,0,,1784,16192,440,18,188,-178
15.706,15.24,0.59,1.46,3.00,0.94,1.53,1.55,-0.30,2.48,-0.51,902.00,1967.00,321.00,466.00,571.00,1106.00,1350.00,1877.00,,,,,,,,,,,,0,0,0,,1692,16184,420,-67,122,-177
15.746,15.30,0.52,2.24,2.11,3.23,-1.61,-0.74,1.26,0.63,0.35,933.00,1953.00,365.00,463.00,547.00,1161.00,1333.00,1974.00,,,,,,,,,,,,0,0,0,,1700,16208,484,-54,67,-124
15.847,15.35,0.46,0.98,2.96,-1.43,1.87,-0.62,1.77,1.17,0.59,912.00,2007.00,329.00,507.00,531.00,1140.00,1303.00,1920.00,,,,,,,,,,,,0,0,0,,1812,16416,372,47,115,-189
15.868,15.41,0.52,1.47,2.85,-1.39,3.32,1.67,-0.27,2.22,-0.77,909.00,1974.00,304.00,487.00,569.00,1100.00,1376.00,1910.00,,,,,,,,,,,,0,0,0,,1608,16100,344,-144,106,-81
15.911,15.46,0.54,1.83,2.77,3.33,-0.12,0.88,0.58,0.71,0.84,907.00,1950.00,336.00,443.00,551.00,1109.00,1296.00,1942.00,,,,,,,,,,,,0,0,0,,1528,16012,300,-150,86,-140
15.972,15.52,0.49,1.69,2.96,1.18,0.77,-0.48,2.76,2.59,-0.45,900.00,1951.00,333.00,471.00,502.00,1104.00,1343.00,1866.00,,,,,,,,,,,,0,0,0,,1684,16164,328,-191,138,-115
16.035,15.57,0.53,1.60,3.14,-0.46,3.19,1.36,1.18,1.64,0.15,893.00,1949.00,301.00,471.00,529.00,1071.00,1323.00,1907.00,,,,,,,,,,,,0,0,0,,1680,16204,448,-198,171,-141
16.118,15.63,0.59,2.05,2.70,3.34,0.72,1.68,0.11,1.92,0.36,907.00,1937.00,321.00,433.00,557.00,1088.00,1301.00,1875.00,,,,,,,,,,,,0,0,0,,1704,16320,544,-113,111,-107
16.138,15.68,0.58,2.05,2.66,2.60,-0.03,0.37,1.51,2.04,-0.21,909.00,1939.00,339.00,455.00,529.00,1104.00,1339.00,1895.00,,,,,,,,,,,,0,0,0,,1712,16224,448,-95,93,-161
16.2,15.74,0.59,1.80,2.78,-0.56,2.09,0.85,1.24,1.17,0.87,907.00,1952.00,320.00,487.00,532.00,1091.00,1283.00,1905.00,,,,,,,,,,,,0,0,0,,1664,16152,496,-86,78,-163
16.262,15.79,0.66,1.74,3.21,0.72,2.01,1.97,-0.28,2.92,-0.83,887.00,1934.00,314.00,464.00,566.00,1087.00,1363.00,1861.00,,,,,,,,,,,,0,0,0,,1740,16152,476,-65,164,-195
16.326,15.85,0.64,2.44,2.23,3.73,-1.37,0.17,1.02,0.78,0.83,924.00,1932.00,357.00,451.00,545.00,1127.00,1295.00,1937.00,,,,,,,,,,,,0,0,0,,1712,16208,452,-110,104,-170
16.365,15.90,0.59,1.34,3.16,-0.71,1.86,-0.34,2.39,2.07,0.20,896.00,1968.00,325.00,493.00,511.00,1109.00,1309.00,1872.00,,,,,,,,,,,,0,0,0,,1636,16200,528,-103,96,-140
16.446,15.96,0.64,1.84,2.95,-1.13,3.79,1.51,0.47,1.97,-0.32,898.00,1940.00,295.00,476.00,548.00,1085.00,1349.00,1906.00,,,,,,,,,,,,0,0,0,,1656,16152,508,-154,166,-144
16.466,16.01,0.63,1.89,2.63,2.89,0.20,0.53,0.64,0.88,0.84,913.00,1953.00,333.00,447.00,553.00,1123.00,1292.00,1929.00,,,,,,,,,,,,0,0,0,,1704,16264,372,-119,175,-176
16.569,16.07,0.56,1.48,2.97,1.23,0.70,-0.81,2.04,2.21,-0.36,903.00,1967.00,334.00,471.00,525.00,1140.00,1346.00,1890.00,,,,,,,,,,,,0,0,0,,1700,16192,388,-130,66,-219
16.589,16.12,0.58,1.62,2.84,-1.19,2.42,0.91,0.47,0.80,0.52,907.00,1963.00,318.00,495.00,554.00,1111.00,1317.00,1952.00,,,,,,,,,,,,0,0,0,,1584,16144,420,-87,43,-192
16.65,16.17,0.58,1.34,2.90,1.43,0.80,0.75,-0.13,1.79,-0.01,909.00,1982.00,331.00,466.00,574.00,1136.00,1331.00,1904.00,,,,,,,,,,,,0,0,0,,1796,16344,412,-72,172,-54
16.713,16.23,0.53,1.83,2.49,1.81,-0.62,-0.48,0.97,1.12,-0.09,921.00,1965.00,355.00,477.00,553.00,1158.00,1353.00,1959.00,,,,,,,,,,,,0,0,0,,1668,16088,220,-176,123,-218
16.754,16.28,0.54,1.46,2.98,-1.44,1.82,0.70,0.98,0.98,0.82,903.00,1968.00,330.00,508.00,541.00,1105.00,1291.00,1922.00,,,,,,,,,,,,0,0,0,,1668,16148,436,-154,-19,-136
16.836,16.34,0.63,1.76,3.25,0.25,2.23,2.35,-0.67,2.83,-0.94,885.00,1931.00,313.00,470.00,574.00,1082.00,1373.00,1873.00,,,,,,,,,,,,0,0,0,,1684,16184,632,-71,190,-131
16.856,16.39,0.62,2.79,2.23,4.12,-1.19,0.52,0.97,0.83,0.76,918.00,1905.00,351.00,442.00,543.00,1113.00,1299.00,1937.00,,,,,,,,,,,,0,0,0,,1660,16188,544,-125,219,-139
16.939,16.45,0.60,1.62,3.38,1.20,0.82,0.19,2.21,2.42,-0.03,881.00,1935.00,332.00,470.00,511.00,1091.00,1317.00,1858.00,,,,,,,,,,,,0,0,0,,1648,16140,204,-138,74,-93
16.96,16.50,0.67,2.05,3.15,0.41,2.48,2.03,0.67,1.88,-0.02,885.00,1914.00,308.00,464.00,537.00,1057.00,1329.00,1897.00,,,,,,,,,,,,0,0,0,,1648,16140,436,-85,56,-187
17.022,16.56,0.71,2.22,3.03,3.54,0.43,1.30,0.71,1.56,0.66,888.00,1907.00,325.00,433.00,543.00,1087.00,1289.00,1887.00,,,,,,,,,,,,0,0,0,,1580,16108,396,-69,185,-146
17.083,16.61,0.67,1.86,3.22,2.34,0.27,-0.11,2.31,2.55,-0.36,885.00,1925.00,335.00,456.00,511.00,1101.00,1338.00,1865.00,,,,,,,,,,,,0,0,0,,1708,16156,372,-105,137,-163
17.144,16.67,0.69,1.98,3.07,-1.10,3.29,1.21,0.81,1.31,0.66,890.00,1923.00,303.00,482.00,541.00,1088.00,1295.00,1906.00,,,,,,,,,,,,0,0,0,,1628,16080,508,-140,47,-180
17.205,16.73,0.75,1.69,3.46,1.12,1.59,1.94,-0.24,2.92,-0.61,876.00,1925.00,319.00,462.00,565.00,1087.00,1347.00,1850.00,,,,,,,,,,,,0,0,0,,1588,16148,404,-190,108,-142
17.246,16.78,0.71,2.41,2.48,3.38,-1.51,-0.24,1.37,1.16,0.30,912.00,1921.00,362.00,459.00,539.00,1135.00,1324.00,1936.00,,,,,,,,,,,,0,0,0,,1656,16164,544,-161,202,-135
17.308,16.83,0.68,1.51,3.21,-1.20,2.14,0.16,1.61,1.44,0.64,891.00,1952.00,323.00,499.00,528.00,1110.00,1293.00,1897.00,,,,,,,,,,,,0,0,0,,1784,16236,432,-113,178,-131
17.349,16.89,0.72,1.73,3.22,-0.34,2.79,1.61,-0.13,2.40,-0.74,887.00,1935.00,307.00,474.00,565.00,1098.00,1369.00,1895.00,,,,,,,,,,,,0,0,0,,1532,16196,512,-86,62,-144
17.411,16.94,0.70,2.06,2.57,3.55,-1.10,0.24,0.70,0.71,0.91,913.00,1943.00,353.00,451.00,554.00,1134.00,1291.00,1938.00,,,,,,,,,,,,0,0,0,,1584,16084,368,-33,73,-145
17.473,17.00,0.63,1.62,3.05,3.19,-0.07,-0.66,1.89,2.20,-0.33,897.00,1952.00,336.00,445.00,528.00,1138.00,1344.00,1889.00,,,,,,,,,,,,0,0,0,,1624,16088,596,-117,184,-38
17.513,17.05,0.66,1.62,3.03,-1.33,3.55,1.11,0.37,1.26,0.11,898.00,1953.00,300.00,483.00,555.00,1105.00,1335.00,1938.00,,,,,,,,,,,,0,0,0,,1768,16264,456,-203,217,-313
17.575,17.11,0.69,1.79,2.91,2.11,0.85,1.26,0.16,1.76,0.25,901.00,1946.00,326.00,453.00,560.00,1105.00,1313.00,1893.00,,,,,,,,,,,,0,0,0,,1660,16132,452,-190,66,-136
17.679,17.16,0.68,2.13,2.90,1.96,0.18,0.55,1.03,1.98,-0.26,896.00,1921.00,339.00,464.00,541.00,1110.00,1344.00,1902.00,,,,,,,,,,,,0,0,0,,1668,16180,624,-95,126,-75
17.7,17.22,0.70,1.87,3.01,-0.20,1.80,1.06,0.97,1.30,0.80,895.00,1935.00,323.00,484.00,538.00,1090.00,1285.00,1899.00,,,,,,,,,,,,0,0,0,,1620,16224,428,-81,240,-131
17.742,17.27,0.79,1.88,3.38,2.18,1.58,2.52,-0.46,3.23,-0.80,877.00,1915.00,313.00,443.00,566.00,1069.00,1353.00,1837.00,,,,,,,,,,,,0,0,0,,1688,16232,260,-134,123,-182
17.782,17.33,0.78,2.67,2.43,4.10,-1.49,0.58,1.09,1.19,0.65,910.00,1904.00,357.00,446.00,539.00,1107.00,1298.00,1915.00,,,,,,,,,,,,0,0,0,,1752,16276,388,-129,83,-130
17.843,17.39,0.77,1.84,3.22,-0.34,1.85,0.49,2.11,2.42,0.32,885.00,1926.00,323.00,486.00,511.00,1081.00,1292.00,1840.00,,,,,,,,,,,,0,0,0,,1716,16164,356,-125,141,-174
17.904,17.44,0.85,2.11,3.26,0.55,2.67,2.39,0.18,2.53,-0.37,879.00,1904.00,304.00,459.00,548.00,1056.00,1339.00,1867.00,,,,,,,,,,,,0,0,0,,1568,16140,592,-162,106,-145
17.965,17.50,0.89,2.44,2.75,3.29,0.29,1.63,0.37,1.44,0.91,898.00,1905.00,329.00,439.00,550.00,1083.00,1274.00,1883.00,,,,,,,,,,,,0,0,0,,1776,16076,348,-77,161,-207
18.047,17.55,0.84,1.90,3.31,5.06,-4.15,0.07,2.39,2.67,-0.27,880.00,1917.00,405.00,461.00,507.00,1091.00,1328.00,1851.00,,,,,,,,,,,,0,0,0,,1600,16204,296,-184,112,-120
18.068,17.60,0.87,2.10,3.14,-0.16,3.15,1.39,0.79,1.47,0.56,885.00,1911.00,300.00,466.00,540.00,1081.00,1298.00,1899.00,,,,,,,,,,,,0,0,0,,1644,16140,436,-191,142,-116
18.129,17.66,0.90,1.89,3.27,1.81,1.30,1.47,0.09,2.73,-0.50,882.00,1920.00,320.00,453.00,560.00,1098.00,1343.00,1858.00,,,,,,,,,,,,0,0,0,,1616,16240,260,-134,185,-126
18.191,17.71,0.85,2.25,2.75,2.60,-0.36,-0.06,1.20,1.79,-0.14,901.00,1919.00,345.00,459.00,542.00,1132.00,1340.00,1910.00,,,,,,,,,,,,0,0,0,,1600,16276,456,-174,121,-127
18.253,17.77,0.84,1.63,3.11,-1.18,1.96,0.64,1.00,1.14,0.94,894.00,1948.00,326.00,501.00,541.00,1107.00,1279.00,1904.00,,,,,,,,,,,,0,0,0,,1620,16180,440,-108,120,-117
18.294,17.82,0.89,1.96,2.87,-0.07,2.69,1.87,-0.57,2.80,-0.91,900.00,1935.00,307.00,470.00,576.00,1100.00,1372.00,1874.00,,,,,,,,,,,,0,0,0,,1588,16064,504,-100,69,-131
18.397,17.88,0.83,2.16,2.56,3.76,-1.33,-0.48,0.97,0.66,0.70,912.00,1936.00,356.00,450.00,553.00,1158.00,1307.00,1953.00,,,,,,,,,,,,0,0,0,,1680,16076,428,-148,158,-115
18.417,17.93,0.75,1.38,3.19,0.14,1.07,-0.66,1.85,2.02,0.08,894.00,1963.00,334.00,487.00,529.00,1139.00,1319.00,1882.00,,,,,,,,,,,,0,0,0,,1708,16404,328,-184,215,-245
18.458,17.99,0.81,2.12,2.61,-0.91,3.16,1.83,-0.03,1.76,-0.17,910.00,1936.00,304.00,480.00,560.00,1086.00,1343.00,1914.00,,,,,,,,,,,,0,0,0,,1728,16208,388,-278,104,-146
18.519,18.05,0.84,2.29,2.72,0.26,4.75,1.47,0.25,1.36,0.75,902.00,1918.00,273.00,439.00,555.00,1093.00,1287.00,1897.00,,,,,,,,,,,,0,0,0,,1636,16064,584,-93,83,-125
18.58,18.10,0.79,1.85,3.32,1.58,1.14,-0.17,2.33,2.74,-0.36,880.00,1920.00,324.00,459.00,511.00,1103.00,1333.00,1851.00,,,,,,,,,,,,0,0,0,,1544,16148,348,-128,167,-173
18.621,18.16,0.83,1.97,3.22,-1.23,4.33,1.54,0.97,1.48,0.70,883.00,1916.00,287.00,471.00,533.00,1069.00,1288.00,1891.00,,,,,,,,,,,,0,0,0,,1656,16040,456,-118,123,-149
18.704,18.21,0.90,2.04,3.26,1.71,1.45,2.28,-0.22,3.07,-0.44,880.00,1909.00,318.00,453.00,561.00,1072.00,1331.00,1831.00,,,,,,,,,,,,0,0,0,,1804,16272,432,-131,137,-158
18.725,18.26,0.87,2.66,2.70,3.72,-1.11,0.41,1.08,1.66,0.20,897.00,1891.00,352.00,448.00,541.00,1115.00,1319.00,1903.00,,,,,,,,,,,,0,0,0,,1564,16160,416,-92,116,-194
18.788,18.32,0.87,1.85,3.30,-0.71,1.86,0.81,1.61,1.90,0.72,881.00,1921.00,325.00,493.00,522.00,1082.00,1277.00,1859.00,,,,,,,,,,,,0,0,0,,1676,16136,664,-112,103,-141
18.83,18.37,0.96,2.01,3.40,0.32,2.69,2.65,-0.34,3.07,-0.83,874.00,1904.00,305.00,463.00,561.00,1060.00,1359.00,1850.00,,,,,,,,,,,,0,0,0,,1524,16112,384,-66,168,-195
18.89,18.43,0.98,2.58,2.64,4.50,-1.16,1.42,0.50,1.20,0.88,901.00,1900.00,348.00,435.00,548.00,1088.00,1282.00,1903.00,,,,,,,,,,,,0,0,0,,1656,16256,372,-47,128,-113
18.953,18.48,0.95,1.89,3.27,1.72,0.54,0.30,1.74,2.90,-0.26,882.00,1920.00,334.00,464.00,523.00,1100.00,1322.00,1834.00,,,,,,,,,,,,0,0,0,,1664,16120,416,-18,104,-110
18.993,18.54,0.99,2.04,3.26,-0.77,3.42,1.75,0.56,1.64,0.26,880.00,1909.00,299.00,474.00,543.00,1072.00,1315.00,1901.00,,,,,,,,,,,,0,0,0,,1672,16156,424,-1,193,-117
19.056,18.59,1.01,2.13,2.92,3.53,-0.07,1.32,0.33,1.96,0.47,895.00,1920.00,334.00,439.00,554.00,1097.00,1293.00,1867.00,,,,,,,,,,,,0,0,0,,1640,16140,328,-56,176,-167
19.139,18.65,0.95,2.04,2.99,1.98,0.23,-0.19,1.63,2.06,-0.24,893.00,1923.00,338.00,463.00,531.00,1125.00,1341.00,1895.00,,,,,,,,,,,,0,0,0,,1608,16208,440,-27,-26,-173
19.16,18.70,0.92,1.89,2.96,-0.59,1.54,0.49,0.98,1.04,0.83,897.00,1936.00,330.00,495.00,543.00,1114.00,1289.00,1917.00,,,,,,,,,,,,0,0,0,,1660,16228,528,52,93,-10
19.221,18.76,0.98,1.76,3.15,0.94,1.53,2.00,-0.90,2.78,-0.70,890.00,1936.00,321.00,466.00,585.00,1104.00,1357.00,1865.00,,,,,,,,,,,,0,0,0,,1688,16080,432,-26,224,-258
19.303,18.82,0.94,2.44,2.59,6.88,-2.74,0.14,1.10,1.25,0.41,906.00,1913.00,363.00,413.00,543.00,1126.00,1314.00,1923.00,,,,,,,,,,,,0,0,0,,1692,16136,416,-156,20,-175
19.323,18.87,0.93,1.42,3.76,-0.66,1.56,0.84,1.38,2.15,0.40,866.00,1930.00,330.00,496.00,528.00,1087.00,1293.00,1856.00,,,,,,,,,,,,0,0,0,,1632,16240,276,-131,31,-112
19.385,18.92,1.02,2.12,3.34,0.44,2.83,2.81,-0.27,2.80,-0.49,875.00,1899.00,302.00,459.00,557.00,1051.00,1341.00,1853.00,,,,,,,,,,,,0,0,0,,1720,16156,496,-207,170,-165
19.447,18.98,1.06,2.41,2.99,3.70,0.55,1.69,0.61,1.56,0.97,887.00,1895.00,322.00,429.00,542.00,1073.00,1267.00,1871.00,,,,,,,,,,,,0,0,0,,1644,16080,404,-95,139,-136
19.507,19.03,1.04,2.03,3.37,1.96,0.35,0.61,2.14,3.12,-0.32,875.00,1904.00,336.00,462.00,509.00,1075.00,1321.00,1821.00,,,,,,,,,,,,0,0,0,,1684,16132,540,-2,65,-151
19.569,19.09,1.10,2.64,3.10,-0.33,3.09,2.34,0.50,1.82,0.47,878.00,1872.00,302.00,470.00,539.00,1049.00,1296.00,1877.00,,,,,,,,,,,,0,0,0,,1672,16208,364,53,87,-146
19.65,19.14,1.15,2.14,3.27,3.32,0.50,2.05,0.09,2.78,0.01,878.00,1901.00,325.00,436.00,554.00,1073.00,1306.00,1830.00,,,,,,,,,,,,0,0,0,,1676,16176,400,-5,151,-151
19.672,19.20,1.12,2.34,2.97,2.84,-0.22,0.64,1.00,2.29,-0.14,889.00,1901.00,341.00,453.00,541.00,1107.00,1328.00,1873.00,,,,,,,,,,,,0,0,0,,1648,16140,476,-116,187,-162
19.712,19.25,1.12,1.94,3.17,-0.39,1.69,1.00,1.26,1.56,0.93,886.00,1921.00,326.00,489.00,530.00,1084.00,1270.00,1873.00,,,,,,,,,,,,0,0,0,,1672,16112,388,-158,145,-196
19.773,19.31,1.18,2.02,3.33,1.17,1.51,2.44,-0.76,1.55,-0.26,877.00,1907.00,320.00,462.00,576.00,1081.00,1355.00,1935.00,,,,,,,,,,,,0,0,0,,1672,16144,464,-255,72,-134
19.834,19.36,1.14,2.51,2.52,4.07,-1.53,0.38,0.82,0.97,0.78,908.00,1911.00,358.00,447.00,549.00,1124.00,1294.00,1925.00,,,,,,,,,,,,0,0,0,,1728,16188,288,-107,145,-159
19.874,19.42,1.09,1.55,3.43,0.14,1.07,0.04,1.65,2.28,0.22,880.00,1938.00,334.00,487.00,528.00,1114.00,1303.00,1856.00,,,,,,,,,,,,0,0,0,,1644,16188,376,-95,173,-172
19.936,19.48,1.12,1.99,3.17,-0.22,2.69,1.68,0.11,1.90,-0.17,885.00,1917.00,308.00,473.00,557.00,1088.00,1340.00,1904.00,,,,,,,,,,,,0,0,0,,1676,16232,212,-101,126,-152
20.018,19.53,1.10,2.20,2.67,3.26,-0.09,0.76,0.23,1.25,0.72,906.00,1927.00,336.00,444.00,563.00,1125.00,1292.00,1907.00,,,,,,,,,,,,0,0,0,,1744,16256,348,-88,74,-124
20.039,19.58,1.00,1.75,3.13,1.36,0.28,-0.79,1.83,2.22,-0.47,891.00,1938.00,341.00,474.00,531.00,1146.00,1354.00,1895.00,,,,,,,,,,,,0,0,0,,1616,16208,340,-157,157,19
20.101,19.64,1.02,1.69,3.05,-1.58,3.14,1.23,0.20,0.96,0.60,896.00,1947.00,308.00,493.00,559.00,1105.00,1307.00,1935.00,,,,,,,,,,,,0,0,0,,1700,16132,392,-135,197,-259
20.164,19.69,1.07,1.74,3.24,0.80,1.58,2.14,-0.56,2.62,-0.33,886.00,1933.00,321.00,468.00,573.00,1088.00,1334.00,1858.00,,,,,,,,,,,,0,0,0,,1552,16096,432,-251,28,-158
20.248,19.75,1.04,2.45,2.75,2.34,-0.38,0.44,0.94,1.54,0.21,898.00,1904.00,347.00,464.00,545.00,1118.00,1321.00,1911.00,,,,,,,,,,,,0,0,0,,1668,16252,396,-47,116,-122
20.289,19.80,1.05,1.70,3.42,-0.91,1.92,1.21,1.12,1.90,0.66,878.00,1927.00,325.00,496.00,532.00,1079.00,1281.00,1862.00,,,,,,,,,,,,0,0,0,,1628,16180,192,-114,206,-166
20.33,19.86,1.16,2.08,3.46,0.41,2.48,3.19,-0.82,3.24,-0.80,870.00,1896.00,308.00,464.00,570.00,1051.00,1353.00,1836.00,,,,,,,,,,,,0,0,0,,1680,16076,432,-137,93,-172
20.391,19.91,1.16,2.59,2.74,4.44,-1.24,1.30,0.51,1.24,0.85,896.00,1894.00,350.00,437.00,549.00,1093.00,1283.00,1901.00,,,,,,,,,,,,0,0,0,,1700,16236,232,-26,56,-160
20.454,19.97,1.13,2.09,3.29,1.57,0.75,0.59,2.07,2.99,-0.16,878.00,1904.00,331.00,464.00,511.00,1078.00,1313.00,1823.00,,,,,,,,,,,,0,0,0,,1540,16180,260,-116,170,-117
20.495,20.02,1.20,2.31,3.23,-0.06,3.24,2.55,0.16,2.13,0.11,877.00,1890.00,298.00,463.00,547.00,1050.00,1314.00,1872.00,,,,,,,,,,,,0,0,0,,1644,16196,348,-121,108,-133
20.556,20.08,1.25,2.35,3.13,3.67,0.33,2.07,-0.12,2.01,0.60,881.00,1892.00,326.00,432.00,560.00,1078.00,1282.00,1856.00,,,,,,,,,,,,0,0,0,,1632,16128,444,-104,84,-213
20.637,20.14,1.21,2.23,3.20,2.32,0.06,0.55,1.38,2.44,-0.20,880.00,1898.00,339.00,459.00,531.00,1100.00,1329.00,1865.00,,,,,,,,,,,,0,0,0,,1664,16116,348,-173,88,-159
20.657,20.19,1.21,2.05,3.30,0.02,2.25,1.12,0.95,1.38,0.86,878.00,1906.00,314.00,474.00,538.00,1088.00,1279.00,1890.00,,,,,,,,,,,,0,0,0,,1512,16168,528,-151,156,-155
20.718,20.25,1.25,1.90,3.35,1.03,1.56,1.99,-0.42,3.05,-0.64,878.00,1915.00,320.00,464.00,570.00,1090.00,1346.00,1842.00,,,,,,,,,,,,0,0,0,,1640,16192,328,-112,180,-153
20.781,20.30,1.21,2.62,2.45,3.30,-1.63,0.41,0.44,1.17,0.34,910.00,1907.00,365.00,462.00,560.00,1134.00,1321.00,1933.00,,,,,,,,,,,,0,0,0,,1680,16268,288,-148,115,-176
20.823,20.35,1.17,1.50,3.40,-0.51,1.34,0.46,1.27,1.81,0.49,882.00,1943.00,333.00,496.00,535.00,1107.00,1295.00,1877.00,,,,,,,,,,,,0,0,0,,1644,16204,352,-113,98,-197
20.884,20.41,1.21,1.87,3.32,-0.06,2.45,2.05,-0.53,2.34,-0.64,880.00,1919.00,311.00,473.00,573.00,1091.00,1363.00,1894.00,,,,,,,,,,,,0,0,0,,1612,16208,432,-82,127,-135
20.925,20.46,1.19,2.15,2.79,3.01,-0.23,0.82,0.14,0.76,0.90,901.00,1925.00,340.00,450.00,565.00,1125.00,1291.00,1935.00,,,,,,,,,,,,0,0,0,,1728,16344,356,-23,221,7
20.987,20.52,1.12,1.65,3.12,0.71,0.77,-0.24,1.54,2.48,-0.38,893.00,1946.00,336.00,480.00,534.00,1130.00,1341.00,1871.00,,,,,,,,,,,,0,0,0,,1592,16096,384,-152,144,-215
21.048,20.57,1.17,1.74,3.55,-0.52,2.97,2.16,-0.08,1.38,0.29,871.00,1917.00,305.00,475.00,558.00,1073.00,1319.00,1919.00,,,,,,,,,,,,0,0,0,,1576,16096,344,-185,-13,-133
21.11,20.63,1.23,2.18,3.21,2.35,1.00,2.24,-0.37,2.16,0.27,880.00,1901.00,322.00,447.00,566.00,1078.00,1302.00,1862.00,,,,,,,,,,,,0,0,0,,1712,16216,380,-98,218,-124
21.151,20.68,1.23,2.37,3.00,2.60,-0.20,1.24,0.67,2.39,-0.32,887.00,1897.00,342.00,457.00,545.00,1091.00,1339.00,1875.00,,,,,,,,,,,,0,0,0,,1636,16228,264,-179,193,-133
21.213,20.74,1.24,1.94,3.44,0.00,1.96,1.54,0.91,1.58,0.92,873.00,1907.00,319.00,478.00,535.00,1071.00,1270.00,1872.00,,,,,,,,,,,,0,0,0,,1736,16140,492,-166,28,-73
21.274,20.80,1.33,2.12,3.57,1.49,1.93,2.93,-0.83,3.33,-0.75,864.00,1887.00,311.00,451.00,573.00,1062.00,1347.00,1827.00,,,,,,,,,,,,0,0,0,,1744,16340,512,-125,186,-204
21.378,20.85,1.30,2.92,2.63,4.36,-1.63,0.88,0.75,1.16,0.72,896.00,1875.00,358.00,443.00,546.00,1104.00,1294.00,1914.00,,,,,,,,,,,,0,0,0,,1664,16088,324,-15,260,-64
21.398,20.91,1.30,1.87,3.34,0.36,1.05,1.30,1.23,2.59,0.28,879.00,1918.00,333.00,483.00,528.00,1072.00,1291.00,1830.00,,,,,,,,,,,,0,0,0,,1728,16056,312,-68,155,-97
21.44,20.96,1.36,2.01,3.67,0.14,2.87,2.44,-0.17,2.39,-0.17,861.00,1890.00,303.00,464.00,558.00,1064.00,1328.00,1867.00,,,,,,,,,,,,0,0,0,,1808,16344,264,-132,195,-209
21.481,21.01,1.38,2.58,2.93,3.79,0.06,1.77,-0.01,1.42,1.02,887.00,1885.00,330.00,433.00,560.00,1088.00,1267.00,1879.00,,,,,,,,,,,,0,0,0,,1676,16220,204,-84,98,-203
21.563,21.07,1.32,2.02,3.37,2.29,0.18,0.24,1.69,2.62,-0.25,875.00,1905.00,337.00,458.00,525.00,1104.00,1328.00,1854.00,,,,,,,,,,,,0,0,0,,1588,16192,300,-90,122,-115
21.584,21.12,1.33,2.03,3.37,-0.89,3.27,1.45,0.60,1.37,0.56,875.00,1904.00,302.00,478.00,545.00,1084.00,1300.00,1906.00,,,,,,,,,,,,0,0,0,,1424,16056,456,-154,281,-159
21.645,21.18,1.36,2.14,3.33,1.20,1.39,1.84,-0.53,2.46,-0.07,875.00,1898.00,322.00,463.00,575.00,1100.00,1319.00,1857.00,,,,,,,,,,,,0,0,0,,1512,16068,136,-381,238,-119
21.726,21.23,1.30,2.24,2.98,4.58,-1.45,0.21,0.64,1.39,0.12,890.00,1908.00,353.00,437.00,556.00,1137.00,1331.00,1927.00,,,,,,,,,,,,0,0,0,,1604,16252,516,-446,43,-101
21.747,21.29,1.25,1.78,3.12,-1.38,1.80,0.29,1.02,1.23,0.81,891.00,1936.00,330.00,507.00,544.00,1122.00,1286.00,1904.00,,,,,,,,,,,,0,0,0,,1612,16124,592,-186,161,83
21.808,21.34,1.27,1.68,3.36,0.35,2.08,1.76,-0.91,2.69,-0.71,881.00,1931.00,315.00,470.00,588.00,1115.00,1360.00,1872.00,,,,,,,,,,,,0,0,0,,1820,16428,620,-209,212,99
21.85,21.40,1.20,2.32,2.41,3.25,-1.31,-0.13,0.63,0.71,0.84,917.00,1932.00,359.00,459.00,560.00,1153.00,1296.00,1942.00,,,,,,,,,,,,0,0,0,,1640,16048,588,-183,238,-270
21.933,21.45,1.17,1.65,3.39,0.27,1.02,0.46,1.34,2.21,0.34,880.00,1932.00,334.00,485.00,533.00,1105.00,1296.00,1855.00,,,,,,,,,,,,0,0,0,,1628,15996,480,-200,200,-241
21.994,21.51,1.23,2.02,3.56,-0.30,2.95,2.35,-0.11,2.04,-0.06,866.00,1895.00,304.00,471.00,557.00,1066.00,1328.00,1887.00,,,,,,,,,,,,0,0,0,,1604,16104,412,-65,21,-14
22.096,21.57,1.25,2.42,3.05,3.39,0.48,1.77,-0.01,1.68,0.77,884.00,1891.00,325.00,435.00,560.00,1088.00,1278.00,1872.00,,,,,,,,,,,,0,0,0,,1720,16284,760,-323,140,-27
22.117,21.62,1.22,2.33,3.16,2.32,0.23,0.63,1.49,2.73,-0.19,880.00,1892.00,336.00,457.00,527.00,1093.00,1321.00,1843.00,,,,,,,,,,,,0,0,0,,1864,16148,440,-227,312,-98
22.138,21.67,1.23,2.13,3.42,-0.39,2.62,1.48,0.72,1.57,0.80,871.00,1894.00,310.00,477.00,541.00,1079.00,1279.00,1879.00,,,,,,,,,,,,0,0,0,,1684,16152,472,-69,100,-207
22.199,21.73,1.29,2.17,3.34,1.35,1.57,2.39,-0.58,3.05,-0.26,874.00,1895.00,318.00,458.00,571.00,1078.00,1318.00,1823.00,,,,,,,,,,,,0,0,0,,1684,16256,464,-94,26,-145
22.26,21.78,1.27,2.62,2.79,3.95,-1.44,0.82,0.40,1.59,0.33,893.00,1889.00,357.00,448.00,557.00,1117.00,1311.00,1901.00,,,,,,,,,,,,0,0,0,,1648,16144,496,-86,150,-239
22.322,21.84,1.25,1.78,3.45,-0.49,1.39,0.97,1.17,1.98,0.66,875.00,1919.00,332.00,495.00,533.00,1088.00,1279.00,1856.00,,,,,,,,,,,,0,0,0,,1556,16168,276,-42,173,-210
22.363,21.89,1.31,2.07,3.52,0.35,2.55,2.47,-0.71,2.93,-0.60,867.00,1893.00,307.00,464.00,574.00,1078.00,1346.00,1849.00,,,,,,,,,,,,0,0,0,,1688,16192,188,-110,47,-201
22.445,21.95,1.31,2.48,2.84,4.59,-1.03,1.32,0.14,1.18,0.96,893.00,1897.00,345.00,432.00,560.00,1103.00,1277.00,1900.00,,,,,,,,,,,,0,0,0,,1800,16208,420,-297,37,-214
22.465,22.00,1.26,1.90,3.37,1.46,0.85,0.31,1.25,2.69,-0.09,877.00,1914.00,330.00,465.00,537.00,1114.00,1315.00,1841.00,,,,,,,,,,,,0,0,0,,1672,16024,388,-242,-71,-164
22.526,22.06,1.29,2.13,3.23,-1.05,3.21,1.71,-0.03,1.63,0.18,880.00,1904.00,304.00,482.00,561.00,1091.00,1321.00,1906.00,,,,,,,,,,,,0,0,0,,1632,16208,504,-212,-153,-142
22.568,22.11,1.29,2.11,3.22,3.16,0.05,1.30,-0.38,1.72,0.50,881.00,1906.00,334.00,444.00,576.00,1119.00,1296.00,1883.00,,,,,,,,,,,,0,0,0,,1632,15984,676,-37,35,-144
22.631,22.17,1.22,2.06,3.13,2.04,-0.17,-0.08,0.98,1.89,-0.10,886.00,1914.00,345.00,467.00,549.00,1140.00,1335.00,1901.00,,,,,,,,,,,,0,0,0,,1748,16488,516,-80,177,-150
22.693,22.23,1.19,1.92,2.97,-1.01,2.07,0.73,0.57,0.94,0.98,896.00,1933.00,323.00,496.00,553.00,1116.00,1281.00,1917.00,,,,,,,,,,,,0,0,0,,1676,16148,544,-124,169,-182
22.755,22.28,1.27,1.98,3.45,1.25,1.72,2.72,-1.08,3.01,-0.64,872.00,1904.00,316.00,458.00,583.00,1078.00,1347.00,1845.00,,,,,,,,,,,,0,0,0,,1672,16028,288,-155,44,-185
22.838,22.33,1.23,2.77,2.87,4.05,-1.83,0.53,0.84,1.28,0.62,887.00,1874.00,364.00,451.00,547.00,1117.00,1298.00,1910.00,,,,,,,,,,,,0,0,0,,1584,16092,752,-273,126,-101
22.857,22.39,1.23,1.85,3.64,-0.24,1.70,1.15,1.11,2.32,0.46,865.00,1904.00,325.00,486.00,533.00,1082.00,1285.00,1841.00,,,,,,,,,,,,0,0,0,,1600,16292,620,-184,187,-95
22.899,22.44,1.31,2.29,3.62,0.16,2.92,2.89,-0.52,2.77,-0.47,859.00,1872.00,302.00,463.00,564.00,1055.00,1340.00,1854.00,,,,,,,,,,,,0,0,0,,1712,16240,516,-33,252,-76
22.96,22.50,1.34,2.57,3.14,3.89,0.08,1.80,0.04,1.49,1.06,877.00,1875.00,329.00,431.00,558.00,1085.00,1263.00,1872.00,,,,,,,,,,,,0,0,0,,1724,16208,520,76,77,-169
23.022,22.55,1.30,2.03,3.60,1.68,0.44,0.60,1.64,2.98,-0.19,864.00,1892.00,336.00,466.00,523.00,1090.00,1315.00,1825.00,,,,,,,,,,,,0,0,0,,1740,16184,368,113,61,-211
23.084,22.61,1.35,2.28,3.50,-0.73,3.28,2.27,0.15,1.57,0.68,865.00,1879.00,301.00,475.00,550.00,1062.00,1287.00,1885.00,,,,,,,,,,,,0,0,0,,1716,16132,504,16,14,-266
23.126,22.66,1.38,2.25,3.49,2.84,0.61,2.03,-0.33,2.47,0.25,866.00,1882.00,326.00,443.00,567.00,1086.00,1296.00,1840.00,,,,,,,,,,,,0,0,0,,1608,16124,336,-128,71,-256
23.187,22.72,1.35,2.58,3.08,2.60,-0.20,0.82,0.44,1.91,-0.01,880.00,1878.00,342.00,457.00,556.00,1116.00,1328.00,1895.00,,,,,,,,,,,,0,0,0,,1580,16148,500,-175,84,-191
23.268,22.77,1.29,2.51,2.63,-0.96,2.00,0.09,1.81,1.35,1.05,903.00,1906.00,324.00,496.00,523.00,1107.00,1267.00,1883.00,,,,,,,,,,,,0,0,0,,1620,16144,468,-115,184,-147
23.289,22.83,1.35,1.91,3.66,0.69,1.73,2.47,-1.15,3.04,-0.76,863.00,1898.00,319.00,468.00,588.00,1091.00,1355.00,1849.00,,,,,,,,,,,,0,0,0,,1576,16088,404,-78,190,-141
23.351,22.89,1.29,2.47,2.76,4.09,-1.90,0.21,0.44,0.81,0.81,897.00,1902.00,365.00,451.00,562.00,1143.00,1296.00,1936.00,,,,,,,,,,,,0,0,0,,1564,16224,368,-112,146,-134
23.413,22.94,1.23,1.64,3.50,-0.51,1.34,0.03,1.24,2.05,0.29,875.00,1927.00,333.00,496.00,540.00,1127.00,1303.00,1869.00,,,,,,,,,,,,0,0,0,,1576,16208,524,-137,87,-166
23.496,23.00,1.25,1.99,3.30,-1.34,3.24,1.72,-0.52,1.70,-0.18,879.00,1911.00,305.00,487.00,576.00,1105.00,1345.00,1919.00,,,,,,,,,,,,0,0,0,,1668,16224,428,-161,147,-43
23.558,23.05,1.22,2.10,3.01,2.75,0.08,0.64,-0.09,1.08,0.89,891.00,1917.00,336.00,451.00,574.00,1140.00,1284.00,1911.00,,,,,,,,,,,,0,0,0,,1716,16120,508,-172,108,-318
23.578,23.10,1.17,2.02,3.37,1.89,0.04,0.10,1.53,2.36,-0.25,875.00,1905.00,342.00,467.00,531.00,1115.00,1334.00,1873.00,,,,,,,,,,,,0,0,0,,1616,16224,496,-176,3,-227
23.62,23.16,1.21,2.11,3.45,-0.69,2.90,2.11,0.04,1.29,0.72,870.00,1894.00,307.00,479.00,555.00,1072.00,1291.00,1904.00,,,,,,,,,,,,0,0,0,,1652,16168,616,22,84,-86
23.682,23.21,1.28,2.79,3.39,1.96,1.25,2.47,-0.74,2.84,-0.17,862.00,1847.00,320.00,451.00,575.00,1079.00,1317.00,1834.00,,,,,,,,,,,,0,0,0,,1648,16196,480,-60,213,-145
23.744,23.27,1.27,2.77,3.04,3.36,-0.98,1.09,0.38,1.66,0.25,879.00,1866.00,352.00,453.00,555.00,1106.00,1315.00,1900.00,,,,,,,,,,,,0,0,0,,1576,16088,312,-237,149,-154
23.784,23.32,1.27,2.09,3.54,-0.66,1.78,1.36,1.00,1.89,0.86,866.00,1891.00,326.00,493.00,534.00,1076.00,1267.00,1852.00,,,,,,,,,,,,0,0,0,,1680,16304,464,-150,125,-141
23.846,23.38,1.37,2.17,3.79,0.25,2.95,3.31,-1.24,3.13,-0.66,853.00,1872.00,301.00,461.00,582.00,1058.00,1345.00,1837.00,,,,,,,,,,,,0,0,0,,1716,16340,476,-83,159,-120
23.948,23.43,1.36,2.88,2.85,4.90,-1.66,1.14,0.36,1.30,0.95,886.00,1867.00,355.00,434.00,555.00,1104.00,1275.00,1892.00,,,,,,,,,,,,0,0,0,,1716,16192,328,-69,96,-152
23.969,23.49,1.34,2.11,3.79,0.71,1.55,0.87,1.30,2.80,0.11,854.00,1877.00,322.00,470.00,530.00,1088.00,1298.00,1823.00,,,,,,,,,,,,0,0,0,,1596,16196,396,-78,84,-215
24.009,23.55,1.39,2.25,3.63,-0.53,3.46,2.38,-0.19,1.97,0.15,859.00,1874.00,297.00,469.00,559.00,1067.00,1315.00,1882.00,,,,,,,,,,,,0,0,0,,1552,16164,592,-109,55,-164
24.071,23.60,1.40,2.37,3.40,3.93,-0.32,1.62,-0.03,1.82,0.63,868.00,1877.00,336.00,435.00,562.00,1095.00,1285.00,1869.00,,,,,,,,,,,,0,0,0,,1544,16140,464,-150,153,-136
24.133,23.66,1.35,2.18,3.49,2.36,-0.33,0.32,1.11,2.38,-0.20,867.00,1887.00,346.00,463.00,541.00,1118.00,1330.00,1869.00,,,,,,,,,,,,0,0,0,,1708,16240,440,-99,151,-154
24.174,23.71,1.33,2.10,3.30,-0.92,2.62,0.94,0.60,1.14,0.90,877.00,1902.00,313.00,487.00,550.00,1106.00,1282.00,1906.00,,,,,,,,,,,,0,0,0,,1620,16212,368,-113,50,-200
24.237,23.76,1.36,1.88,3.65,1.04,1.39,2.00,-0.90,2.74,-0.44,864.00,1901.00,323.00,466.00,585.00,1104.00,1339.00,1855.00,,,,,,,,,,,,0,0,0,,1628,16200,556,-101,30,-252
24.296,23.82,1.29,2.61,2.78,3.93,-2.00,0.04,0.37,0.92,0.53,894.00,1891.00,368.00,455.00,566.00,1153.00,1313.00,1942.00,,,,,,,,,,,,0,0,0,,1620,16208,588,-75,118,-144
24.357,23.87,1.24,1.52,3.54,-0.82,1.28,0.18,0.72,1.51,0.67,875.00,1934.00,336.00,503.00,554.00,1136.00,1289.00,1890.00,,,,,,,,,,,,0,0,0,,1700,16428,372,-152,214,-23
24.399,23.93,1.29,1.88,3.46,0.06,2.12,2.21,-0.87,2.47,-0.64,873.00,1911.00,316.00,475.00,582.00,1094.00,1360.00,1885.00,,,,,,,,,,,,0,0,0,,1596,16140,344,-194,220,-163
24.459,23.98,1.29,2.43,3.01,3.73,-0.95,1.35,0.06,0.92,1.02,886.00,1893.00,349.00,446.00,562.00,1104.00,1279.00,1917.00,,,,,,,,,,,,0,0,0,,1568,16084,508,-195,77,-71
24.52,24.04,1.27,2.16,3.52,1.54,0.49,0.97,1.17,2.69,0.08,866.00,1887.00,336.00,468.00,533.00,1088.00,1303.00,1833.00,,,,,,,,,,,,0,0,0,,1592,16332,340,-99,214,-101
24.582,24.09,1.27,2.19,3.85,-0.02,3.10,1.23,1.86,1.97,0.24,850.00,1868.00,300.00,464.00,511.00,1057.00,1309.00,1878.00,,,,,,,,,,,,0,0,0,,1660,16208,376,-98,178,-137
24.663,24.15,1.33,2.44,3.47,3.19,0.26,2.34,-0.30,2.26,0.57,864.00,1869.00,330.00,441.00,563.00,1072.00,1279.00,1840.00,,,,,,,,,,,,0,0,0,,1516,16112,708,-121,62,-102
24.705,24.20,1.31,2.56,3.43,2.48,-0.10,1.00,0.75,2.48,-0.02,864.00,1862.00,341.00,458.00,545.00,1099.00,1315.00,1853.00,,,,,,,,,,,,0,0,0,,1680,16228,520,-72,57,-204
24.725,24.26,1.33,2.29,3.58,-0.02,1.68,1.81,0.37,1.58,1.04,861.00,1874.00,324.00,482.00,548.00,1075.00,1262.00,1866.00,,,,,,,,,,,,0,0,0,,1552,16144,484,-133,154,-120
24.767,24.32,1.42,2.12,3.87,0.87,1.79,3.08,-1.29,3.46,-0.66,850.00,1872.00,317.00,464.00,586.00,1069.00,1337.00,1813.00,,,,,,,,,,,,0,0,0,,1596,16188,324,-111,155,-117
24.828,24.37,1.39,2.91,2.97,4.48,-1.46,0.76,0.56,1.34,0.70,880.00,1859.00,354.00,439.00,553.00,1115.00,1291.00,1901.00,,,,,,,,,,,,0,0,0,,1596,16208,460,-83,170,-112
24.889,24.42,1.36,1.96,3.69,-0.39,1.47,0.88,1.20,2.42,0.51,861.00,1893.00,330.00,492.00,533.00,1091.00,1279.00,1831.00,,,,,,,,,,,,0,0,0,,1684,16240,468,-146,268,-107
24.95,24.48,1.41,2.33,3.57,0.28,2.58,2.40,-0.36,2.57,-0.32,861.00,1872.00,307.00,465.00,564.00,1071.00,1334.00,1861.00,,,,,,,,,,,,0,0,0,,1560,16224,336,-95,292,-117
25.033,24.53,1.41,2.57,3.14,3.14,0.17,1.23,0.17,1.21,1.14,877.00,1875.00,332.00,443.00,560.00,1106.00,1264.00,1889.00,,,,,,,,,,,,0,0,0,,1644,16224,520,-126,110,-125
25.053,24.59,1.34,2.01,3.65,1.15,0.89,0.11,1.46,2.69,-0.15,862.00,1891.00,331.00,470.00,533.00,1117.00,1319.00,1844.00,,,,,,,,,,,,0,0,0,,1620,16108,436,-106,88,-168
25.114,24.64,1.36,2.14,3.48,-0.58,2.75,1.74,-0.00,1.38,0.60,868.00,1890.00,309.00,479.00,560.00,1089.00,1297.00,1903.00,,,,,,,,,,,,0,0,0,,1428,16188,468,-207,185,-145
25.155,24.70,1.38,2.06,3.46,1.92,0.97,1.74,-0.75,2.25,0.11,870.00,1897.00,325.00,455.00,583.00,1111.00,1311.00,1863.00,,,,,,,,,,,,0,0,0,,1528,16124,440,-162,195,-110
25.219,24.75,1.31,2.44,3.02,2.43,-0.67,-0.05,0.50,1.72,-0.04,885.00,1891.00,352.00,466.00,563.00,1153.00,1335.00,1911.00,,,,,,,,,,,,0,0,0,,1772,16460,308,-122,159,-73
25.278,24.81,1.28,1.85,3.32,-1.49,1.67,0.79,0.65,1.10,1.15,880.00,1920.00,333.00,511.00,550.00,1111.00,1266.00,1897.00,,,,,,,,,,,,0,0,0,,1604,16228,508,-227,228,-145
25.319,24.86,1.37,2.09,3.56,0.96,1.81,2.96,-1.25,3.03,-0.69,865.00,1890.00,316.00,462.00,586.00,1073.00,1350.00,1846.00,,,,,,,,,,,,0,0,0,,1552,16060,376,-114,80,-147
25.421,24.92,1.36,2.86,2.84,3.81,-1.24,1.26,0.19,1.19,0.87,887.00,1869.00,354.00,448.00,559.00,1104.00,1283.00,1904.00,,,,,,,,,,,,0,0,0,,1592,16244,624,-158,111,-203
25.442,24.98,1.34,1.92,3.83,1.02,0.94,0.99,1.33,2.68,0.34,855.00,1889.00,331.00,472.00,528.00,1082.00,1285.00,1821.00,,,,,,,,,,,,0,0,0,,1604,16152,492,-179,195,-214
25.483,25.03,1.41,2.36,3.84,-0.07,2.94,2.78,-0.35,2.51,-0.13,848.00,1856.00,303.00,467.00,560.00,1055.00,1322.00,1856.00,,,,,,,,,,,,0,0,0,,1528,16176,464,-164,124,-139
25.546,25.08,1.44,2.57,3.46,4.62,0.07,2.01,-0.06,1.85,0.91,862.00,1859.00,325.00,419.00,559.00,1079.00,1265.00,1853.00,,,,,,,,,,,,0,0,0,,1532,16272,540,-161,97,-173
25.609,25.14,1.40,2.39,3.68,2.67,-0.22,0.63,1.42,2.81,-0.10,855.00,1862.00,342.00,456.00,529.00,1095.00,1313.00,1833.00,,,,,,,,,,,,0,0,0,,1672,16280,600,-138,131,-179
25.651,25.19,1.43,2.45,3.57,-0.12,2.77,1.96,0.35,1.88,0.68,859.00,1863.00,306.00,470.00,547.00,1069.00,1280.00,1862.00,,,,,,,,,,,,0,0,0,,1568,16128,492,-101,116,-202
25.756,25.25,1.49,2.16,3.82,1.37,1.62,2.68,-0.84,2.81,0.04,852.00,1872.00,317.00,457.00,576.00,1073.00,1303.00,1826.00,,,,,,,,,,,,0,0,0,,1608,16208,492,-155,39,-206
25.776,25.30,1.44,2.87,3.09,3.41,-0.90,0.47,0.76,1.63,0.39,875.00,1856.00,350.00,451.00,550.00,1122.00,1306.00,1895.00,,,,,,,,,,,,0,0,0,,1552,16128,412,-206,67,-166
25.817,25.36,1.43,2.09,3.61,-0.86,1.85,1.18,0.75,1.78,0.93,863.00,1888.00,326.00,496.00,543.00,1091.00,1265.00,1857.00,,,,,,,,,,,,0,0,0,,1516,16140,604,-213,102,-211
25.88,25.41,1.48,2.21,3.78,0.63,1.98,2.54,-1.02,2.94,-0.58,853.00,1870.00,315.00,466.00,583.00,1084.00,1344.00,1847.00,,,,,,,,,,,,0,0,0,,1516,16184,684,-64,147,-168
25.942,25.47,1.46,2.79,2.95,3.66,-0.93,0.96,0.03,0.85,1.11,883.00,1869.00,349.00,447.00,567.00,1122.00,1274.00,1917.00,,,,,,,,,,,,0,0,0,,1440,16152,436,42,73,-167
26.043,25.52,1.40,1.98,3.73,0.48,1.18,0.34,1.21,2.67,-0.04,859.00,1890.00,330.00,479.00,538.00,1114.00,1312.00,1840.00,,,,,,,,,,,,0,0,0,,1564,16276,516,-1,89,-71
26.064,25.58,1.43,2.39,3.42,-0.57,3.05,1.92,-0.13,1.71,0.13,867.00,1875.00,304.00,475.00,562.00,1085.00,1323.00,1903.00,,,,,,,,,,,,0,0,0,,1624,16160,408,-140,188,-244
26.125,25.64,1.46,2.46,3.31,3.71,-0.24,1.99,-0.42,1.82,0.76,871.00,1875.00,336.00,438.00,570.00,1090.00,1276.00,1863.00,,,,,,,,,,,,0,0,0,,1520,16120,444,-212,41,-257
26.145,25.69,1.41,2.53,3.54,2.25,-0.08,0.43,1.49,2.48,0.02,859.00,1858.00,342.00,462.00,529.00,1102.00,1312.00,1851.00,,,,,,,,,,,,0,0,0,,1472,16192,636,-221,3,-204
26.207,25.75,1.43,2.38,3.74,-0.60,2.69,1.90,0.34,1.53,0.94,852.00,1859.00,310.00,480.00,548.00,1072.00,1270.00,1875.00,,,,,,,,,,,,0,0,0,,1544,16160,548,-214,165,-180
26.268,25.80,1.51,2.02,4.02,1.57,1.50,2.96,-0.90,3.34,-0.35,845.00,1872.00,318.00,455.00,575.00,1063.00,1318.00,1807.00,,,,,,,,,,,,0,0,0,,1480,16176,528,-185,158,-70
26.309,25.85,1.48,3.08,3.14,4.79,-2.19,1.03,0.60,1.66,0.47,869.00,1838.00,366.00,442.00,549.00,1102.00,1300.00,1889.00,,,,,,,,,,,,0,0,0,,1600,16112,472,-162,123,-171
26.371,25.91,1.47,2.17,3.86,-0.61,1.71,1.27,1.21,2.14,0.81,850.00,1869.00,327.00,493.00,529.00,1074.00,1265.00,1837.00,,,,,,,,,,,,0,0,0,,1604,16168,480,-201,66,-104
26.434,25.96,1.56,2.51,3.94,0.35,2.55,3.30,-0.99,3.21,-0.62,841.00,1840.00,307.00,464.00,574.00,1051.00,1340.00,1829.00,,,,,,,,,,,,0,0,0,,1580,16100,616,-152,43,-171
26.494,26.02,1.58,3.04,3.26,4.26,-0.81,1.86,0.02,1.48,1.08,864.00,1835.00,343.00,435.00,558.00,1083.00,1262.00,1872.00,,,,,,,,,,,,0,0,0,,1564,16128,564,-127,103,-219
26.577,26.07,1.54,2.43,3.81,2.10,-0.03,0.78,1.37,3.14,-0.20,848.00,1852.00,342.00,464.00,529.00,1090.00,1312.00,1814.00,,,,,,,,,,,,0,0,0,,1504,16080,472,-154,58,-205
26.597,26.13,1.58,2.41,3.84,-0.71,3.09,2.35,-0.11,1.77,0.39,847.00,1852.00,304.00,477.00,557.00,1066.00,1303.00,1885.00,,,,,,,,,,,,0,0,0,,1444,16108,684,-139,111,-132
26.638,26.18,1.60,2.63,3.64,2.94,0.29,2.08,-0.61,1.98,0.63,853.00,1846.00,331.00,445.00,575.00,1092.00,1281.00,1857.00,,,,,,,,,,,,0,0,0,,1428,16104,672,-57,192,-96
26.698,26.24,1.55,2.54,3.50,2.60,-0.67,0.44,0.90,2.26,-0.10,861.00,1860.00,351.00,463.00,546.00,1119.00,1326.00,1873.00,,,,,,,,,,,,0,0,0,,1636,16252,668,-115,159,-109
26.76,26.30,1.53,2.20,3.65,-0.39,1.47,1.17,0.25,1.25,0.96,859.00,1877.00,330.00,492.00,558.00,1106.00,1275.00,1895.00,,,,,,,,,,,,0,0,0,,1536,16192,460,7,114,-14
26.863,26.35,1.56,2.11,3.77,0.51,1.45,2.22,-1.22,2.83,-0.58,855.00,1878.00,325.00,475.00,593.00,1104.00,1347.00,1855.00,,,,,,,,,,,,0,0,0,,1564,16052,540,-19,130,54
26.884,26.41,1.48,2.76,2.87,3.80,-1.80,-0.13,0.66,0.95,0.68,887.00,1875.00,365.00,455.00,559.00,1152.00,1302.00,1932.00,,,,,,,,,,,,0,0,0,,1680,16228,552,-132,176,-265
26.926,26.46,1.45,2.06,3.66,-0.81,1.55,0.94,1.04,2.10,0.52,861.00,1887.00,331.00,499.00,537.00,1093.00,1286.00,1854.00,,,,,,,,,,,,0,0,0,,1508,16128,492,-164,67,-198
26.967,26.51,1.54,2.56,3.77,0.42,2.53,3.18,-0.94,2.59,-0.27,848.00,1845.00,307.00,463.00,574.00,1055.00,1330.00,1857.00,,,,,,,,,,,,0,0,0,,1556,16124,552,-89,31,-122
27.029,26.57,1.57,3.00,3.34,4.21,-0.46,2.14,0.03,1.59,0.99,861.00,1834.00,337.00,432.00,555.00,1071.00,1265.00,1868.00,,,,,,,,,,,,0,0,0,,1532,16232,464,-162,195,-123
27.09,26.62,1.55,2.55,3.88,2.17,0.27,1.24,1.39,3.31,-0.20,843.00,1840.00,336.00,459.00,524.00,1070.00,1308.00,1802.00,,,,,,,,,,,,0,0,0,,1572,16188,516,-154,208,-163
27.133,26.68,1.63,2.50,4.07,-0.09,2.88,3.16,-0.38,2.65,-0.32,835.00,1834.00,304.00,468.00,557.00,1040.00,1332.00,1855.00,,,,,,,,,,,,0,0,0,,1608,16320,420,-73,107,-89
27.234,26.73,1.69,2.88,3.66,3.79,0.06,2.79,-0.59,2.85,0.27,848.00,1827.00,330.00,433.00,567.00,1061.00,1286.00,1812.00,,,,,,,,,,,,0,0,0,,1656,16144,372,-84,93,-123
27.255,26.79,1.69,2.84,3.72,3.30,-0.33,1.78,0.45,2.54,0.07,846.00,1827.00,340.00,446.00,546.00,1074.00,1307.00,1844.00,,,,,,,,,,,,0,0,0,,1640,16156,592,-88,119,-177
27.316,26.84,1.70,2.52,3.78,0.11,1.19,1.88,0.69,1.91,1.02,848.00,1847.00,332.00,486.00,538.00,1063.00,1256.00,1843.00,,,,,,,,,,,,0,0,0,,1680,16136,552,-139,22,-233
27.4,26.90,1.79,2.51,3.98,0.91,1.89,3.42,-1.41,3.62,-0.77,839.00,1838.00,315.00,462.00,586.00,1058.00,1341.00,1807.00,,,,,,,,,,,,0,0,0,,1460,16168,512,-172,48,-204
27.419,26.95,1.77,3.16,3.20,5.11,-2.14,1.35,0.13,1.38,0.85,865.00,1829.00,363.00,436.00,560.00,1102.00,1280.00,1891.00,,,,,,,,,,,,0,0,0,,1528,16116,732,-195,167,-173
27.48,27.01,1.81,2.24,3.90,-0.19,1.40,2.65,-1.15,2.58,0.36,847.00,1862.00,330.00,489.00,586.00,1083.00,1286.00,1827.00,,,,,,,,,,,,0,0,0,,1548,16168,540,-127,138,-141
27.521,27.07,1.84,2.48,3.91,0.25,2.71,2.41,-0.23,2.42,-0.11,843.00,1844.00,305.00,464.00,560.00,1067.00,1323.00,1862.00,,,,,,,,,,,,0,0,0,,1524,16220,632,-143,101,-197
27.604,27.12,1.83,2.71,3.42,3.33,-0.12,1.61,-0.22,1.43,1.05,862.00,1851.00,336.00,443.00,568.00,1101.00,1265.00,1877.00,,,,,,,,,,,,0,0,0,,1472,16200,484,-68,95,-153
27.646,27.17,1.75,2.35,3.75,1.92,-0.07,0.29,1.26,2.76,-0.26,852.00,1861.00,344.00,468.00,537.00,1115.00,1325.00,1844.00,,,,,,,,,,,,0,0,0,,1508,15956,444,-94,113,-96
27.707,27.23,1.75,2.37,3.62,-2.05,3.54,1.77,-0.01,1.38,0.63,858.00,1866.00,304.00,497.00,560.00,1088.00,1295.00,1902.00,,,,,,,,,,,,0,0,0,,1640,16596,348,-176,222,-234
27.768,27.28,1.77,2.42,3.77,1.62,0.85,2.17,-0.60,2.62,0.07,850.00,1855.00,329.00,462.00,574.00,1088.00,1305.00,1838.00,,,,,,,,,,,,0,0,0,,1496,16092,388,-195,137,-154
27.829,27.34,1.74,3.05,3.41,3.53,-0.99,1.18,0.52,2.06,0.12,857.00,1827.00,351.00,450.00,550.00,1098.00,1315.00,1877.00,,,,,,,,,,,,0,0,0,,1560,16220,744,-104,14,-86
27.869,27.39,1.76,2.54,3.78,-0.84,2.13,2.12,0.50,1.86,1.05,848.00,1846.00,321.00,492.00,541.00,1058.00,1255.00,1845.00,,,,,,,,,,,,0,0,0,,1516,16288,524,-36,228,-134
27.992,27.45,1.86,2.61,4.06,2.18,1.17,3.73,-1.23,3.57,-0.62,834.00,1827.00,320.00,448.00,577.00,1040.00,1332.00,1804.00,,,,,,,,,,,,0,0,0,,1572,16256,324,-73,157,-157
28.012,27.50,1.86,3.39,3.25,4.93,-1.62,1.81,0.31,1.59,0.91,859.00,1810.00,354.00,433.00,550.00,1077.00,1271.00,1872.00,,,,,,,,,,,,0,0,0,,1612,16252,420,-49,48,-47
28.032,27.56,1.84,2.42,4.17,1.13,1.02,1.54,1.18,3.17,0.17,832.00,1835.00,329.00,469.00,527.00,1063.00,1285.00,1794.00,,,,,,,,,,,,0,0,0,,1600,16112,544,-97,86,-182
28.073,27.61,1.93,2.95,3.97,1.09,2.37,3.61,-0.43,2.61,0.05,833.00,1807.00,306.00,453.00,554.00,1023.00,1307.00,1840.00,,,,,,,,,,,,0,0,0,,1548,16180,628,-148,187,-151
28.134,27.67,1.95,3.15,3.57,4.37,-0.19,2.25,-0.14,2.09,0.91,848.00,1812.00,331.00,426.00,559.00,1071.00,1259.00,1835.00,,,,,,,,,,,,0,0,0,,1544,16160,524,-92,142,-163
28.175,27.73,1.92,2.91,3.94,2.75,-0.08,1.33,1.22,3.12,-0.11,835.00,1811.00,339.00,453.00,528.00,1071.00,1306.00,1811.00,,,,,,,,,,,,0,0,0,,1412,16144,496,-141,59,-196
28.237,27.78,1.94,2.72,3.96,-0.26,2.58,2.49,0.28,1.93,0.70,837.00,1824.00,310.00,475.00,544.00,1049.00,1277.00,1857.00,,,,,,,,,,,,0,0,0,,1460,16156,680,-123,86,-98
28.319,27.83,1.98,2.66,4.04,1.54,1.05,2.63,-0.66,3.22,-0.20,834.00,1824.00,326.00,461.00,571.00,1070.00,1310.00,1808.00,,,,,,,,,,,,0,0,0,,1580,16172,484,-106,278,-107
28.36,27.89,1.93,3.08,3.46,3.87,-1.15,1.00,0.54,1.84,0.32,854.00,1822.00,352.00,446.00,551.00,1105.00,1306.00,1883.00,,,,,,,,,,,,0,0,0,,1656,16244,356,-103,179,-181
28.401,27.94,1.91,2.36,3.84,-0.91,1.92,1.48,0.65,1.83,0.85,848.00,1856.00,325.00,496.00,543.00,1081.00,1269.00,1857.00,,,,,,,,,,,,0,0,0,,1536,16072,660,-164,64,-153
28.463,28.00,1.97,2.47,4.00,0.92,1.71,3.15,-1.51,3.17,-0.78,839.00,1840.00,318.00,464.00,592.00,1072.00,1353.00,1840.00,,,,,,,,,,,,0,0,0,,1620,16168,492,-41,91,-148
28.525,28.05,1.92,3.17,3.11,4.47,-1.62,0.97,0.26,1.17,0.86,869.00,1833.00,357.00,441.00,560.00,1115.00,1284.00,1906.00,,,,,,,,,,,,0,0,0,,1576,16088,548,-73,125,-85
28.607,28.11,1.85,2.33,3.85,1.17,0.56,0.46,1.30,2.61,0.05,848.00,1858.00,337.00,474.00,534.00,1106.00,1307.00,1840.00,,,,,,,,,,,,0,0,0,,1548,16244,536,-174,172,-312
28.627,28.16,1.89,2.75,3.79,0.07,2.41,2.80,-0.40,2.23,-0.05,844.00,1830.00,311.00,471.00,561.00,1055.00,1323.00,1873.00,,,,,,,,,,,,0,0,0,,1620,16136,552,-248,116,-165
28.709,28.22,1.92,2.99,3.75,4.34,-0.40,2.40,-0.29,2.18,0.66,842.00,1814.00,335.00,429.00,562.00,1069.00,1274.00,1841.00,,,,,,,,,,,,0,0,0,,1628,16260,588,-119,73,-103
28.75,28.27,1.89,2.91,3.94,2.94,-0.36,1.39,1.10,2.95,-0.19,835.00,1811.00,343.00,453.00,531.00,1072.00,1316.00,1827.00,,,,,,,,,,,,0,0,0,,1492,16264,552,-107,182,-137
28.811,28.33,1.93,3.08,3.75,0.45,1.93,2.53,0.44,1.81,1.02,841.00,1808.00,317.00,470.00,539.00,1043.00,1258.00,1850.00,,,,,,,,,,,,0,0,0,,1612,16096,360,-141,144,-216
28.853,28.39,2.01,2.70,4.30,2.33,0.95,3.52,-1.03,3.48,-0.27,822.00,1809.00,323.00,448.00,573.00,1043.00,1309.00,1793.00,,,,,,,,,,,,0,0,0,,1616,16168,400,-4,45,-162
28.915,28.44,1.99,3.53,3.42,4.59,-1.97,1.72,0.30,2.07,0.39,849.00,1792.00,363.00,443.00,551.00,1081.00,1296.00,1863.00,,,,,,,,,,,,0,0,0,,1676,16204,472,-154,112,-159
28.976,28.50,1.99,2.68,4.04,0.48,0.96,2.03,0.67,2.61,0.68,834.00,1823.00,334.00,482.00,537.00,1057.00,1263.00,1809.00,,,,,,,,,,,,0,0,0,,1580,16068,488,-105,131,-190
29.059,28.55,2.08,2.79,4.18,2.03,1.22,3.72,-1.00,3.50,-0.67,826.00,1808.00,320.00,450.00,570.00,1034.00,1337.00,1811.00,,,,,,,,,,,,0,0,0,,1552,16148,472,-125,93,-225
29.079,28.60,2.09,3.31,3.52,4.58,-1.18,2.25,-0.18,1.73,0.96,848.00,1803.00,348.00,434.00,560.00,1072.00,1264.00,1859.00,,,,,,,,,,,,0,0,0,,1488,16108,708,-173,73,-160
29.121,28.66,2.05,2.78,4.11,1.96,0.35,1.24,1.22,3.27,-0.06,829.00,1812.00,336.00,462.00,529.00,1075.00,1299.00,1798.00,,,,,,,,,,,,0,0,0,,1476,16040,540,-143,107,-153
29.181,28.71,2.09,2.91,4.00,0.51,2.32,2.87,-0.38,2.32,0.17,832.00,1808.00,310.00,464.00,560.00,1052.00,1305.00,1855.00,,,,,,,,,,,,0,0,0,,1464,16164,500,-229,186,-173
29.243,28.77,2.11,2.86,3.86,3.71,-0.24,2.51,-0.59,2.29,0.54,839.00,1818.00,336.00,438.00,570.00,1073.00,1280.00,1839.00,,,,,,,,,,,,0,0,0,,1608,16188,456,-156,147,-167
29.305,28.82,2.05,3.02,3.61,2.58,0.08,0.88,0.85,2.55,-0.09,848.00,1819.00,337.00,454.00,543.00,1101.00,1318.00,1851.00,,,,,,,,,,,,0,0,0,,1488,16052,608,-61,66,-175
29.366,28.88,2.01,2.73,3.76,-0.29,2.24,1.39,0.55,1.52,0.93,846.00,1833.00,316.00,480.00,547.00,1088.00,1271.00,1876.00,,,,,,,,,,,,0,0,0,,1592,16336,408,-29,142,-112
29.428,28.93,2.06,2.63,3.96,1.28,1.19,2.91,-1.14,3.40,-0.65,838.00,1830.00,325.00,464.00,583.00,1072.00,1338.00,1817.00,,,,,,,,,,,,0,0,0,,1520,16172,448,-53,123,-145
29.45,28.99,2.03,3.54,3.20,4.54,-2.15,1.53,0.17,1.82,0.53,859.00,1802.00,367.00,446.00,557.00,1093.00,1292.00,1874.00,,,,,,,,,,,,0,0,0,,1544,16040,392,-84,105,-145
29.511,29.05,2.04,2.47,4.29,1.05,0.65,2.30,0.11,2.69,0.52,826.00,1826.00,336.00,475.00,551.00,1062.00,1272.00,1811.00,,,,,,,,,,,,0,0,0,,1532,16208,528,-127,150,-160
29.573,29.10,2.15,2.89,4.23,1.59,1.96,4.07,-1.12,2.89,0.17,822.00,1798.00,310.00,449.00,570.00,1023.00,1292.00,1814.00,,,,,,,,,,,,0,0,0,,1644,16232,520,-140,118,-165
29.614,29.16,2.17,3.32,3.76,4.57,-0.48,2.61,0.07,1.91,1.08,837.00,1791.00,335.00,426.00,549.00,1050.00,1252.00,1840.00,,,,,,,,,,,,0,0,0,,1544,16324,336,-20,107,-125
29.676,29.21,2.15,2.83,4.16,2.41,0.42,1.73,1.09,2.24,0.23,826.00,1806.00,332.00,453.00,528.00,1058.00,1303.00,1858.00,,,,,,,,,,,,0,0,0,,1556,16192,528,-56,58,-123
29.738,29.26,2.19,3.16,4.03,0.19,2.79,2.92,-0.04,2.39,0.38,827.00,1789.00,304.00,464.00,549.00,1040.00,1289.00,1840.00,,,,,,,,,,,,0,0,0,,1572,16212,412,-119,89,-185
29.798,29.32,2.22,3.16,3.92,4.04,-0.13,2.96,-0.48,2.96,0.27,832.00,1794.00,332.00,431.00,562.00,1051.00,1283.00,1804.00,,,,,,,,,,,,0,0,0,,1444,16036,416,-214,81,-227
29.838,29.37,2.19,3.46,3.82,4.36,-0.95,1.48,0.72,2.69,-0.05,832.00,1778.00,345.00,435.00,541.00,1079.00,1312.00,1839.00,,,,,,,,,,,,0,0,0,,1500,16248,640,-299,49,-169
29.9,29.43,2.19,2.82,4.01,0.75,0.86,2.18,0.18,2.03,0.90,833.00,1814.00,334.00,478.00,550.00,1065.00,1261.00,1840.00,,,,,,,,,,,,0,0,0,,1572,16180,568,-270,115,-118
29.962,29.48,2.24,2.83,4.12,2.10,1.20,3.35,-1.19,3.51,-0.65,828.00,1808.00,320.00,449.00,580.00,1055.00,1335.00,1809.00,,,,,,,,,,,,0,0,0,,1524,16224,620,-210,194,-167
30.022,29.54,2.20,3.41,3.33,4.96,-2.34,1.35,0.06,1.32,0.81,855.00,1805.00,368.00,441.00,562.00,1104.00,1284.00,1897.00,,,,,,,,,,,,1,0,0,,1544,16228,636,-214,147,-101
30.082,29.59,2.16,2.43,4.12,-0.17,1.06,1.42,0.61,2.76,0.30,834.00,1837.00,336.00,493.00,545.00,1085.00,1286.00,1817.00,,,,,,,,,,,,1,0,0,,1540,16188,660,-206,57,-171
30.165,29.65,2.18,2.67,4.13,0.72,2.01,2.45,-0.51,2.61,-0.33,830.00,1819.00,314.00,464.00,568.00,1073.00,1334.00,1859.00,,,,,,,,,,,,1,0,0,,1624,16036,468,-100,143,-104
30.185,29.70,2.15,2.77,3.59,3.77,-0.59,1.73,-0.20,1.45,1.04,853.00,1838.00,342.00,441.00,566.00,1095.00,1265.00,1876.00,,,,,,,,,,,,1,0,0,,1640,16332,468,-203,139,-277
30.226,29.76,2.10,2.66,3.71,2.39,0.04,1.09,1.02,3.22,-0.44,849.00,1840.00,339.00,458.00,536.00,1087.00,1327.00,1820.00,,,,,,,,,,,,1,0,0,,1480,16180,608,-234,106,-202
30.287,29.82,2.14,2.76,3.77,0.72,2.01,2.89,-0.09,1.88,0.62,845.00,1830.00,314.00,464.00,551.00,1043.00,1284.00,1865.00,,,,,,,,,,,,1,0,0,,1452,16164,628,-169,43,-123
30.348,29.87,2.20,2.66,4.24,3.66,-0.01,3.35,-0.78,3.06,0.08,825.00,1814.00,332.00,436.00,567.00,1043.00,1294.00,1806.00,,,,,,,,,,,,1,0,0,,1628,16212,704,-105,210,-166
30.41,29.92,2.19,3.29,3.44,4.40,-1.17,2.05,0.12,2.64,0.01,852.00,1808.00,349.00,437.00,553.00,1072.00,1309.00,1840.00,,,,,,,,,,,,1,0,0,,1652,16188,528,-150,169,-209
30.473,29.98,2.20,2.72,3.93,0.77,0.91,2.34,0.43,2.01,1.12,838.00,1825.00,333.00,477.00,541.00,1051.00,1247.00,1831.00,,,,,,,,,,,,1,0,0,,1544,16220,624,-94,24,-124
30.556,30.03,2.34,2.89,4.08,2.07,1.32,5.06,-1.80,3.84,-0.75,829.00,1806.00,318.00,448.00,581.00,1002.00,1334.00,1790.00,,,,,,,,,,,,1,0,0,,1568,16212,632,-108,89,-191
30.576,30.09,2.32,3.56,3.13,5.19,-1.91,1.95,0.09,1.69,0.89,862.00,1804.00,358.00,432.00,555.00,1077.00,1270.00,1866.00,,,,,,,,,,,,1,0,0,,1460,16132,588,-125,134,-168
30.617,30.14,2.30,2.66,4.02,1.46,0.68,1.79,1.03,3.16,0.21,835.00,1825.00,333.00,467.00,529.00,1057.00,1283.00,1793.00,,,,,,,,,,,,1,0,0,,1500,16124,652,-142,77,-233
30.681,30.20,2.34,2.91,3.94,1.26,2.19,3.13,-0.37,2.74,-0.14,835.00,1811.00,308.00,452.00,557.00,1041.00,1317.00,1840.00,,,,,,,,,,,,1,0,0,,1544,16048,476,-204,95,-187
30.743,30.25,2.34,3.04,3.56,3.90,0.25,2.47,-0.25,1.97,0.97,850.00,1820.00,326.00,429.00,560.00,1065.00,1258.00,1841.00,,,,,,,,,,,,1,0,0,,1560,16064,676,-223,162,-160
30.785,30.31,2.29,2.80,3.69,2.60,-0.20,1.24,1.01,3.02,-0.23,848.00,1831.00,342.00,457.00,535.00,1081.00,1317.00,1824.00,,,,,,,,,,,,1,0,0,,1624,16184,652,-163,177,-144
30.826,30.36,2.30,2.55,3.79,1.24,1.49,2.60,-0.19,1.69,0.79,847.00,1844.00,320.00,461.00,557.00,1058.00,1277.00,1871.00,,,,,,,,,,,,1,0,0,,1532,16216,652,-204,105,-158
30.908,30.42,2.33,2.63,3.44,2.94,0.29,2.76,-1.03,2.93,-0.10,862.00,1856.00,331.00,445.00,581.00,1075.00,1310.00,1824.00,,,,,,,,,,,,1,0,0,,1516,16056,560,-185,77,-166
30.929,30.48,2.25,2.85,3.01,3.77,-1.59,0.79,0.28,1.78,0.12,879.00,1861.00,361.00,453.00,561.00,1122.00,1322.00,1898.00,,,,,,,,,,,,1,0,0,,1448,15988,720,-174,105,-117
30.989,30.53,2.21,2.16,3.13,-0.30,1.11,1.50,0.21,1.66,0.82,884.00,1906.00,336.00,495.00,556.00,1093.00,1275.00,1871.00,,,,,,,,,,,,1,0,0,,1648,16344,608,-234,176,-264
31.05,30.58,2.29,2.53,3.26,1.07,1.66,3.71,-1.69,3.31,-0.84,872.00,1872.00,318.00,462.00,592.00,1054.00,1354.00,1833.00,,,,,,,,,,,,1,0,0,,1476,16112,608,-286,116,-228
31.112,30.64,2.26,3.15,2.62,5.11,-1.88,1.83,-0.03,1.37,0.98,893.00,1859.00,358.00,433.00,560.00,1086.00,1271.00,1885.00,,,,,,,,,,,,1,0,0,,1540,16136,904,-285,59,-136
31.153,30.69,2.23,2.50,3.17,2.00,0.44,1.51,1.12,3.16,0.02,877.00,1879.00,334.00,460.00,529.00,1066.00,1296.00,1802.00,,,,,,,,,,,,1,0,0,,1580,16060,816,-70,232,-196
31.215,30.75,2.25,2.72,2.97,0.96,2.47,2.71,-0.33,2.60,0.21,883.00,1873.00,305.00,454.00,560.00,1057.00,1296.00,1833.00,,,,,,,,,,,,1,0,0,,1688,16220,716,-298,103,-262
31.276,30.80,2.28,2.87,2.71,5.49,-1.49,2.90,-0.39,2.49,0.84,893.00,1875.00,348.00,422.00,560.00,1051.00,1255.00,1810.00,,,,,,,,,,,,1,0,0,,1460,16232,684,-229,84,-83
31.317,30.86,2.25,2.61,2.72,3.42,-0.58,1.70,0.82,3.14,-0.02,897.00,1894.00,344.00,447.00,536.00,1067.00,1299.00,1805.00,,,,,,,,,,,,1,0,0,,1508,16104,792,-461,127,-161
31.399,30.91,2.27,2.60,2.60,0.49,1.80,2.61,0.17,1.73,0.95,903.00,1901.00,319.00,471.00,546.00,1047.00,1265.00,1860.00,,,,,,,,,,,,1,0,0,,1504,15884,456,-1647,542,-39
31.46,30.97,2.33,2.27,2.60,2.75,0.41,3.38,-1.17,3.41,-0.52,908.00,1925.00,330.00,447.00,579.00,1053.00,1328.00,1810.00,,,,,,,,,,,,1,0,0,,1580,16256,636,-3546,428,-398
31.502,31.02,2.29,2.44,1.52,5.11,-2.39,1.53,0.23,1.51,0.42,960.00,1969.00,368.00,439.00,555.00,1091.00,1307.00,1903.00,,,,,,,,,,,,1,0,0,,1436,16176,2056,-690,36,-230
31.542,31.08,2.26,1.36,1.46,1.53,0.66,1.78,0.62,1.66,0.75,982.00,2058.00,333.00,466.00,541.00,1069.00,1280.00,1875.00,,,,,,,,,,,,1,0,0,,1520,16292,1820,561,-284,-194
31.644,31.14,2.32,1.01,0.63,1.74,1.32,3.35,-1.16,2.28,-0.44,1034.00,2134.00,320.00,454.00,579.00,1054.00,1350.00,1889.00,,,,,,,,,,,,1,0,0,,1532,15948,1252,96,-235,-354
31.664,31.19,2.30,1.50,-0.42,5.40,-1.62,2.01,-0.16,1.45,1.06,1085.00,2153.00,351.00,425.00,562.00,1082.00,1264.00,1875.00,,,,,,,,,,,,1,0,0,,1388,15904,1412,-444,128,-306
31.705,31.25,2.25,1.44,0.10,2.39,0.37,1.21,0.98,2.95,0.30,1056.00,2128.00,333.00,454.00,536.00,1083.00,1281.00,1803.00,,,,,,,,,,,,1,0,0,,1412,15848,1028,-614,184,-305
31.766,31.30,2.28,1.64,0.36,0.94,2.42,2.90,-0.79,2.06,0.57,1037.00,2096.00,306.00,455.00,572.00,1062.00,1283.00,1854.00,,,,,,,,,,,,1,0,0,,1456,16368,1560,-689,87,-236
31.806,31.35,2.29,1.64,0.76,4.01,-0.18,2.50,-0.72,2.50,0.86,1015.00,2074.00,333.00,432.00,574.00,1077.00,1253.00,1808.00,,,,,,,,,,,,1,0,0,,1472,15892,1792,-562,74,-336
31.867,31.41,2.26,2.36,1.03,3.70,-0.56,1.69,0.45,2.93,0.45,987.00,2001.00,342.00,442.00,547.00,1078.00,1271.00,1797.00,,,,,,,,,,,,1,0,0,,1396,15932,1516,-50,50,-266
31.929,31.46,2.27,2.32,1.44,1.17,1.51,2.48,0.08,2.05,1.46,966.00,1982.00,320.00,462.00,550.00,1055.00,1223.00,1811.00,,,,,,,,,,,,1,0,0,,1352,16004,1524,-16,-114,-225
32.012,31.52,2.35,2.65,1.62,3.32,0.68,3.81,-1.41,3.95,-0.16,951.00,1947.00,322.00,434.00,582.00,1042.00,1290.00,1755.00,,,,,,,,,,,,1,0,0,,1368,16016,1696,-137,-169,-287
32.033,31.57,2.32,3.08,1.31,6.00,-2.23,1.86,0.05,2.35,1.09,960.00,1931.00,359.00,422.00,557.00,1082.00,1241.00,1808.00,,,,,,,,,,,,1,0,0,,1408,16072,1412,-89,-118,-425
32.095,31.63,2.32,2.50,1.89,1.62,0.68,2.15,0.49,3.09,1.04,940.00,1945.00,332.00,464.00,541.00,1057.00,1228.00,1758.00,,,,,,,,,,,,1,0,0,,1136,16036,1560,-76,57,-313
32.157,31.68,2.39,2.70,2.08,1.89,2.10,3.80,-1.15,3.64,0.14,927.00,1920.00,306.00,442.00,574.00,1035.00,1276.00,1762.00,,,,,,,,,,,,1,0,0,,1076,15988,1432,43,62,-296
32.198,31.74,2.40,2.75,1.69,5.55,-0.86,2.68,-0.32,2.39,1.70,946.00,1936.00,336.00,414.00,560.00,1058.00,1200.00,1776.00,,,,,,,,,,,,1,0,0,,1404,15996,1264,466,-98,-129
32.26,31.80,2.36,2.53,1.84,3.76,0.02,1.48,0.96,3.98,0.35,942.00,1945.00,331.00,434.00,534.00,1072.00,1254.00,1729.00,,,,,,,,,,,,1,0,0,,1216,15972,1460,296,-2,-135
32.321,31.85,2.40,2.36,1.85,1.48,2.11,3.12,-0.44,2.88,0.97,944.00,1957.00,308.00,449.00,559.00,1043.00,1237.00,1776.00,,,,,,,,,,,,1,0,0,,1384,15860,1360,-103,245,-50
32.383,31.91,2.42,2.52,1.49,4.36,0.27,2.80,-0.88,3.41,0.87,960.00,1964.00,323.00,421.00,576.00,1069.00,1232.00,1744.00,,,,,,,,,,,,1,0,0,,1336,16084,992,-19,-67,-76
32.445,31.96,2.38,2.57,1.36,4.69,-2.20,1.62,0.04,3.10,0.55,966.00,1967.00,367.00,444.00,560.00,1093.00,1261.00,1781.00,,,,,,,,,,,,1,0,0,,1276,16080,1468,35,-16,-231
32.484,32.02,2.36,2.24,1.51,2.60,0.30,2.04,-0.04,2.35,1.54,964.00,1985.00,333.00,451.00,558.00,1077.00,1211.00,1786.00,,,,,,,,,,,,1,0,0,,1212,16000,1304,-118,186,-192
32.525,32.07,2.40,2.16,1.61,2.24,0.75,3.09,-1.49,4.07,-0.04,960.00,1986.00,327.00,452.00,592.00,1074.00,1279.00,1741.00,,,,,,,,,,,,1,0,0,,1220,16380,1304,50,104,-316
32.589,32.13,2.36,2.85,0.96,5.63,-2.57,1.73,-0.33,2.26,1.41,982.00,1966.00,368.00,432.00,570.00,1099.00,1222.00,1799.00,,,,,,,,,,,,1,0,1,,1256,16084,1220,-92,-45,-187
32.671,32.18,2.33,2.20,1.89,1.96,0.35,1.66,0.73,3.69,1.02,945.00,1968.00,336.00,462.00,539.00,1071.00,1216.00,1718.00,,,,,,,,,,,,1,0,1,,1228,16148,1632,63,76,-56
32.754,32.24,2.38,2.73,1.85,3.65,-1.08,3.31,-0.53,3.79,0.52,938.00,1929.00,352.00,449.00,560.00,1038.00,1247.00,1734.00,,,,,,,,,,,,1,0,1,,1312,16172,1264,-28,341,-125
32.774,32.29,2.40,2.87,1.68,5.64,-0.73,2.77,-0.42,3.04,1.56,944.00,1927.00,333.00,411.00,562.00,1057.00,1195.00,1737.00,,,,,,,,,,,,1,0,1,,1172,16124,1104,-104,278,-152
32.815,32.35,2.36,2.56,2.00,3.93,-0.32,1.63,0.77,4.48,0.43,933.00,1934.00,336.00,435.00,538.00,1071.00,1237.00,1691.00,,,,,,,,,,,,1,0,1,,1260,16116,1212,-179,92,-103
32.856,32.40,2.40,2.71,1.93,1.51,1.98,3.27,-0.55,3.21,1.39,934.00,1926.00,310.00,450.00,561.00,1040.00,1202.00,1733.00,,,,,,,,,,,,1,0,1,,1240,16160,1436,81,64,-141
32.918,32.46,2.44,2.73,1.91,4.51,-0.12,3.09,-0.82,4.04,1.33,935.00,1926.00,329.00,423.00,571.00,1055.00,1188.00,1680.00,,,,,,,,,,,,1,0,1,,1172,16028,1200,-46,149,-171
32.979,32.51,2.41,2.72,1.83,5.32,-1.59,1.77,0.08,3.35,0.89,939.00,1931.00,351.00,426.00,557.00,1085.00,1232.00,1747.00,,,,,,,,,,,,1,0,1,,1244,15960,1064,-183,226,-215
33.04,32.57,2.39,2.50,1.81,1.75,0.42,2.03,0.40,3.11,1.56,944.00,1949.00,336.00,465.00,545.00,1065.00,1193.00,1732.00,,,,,,,,,,,,1,0,1,,1252,16248,1412,-152,-92,-108
33.165,32.62,2.47,2.67,1.79,2.24,1.50,4.00,-1.70,4.39,-0.03,942.00,1937.00,314.00,443.00,589.00,1042.00,1271.00,1719.00,,,,,,,,,,,,1,0,1,,1180,16016,1396,25,75,-156
33.186,32.67,2.43,3.02,1.30,5.67,-2.28,1.77,-0.01,2.60,1.38,961.00,1935.00,362.00,428.00,560.00,1088.00,1216.00,1776.00,,,,,,,,,,,,1,0,1,,1312,16136,1284,-156,80,-188
33.207,32.73,2.38,2.38,1.83,2.03,0.16,1.30,1.16,3.96,0.85,945.00,1957.00,339.00,463.00,530.00,1074.00,1221.00,1707.00,,,,,,,,,,,,1,0,1,,1076,16224,1172,-151,189,-217
33.248,32.78,2.40,2.57,1.79,1.70,1.62,2.87,-0.38,3.35,0.65,944.00,1945.00,315.00,451.00,560.00,1052.00,1248.00,1758.00,,,,,,,,,,,,1,0,1,,1396,16224,1128,-134,136,-39
33.309,32.84,2.41,2.74,1.52,5.43,-1.04,2.68,-0.78,3.21,1.39,955.00,1946.00,340.00,418.00,574.00,1071.00,1202.00,1733.00,,,,,,,,,,,,1,0,1,,1232,16040,1240,-115,175,-214
33.35,32.90,2.37,2.77,1.76,4.42,-0.86,1.60,0.78,4.11,0.53,942.00,1931.00,343.00,433.00,538.00,1072.00,1239.00,1712.00,,,,,,,,,,,,1,0,1,,1096,15996,1280,-30,133,-153
33.411,32.95,2.40,2.63,2.08,1.69,1.40,2.80,0.07,3.30,1.38,928.00,1925.00,319.00,454.00,547.00,1042.00,1201.00,1728.00,,,,,,,,,,,,1,0,1,,1272,16040,1196,29,166,-70
33.473,33.01,2.46,2.43,2.11,6.24,-0.87,3.64,-1.16,4.82,0.43,930.00,1939.00,332.00,403.00,576.00,1042.00,1230.00,1669.00,,,,,,,,,,,,1,0,1,,1188,16076,1300,-122,112,-99
33.534,33.06,2.48,3.14,1.46,6.50,-2.71,2.97,-1.44,3.50,1.08,951.00,1918.00,365.00,419.00,592.00,1078.00,1216.00,1728.00,,,,,,,,,,,,1,0,1,,1344,15944,1124,95,163,-30
33.597,33.12,2.55,2.32,2.20,1.89,0.37,3.79,-1.78,3.92,1.51,927.00,1942.00,336.00,463.00,594.00,1053.00,1179.00,1680.00,,,,,,,,,,,,1,0,1,,1352,16096,1316,79,134,-117
33.638,33.17,2.57,2.73,2.03,3.21,0.82,3.06,-1.16,5.19,-0.07,929.00,1920.00,320.00,434.00,582.00,1066.00,1255.00,1667.00,,,,,,,,,,,,1,0,1,,1292,16104,1160,81,116,-104
33.721,33.23,2.55,3.20,1.56,7.05,-2.43,2.11,0.10,3.23,1.71,945.00,1909.00,356.00,407.00,553.00,1070.00,1181.00,1717.00,,,,,,,,,,,,1,0,1,,1296,16080,1120,77,49,-133
33.741,33.28,2.51,2.64,2.10,3.91,-0.20,1.79,0.86,4.86,0.73,927.00,1923.00,334.00,434.00,534.00,1062.00,1209.00,1653.00,,,,,,,,,,,,1,0,1,,1308,16092,888,-142,146,-178
33.843,33.34,2.55,2.75,1.96,2.27,1.79,3.28,-0.52,3.92,0.89,932.00,1922.00,309.00,439.00,560.00,1039.00,1219.00,1708.00,,,,,,,,,,,,1,0,1,,1080,16204,1068,-14,160,-133
33.863,33.39,2.55,2.92,1.67,5.55,-0.86,2.51,-0.56,3.55,1.37,944.00,1924.00,336.00,414.00,569.00,1072.00,1196.00,1711.00,,,,,,,,,,,,1,0,1,,1268,16012,1304,-174,150,-145
33.904,33.45,2.49,2.74,1.69,4.67,-1.32,1.45,0.66,4.30,0.57,946.00,1937.00,350.00,434.00,543.00,1082.00,1232.00,1697.00,,,,,,,,,,,,1,0,2,,1312,16116,1080,-40,75,-62
33.986,33.50,2.47,2.42,1.82,1.51,1.17,1.96,0.25,3.16,1.64,945.00,1955.00,324.00,460.00,550.00,1072.00,1187.00,1725.00,,,,,,,,,,,,1,0,2,,1336,16116,1288,62,36,63
34.048,33.56,2.50,2.40,1.65,3.93,-0.32,3.09,-1.20,4.92,0.17,954.00,1965.00,336.00,435.00,583.00,1066.00,1245.00,1674.00,,,,,,,,,,,,1,0,2,,1404,16124,1024,56,123,-207
34.089,33.61,2.45,3.29,0.98,5.94,-2.67,1.62,0.10,3.29,1.17,973.00,1931.00,368.00,428.00,558.00,1091.00,1215.00,1738.00,,,,,,,,,,,,1,0,2,,1392,15924,1028,-301,134,-266
34.149,33.67,2.43,2.60,1.89,3.50,-0.28,1.91,0.68,4.21,1.20,938.00,1937.00,338.00,442.00,538.00,1062.00,1193.00,1675.00,,,,,,,,,,,,1,0,2,,1184,16004,1132,-174,236,-96
34.211,33.72,2.51,2.92,2.06,4.13,-0.44,4.13,-1.17,5.02,0.14,924.00,1904.00,337.00,433.00,571.00,1022.00,1245.00,1669.00,,,,,,,,,,,,1,0,2,,1360,16160,1180,-396,150,-106
34.231,33.78,2.54,3.32,1.61,6.62,-1.44,3.00,-0.39,3.67,1.77,940.00,1897.00,340.00,403.00,559.00,1047.00,1168.00,1685.00,,,,,,,,,,,,1,0,2,,1412,15976,1044,-304,21,-194
34.292,33.83,2.49,2.90,2.09,4.42,-0.70,1.67,1.11,5.27,0.62,923.00,1904.00,340.00,431.00,528.00,1060.00,1207.00,1631.00,,,,,,,,,,,,1,0,2,,1296,16348,1104,-273,122,-136
34.395,33.89,2.56,2.95,2.07,3.11,1.15,3.83,-0.61,4.20,1.09,923.00,1901.00,315.00,432.00,557.00,1019.00,1200.00,1680.00,,,,,,,,,,,,1,0,2,,1376,16392,1412,-389,140,-88
34.416,33.94,2.60,3.13,1.82,6.84,-1.30,3.39,-0.75,5.01,0.90,933.00,1901.00,336.00,398.00,566.00,1041.00,1195.00,1636.00,,,,,,,,,,,,1,0,2,,1232,16152,1500,15,112,-105
34.457,34.00,2.56,3.14,1.73,6.34,-2.30,1.87,0.45,4.45,0.79,937.00,1904.00,358.00,417.00,545.00,1070.00,1214.00,1677.00,,,,,,,,,,,,1,0,2,,1408,16108,992,9,-23,-196
34.518,34.05,2.55,2.85,1.79,2.65,0.06,2.31,0.34,3.75,1.74,939.00,1923.00,337.00,453.00,544.00,1055.00,1168.00,1681.00,,,,,,,,,,,,1,0,2,,1220,16164,1148,-85,50,-220
34.578,34.10,2.60,2.75,2.04,3.95,0.18,3.50,-1.24,6.03,-0.25,928.00,1918.00,327.00,429.00,580.00,1050.00,1248.00,1620.00,,,,,,,,,,,,1,0,2,,1320,16160,1352,-288,141,-323
34.641,34.16,2.56,3.45,1.26,6.62,-2.45,1.74,-0.00,3.58,1.28,956.00,1905.00,359.00,414.00,560.00,1089.00,1201.00,1713.00,,,,,,,,,,,,1,0,3,,1352,16036,1088,-180,82,-281
34.7,34.22,2.51,2.42,2.23,2.69,-0.50,1.69,0.65,4.73,0.99,924.00,1933.00,347.00,459.00,541.00,1072.00,1195.00,1650.00,,,,,,,,,,,,1,0,3,,1396,16052,1004,-107,-232,-329
34.742,34.27,2.54,2.94,1.84,2.59,0.98,3.05,-0.58,4.79,0.45,935.00,1914.00,321.00,443.00,564.00,1050.00,1229.00,1670.00,,,,,,,,,,,,1,0,3,,1540,16356,840,-330,-938,-754
34.803,34.33,2.54,3.16,1.69,5.94,-1.80,2.61,-0.53,3.82,1.64,939.00,1905.00,351.00,418.00,567.00,1067.00,1173.00,1681.00,,,,,,,,,,,,1,0,3,,1376,16128,1156,-462,-1321,-1035
34.864,34.38,2.51,3.03,2.17,4.99,-1.53,1.79,0.82,5.40,0.46,917.00,1890.00,352.00,431.00,535.00,1063.00,1215.00,1630.00,,,,,,,,,,,,1,0,3,,1136,16132,1060,-614,-1727,-1163
34.945,34.44,2.55,3.10,2.28,2.24,1.50,3.32,-0.37,4.52,1.28,910.00,1879.00,314.00,443.00,555.00,1033.00,1181.00,1651.00,,,,,,,,,,,,1,0,3,,1288,16316,1052,-629,-2299,-1386
34.965,34.49,2.58,3.24,2.24,6.06,-0.98,3.23,-0.70,5.42,0.74,910.00,1871.00,335.00,407.00,566.00,1046.00,1196.00,1616.00,,,,,,,,,,,,1,0,3,,1076,16288,1388,-716,-2889,-2271
35.006,34.55,2.56,3.79,1.99,6.70,-2.11,2.14,0.19,4.53,0.87,913.00,1843.00,352.00,409.00,550.00,1066.00,1207.00,1668.00,,,,,,,,,,,,1,0,3,,588,15704,1904,-682,-2482,-1743
35.068,34.60,2.56,3.18,2.48,2.63,0.01,2.63,0.40,4.07,1.65,899.00,1863.00,338.00,454.00,539.00,1040.00,1167.00,1664.00,,,,,,,,,,,,1,0,3,,208,15976,2176,-451,-1188,-1279
35.109,34.66,2.65,3.28,2.80,4.04,0.03,4.31,-1.39,5.66,-0.11,882.00,1840.00,329.00,429.00,576.00,1021.00,1247.00,1638.00,,,,,,,,,,,,1,0,3,,44,15968,1860,-152,217,-610
35.169,34.71,2.62,4.04,1.91,7.91,-3.33,2.14,0.13,3.57,1.57,913.00,1829.00,368.00,403.00,552.00,1068.00,1183.00,1701.00,,,,,,,,,,,,1,0,3,,84,15980,1628,-52,842,-32
35.252,34.77,2.60,3.10,2.57,4.06,-0.85,2.20,0.93,5.33,0.71,896.00,1865.00,345.00,439.00,528.00,1043.00,1200.00,1623.00,,,,,,,,,,,,1,0,3,,464,15928,1348,115,783,151
35.314,34.82,2.66,3.25,2.54,1.66,1.52,3.85,-0.71,4.76,0.67,895.00,1855.00,317.00,453.00,560.00,1021.00,1215.00,1662.00,,,,,,,,,,,,1,0,3,,572,16072,1240,-34,704,77
35.357,34.88,2.67,3.73,1.40,6.56,-1.53,2.84,-0.41,4.00,1.48,944.00,1877.00,342.00,405.00,561.00,1054.00,1179.00,1676.00,,,,,,,,,,,,1,0,3,,440,16232,1188,-693,336,-331
35.418,34.93,2.63,3.21,1.95,4.60,-1.14,1.79,0.75,4.92,0.45,925.00,1888.00,347.00,433.00,537.00,1065.00,1226.00,1661.00,,,,,,,,,,,,1,0,3,,492,16244,1400,-447,28,-205
35.439,34.99,2.63,2.93,2.40,2.16,0.78,2.67,-0.02,3.48,1.47,907.00,1886.00,327.00,453.00,551.00,1050.00,1191.00,1711.00,,,,,,,,,,,,1,0,3,,520,16172,1568,-28,-191,-189
35.501,35.04,2.68,3.02,2.27,4.11,-0.32,3.64,-1.16,5.82,0.14,912.00,1886.00,335.00,432.00,576.00,1042.00,1227.00,1617.00,,,,,,,,,,,,1,0,3,,284,16076,1796,-164,49,-78
35.563,35.10,2.65,3.70,1.80,6.90,-2.95,2.02,0.07,4.00,0.97,924.00,1859.00,367.00,415.00,555.00,1075.00,1212.00,1699.00,,,,,,,,,,,,1,0,3,,536,15948,1608,-37,188,14
35.626,35.15,2.65,3.06,2.48,3.45,-0.54,2.75,0.43,4.47,1.42,901.00,1872.00,343.00,446.00,537.00,1034.00,1173.00,1648.00,,,,,,,,,,,,1,0,3,,216,16096,1612,-67,558,192
35.708,35.21,2.75,3.39,2.56,4.21,0.32,4.63,-1.50,5.89,-0.11,892.00,1844.00,323.00,423.00,576.00,1011.00,1242.00,1623.00,,,,,,,,,,,,1,0,3,,556,16016,1588,-86,435,125
35.728,35.26,2.76,3.79,1.91,8.02,-3.22,2.94,-0.21,3.83,1.67,917.00,1847.00,365.00,400.00,554.00,1044.00,1171.00,1679.00,,,,,,,,,,,,1,0,3,,660,16280,1544,-142,347,83
35.77,35.32,2.71,3.06,2.58,5.28,-1.26,1.70,1.88,5.59,0.61,896.00,1867.00,345.00,423.00,506.00,1037.00,1201.00,1611.00,,,,,,,,,,,,1,0,3,,816,16048,1328,-14,164,-109
35.831,35.37,2.77,3.38,2.52,3.49,1.02,3.93,-0.24,4.63,0.84,894.00,1847.00,315.00,427.00,545.00,1005.00,1207.00,1663.00,,,,,,,,,,,,1,0,3,,476,16144,1768,97,121,-182
35.892,35.42,2.82,3.61,2.17,6.96,-1.66,3.78,-0.69,4.38,1.28,907.00,1847.00,342.00,400.00,560.00,1023.00,1184.00,1660.00,,,,,,,,,,,,1,0,3,,724,15964,1328,117,92,-126
35.953,35.48,2.78,3.33,2.31,6.39,-2.37,2.10,0.72,4.92,0.59,905.00,1861.00,359.00,417.00,535.00,1053.00,1217.00,1655.00,,,,,,,,,,,,1,0,3,,656,15964,1340,-5,203,-169
36.054,35.53,2.78,3.10,2.45,2.77,0.29,2.62,0.30,3.88,1.63,902.00,1871.00,332.00,448.00,542.00,1043.00,1172.00,1677.00,,,,,,,,,,,,1,0,3,,536,16072,1364,-239,114,-179
36.075,35.59,2.84,3.11,2.50,4.69,-0.57,4.01,-1.61,5.86,0.00,899.00,1867.00,336.00,425.00,586.00,1039.00,1235.00,1620.00,,,,,,,,,,,,1,0,3,,520,16080,1476,-137,81,-18
36.115,35.65,2.73,3.56,1.95,7.17,-3.97,0.70,0.58,3.18,1.85,919.00,1862.00,386.00,422.00,553.00,1117.00,1173.00,1714.00,,,,,,,,,,,,1,0,3,,620,15980,1684,-136,244,-96
36.178,35.70,2.73,2.62,2.47,2.53,-0.17,2.68,-0.32,4.49,1.07,909.00,1906.00,342.00,458.00,560.00,1058.00,1195.00,1662.00,,,,,,,,,,,,1,0,3,,684,16316,1524,92,177,-276
36.219,35.76,2.81,3.08,2.43,3.67,0.33,4.36,-1.18,5.24,0.03,903.00,1873.00,326.00,432.00,569.00,1013.00,1247.00,1659.00,,,,,,,,,,,,1,0,3,,508,16164,1412,-112,96,-212
36.28,35.81,2.83,3.51,1.89,7.20,-2.01,3.23,-0.34,3.89,1.61,923.00,1869.00,347.00,400.00,555.00,1036.00,1173.00,1677.00,,,,,,,,,,,,1,0,2,,540,16052,1336,111,46,-20
36.341,35.87,2.83,3.20,2.54,5.57,-1.25,2.83,0.72,5.66,0.42,896.00,1859.00,343.00,418.00,528.00,1023.00,1212.00,1615.00,,,,,,,,,,,,1,0,2,,624,16088,1396,-205,94,-121
36.421,35.92,2.90,3.22,2.51,3.06,1.23,4.19,-0.26,4.79,0.89,897.00,1859.00,314.00,432.00,543.00,995.00,1200.00,1650.00,,,,,,,,,,,,1,0,2,,528,16040,1492,-162,223,-238
36.442,35.98,2.96,3.34,2.49,7.25,-1.70,4.15,-0.72,5.17,0.90,896.00,1851.00,341.00,396.00,557.00,1009.00,1191.00,1625.00,,,,,,,,,,,,1,0,2,,428,16136,1384,118,130,-152
36.502,36.03,2.94,3.45,2.41,6.17,-2.14,2.62,0.37,5.18,0.36,898.00,1847.00,356.00,418.00,540.00,1041.00,1226.00,1648.00,,,,,,,,,,,,1,0,2,,768,16188,1468,147,193,-84
36.564,36.09,2.97,3.24,2.48,3.28,-0.21,3.37,0.36,4.32,1.55,898.00,1859.00,338.00,445.00,533.00,1011.00,1168.00,1652.00,,,,,,,,,,,,1,0,2,,548,16208,1340,128,137,-71
36.626,36.14,2.98,3.27,2.70,4.72,0.09,3.31,0.55,6.05,-0.18,887.00,1846.00,324.00,417.00,528.00,1008.00,1243.00,1616.00,,,,,,,,,,,,1,0,2,,528,16164,1380,108,164,-185
36.646,36.20,2.98,3.65,1.92,8.20,-3.48,2.88,-0.16,4.06,1.17,919.00,1857.00,369.00,400.00,553.00,1045.00,1198.00,1686.00,,,,,,,,,,,,1,0,2,,588,16136,1288,-157,62,-165
36.728,36.25,2.98,2.96,2.43,2.94,0.13,2.95,0.53,5.19,0.76,905.00,1882.00,334.00,447.00,532.00,1023.00,1200.00,1630.00,,,,,,,,,,,,1,0,2,,564,16136,1332,-175,29,-161
36.79,36.31,3.04,3.03,2.39,3.37,0.77,4.20,-0.53,4.92,0.35,906.00,1879.00,320.00,432.00,551.00,1002.00,1233.00,1666.00,,,,,,,,,,,,1,0,2,,548,16012,1276,-130,192,-139
36.852,36.36,3.05,3.29,2.18,6.85,-1.68,3.28,-0.52,3.98,1.44,912.00,1870.00,343.00,402.00,560.00,1039.00,1182.00,1679.00,,,,,,,,,,,,1,0,2,,568,16016,1496,-28,122,-154
36.873,36.42,3.00,2.83,2.23,4.85,-1.33,2.04,0.88,5.27,0.23,917.00,1902.00,349.00,431.00,531.00,1051.00,1233.00,1648.00,,,,,,,,,,,,1,0,2,,628,16336,1192,-221,150,-197
36.934,36.47,3.04,2.71,2.36,3.14,0.85,3.89,-0.26,4.19,1.25,913.00,1905.00,320.00,435.00,546.00,1007.00,1190.00,1674.00,,,,,,,,,,,,1,0,2,,508,15900,1252,-200,51,-152
36.995,36.53,3.10,2.91,2.37,5.80,-0.78,4.15,-0.68,5.55,0.62,909.00,1889.00,333.00,409.00,556.00,1008.00,1201.00,1613.00,,,,,,,,,,,,1,0,2,,696,16056,1380,-214,119,-148
37.036,36.58,3.08,3.38,1.95,7.34,-3.04,2.81,0.21,4.71,0.75,922.00,1875.00,366.00,409.00,543.00,1038.00,1211.00,1662.00,,,,,,,,,,,,1,0,2,,532,16052,1392,-226,206,-158
37.098,36.64,3.11,2.86,2.45,3.33,-0.12,3.67,0.36,4.84,1.44,906.00,1889.00,336.00,443.00,530.00,999.00,1164.00,1623.00,,,,,,,,,,,,1,0,3,,500,16152,1492,-147,142,-162
37.159,36.69,3.23,3.17,2.51,5.13,0.12,5.38,-1.55,6.50,-0.24,898.00,1863.00,321.00,410.00,570.00,983.00,1237.00,1590.00,,,,,,,,,,,,1,0,3,,628,16164,1244,74,92,-66
37.222,36.75,3.25,3.65,1.94,8.39,-3.40,3.67,-0.12,4.41,1.44,918.00,1856.00,366.00,396.00,544.00,1012.00,1173.00,1651.00,,,,,,,,,,,,1,0,3,,552,16256,1512,-20,160,-127
37.264,36.80,3.23,2.94,2.54,4.96,-0.88,2.78,1.34,5.86,0.61,900.00,1878.00,340.00,424.00,511.00,1008.00,1195.00,1594.00,,,,,,,,,,,,1,0,3,,536,16044,1256,-52,213,-206
37.326,36.85,3.31,3.17,2.32,4.68,0.33,5.00,-0.46,5.24,0.57,907.00,1872.00,320.00,415.00,541.00,969.00,1211.00,1635.00,,,,,,,,,,,,1,0,3,,608,15980,1164,-143,44,-146
37.388,36.91,3.35,3.21,2.21,7.59,-1.55,4.05,-0.65,5.00,1.13,912.00,1875.00,336.00,389.00,556.00,1011.00,1180.00,1626.00,,,,,,,,,,,,1,0,3,,576,16164,1196,-248,-94,-4
37.428,36.97,3.33,3.14,2.15,6.40,-1.85,2.89,0.69,5.47,0.25,916.00,1883.00,349.00,411.00,528.00,1021.00,1227.00,1634.00,,,,,,,,,,,,1,0,3,,652,15876,1684,-71,274,-82
37.531,37.02,3.36,2.94,2.48,3.62,0.40,3.89,0.12,4.13,1.32,903.00,1881.00,325.00,432.00,535.00,997.00,1187.00,1675.00,,,,,,,,,,,,1,0,3,,496,16188,1460,-108,254,-135
37.552,37.08,3.42,3.04,2.55,4.77,-0.60,4.68,-1.35,5.89,0.01,898.00,1870.00,336.00,424.00,571.00,1005.00,1234.00,1618.00,,,,,,,,,,,,1,0,3,,656,16072,1428,113,92,-44
37.593,37.13,3.37,3.43,2.13,7.02,-3.38,2.31,0.37,4.12,0.90,912.00,1862.00,375.00,418.00,543.00,1054.00,1214.00,1694.00,,,,,,,,,,,,1,0,3,,684,16276,1056,44,103,-199
37.656,37.19,3.37,2.75,2.69,2.85,0.10,3.35,0.54,5.00,1.02,896.00,1885.00,335.00,449.00,528.00,1007.00,1187.00,1631.00,,,,,,,,,,,,1,0,3,,620,16192,1232,63,206,-103
37.697,37.24,3.47,3.23,2.88,4.44,0.41,5.51,-1.37,6.06,-0.20,879.00,1840.00,320.00,418.00,563.00,973.00,1244.00,1616.00,,,,,,,,,,,,1,0,3,,544,15984,1096,-151,225,-42
37.759,37.30,3.51,3.84,2.45,7.68,-2.44,4.16,-0.28,4.50,1.49,890.00,1817.00,352.00,397.00,544.00,997.00,1168.00,1643.00,,,,,,,,,,,,1,0,3,,676,16144,1168,88,156,-32
37.822,37.35,3.50,3.32,3.19,5.88,-1.08,3.27,1.17,6.09,0.36,863.00,1818.00,338.00,411.00,511.00,993.00,1206.00,1590.00,,,,,,,,,,,,1,0,3,,680,16028,1312,-33,293,-238
37.903,37.41,3.57,3.34,3.16,3.64,1.33,4.98,-0.35,5.71,-0.05,864.00,1818.00,309.00,421.00,538.00,967.00,1242.00,1632.00,,,,,,,,,,,,1,0,3,,548,16168,1276,-69,159,-202
37.924,37.46,3.64,3.69,2.81,7.64,-1.23,5.04,-1.01,5.48,0.80,875.00,1810.00,330.00,385.00,557.00,982.00,1191.00,1610.00,,,,,,,,,,,,1,0,3,,624,16100,1048,-246,46,-156
38.007,37.52,3.63,3.32,3.12,7.01,-1.73,3.31,0.55,5.48,0.49,866.00,1821.00,343.00,400.00,528.00,1008.00,1211.00,1623.00,,,,,,,,,,,,1,0,3,,652,16076,972,55,18,-100
38.047,37.57,3.65,3.26,2.91,3.64,0.11,4.04,0.31,4.66,1.44,877.00,1836.00,330.00,435.00,528.00,986.00,1168.00,1635.00,,,,,,,,,,,,1,0,3,,624,16124,1220,-34,75,-56
38.09,37.63,3.72,3.25,3.32,5.16,0.17,5.20,-1.36,6.36,-0.35,858.00,1817.00,320.00,409.00,566.00,985.00,1247.00,1603.00,,,,,,,,,,,,1,0,3,,676,16232,1352,-279,309,-149
38.15,37.68,3.68,3.64,2.68,7.89,-3.13,2.81,0.24,4.33,0.97,882.00,1820.00,364.00,401.00,542.00,1037.00,1205.00,1677.00,,,,,,,,,,,,1,0,3,,768,16056,1432,-308,271,-156
38.211,37.74,3.66,2.85,3.22,3.82,-0.66,3.31,0.55,5.15,0.94,869.00,1851.00,343.00,441.00,528.00,1008.00,1189.00,1625.00,,,,,,,,,,,,1,0,3,,452,16036,1224,-68,14,-106
38.292,37.79,3.71,3.13,3.10,4.06,0.54,4.64,-0.85,5.36,-0.01,870.00,1836.00,320.00,423.00,556.00,993.00,1247.00,1653.00,,,,,,,,,,,,1,0,3,,556,16108,1544,-175,66,-34
38.312,37.85,3.71,3.22,2.92,7.00,-1.62,3.73,-0.61,4.07,1.35,877.00,1838.00,341.00,399.00,558.00,1023.00,1186.00,1677.00,,,,,,,,,,,,1,0,3,,424,16232,1480,-167,346,-309
38.354,37.90,3.65,3.00,3.21,5.92,-1.31,2.59,1.40,5.75,0.10,867.00,1840.00,342.00,413.00,511.00,1014.00,1231.00,1623.00,,,,,,,,,,,,1,0,3,,520,16060,1244,-306,138,-92
38.416,37.96,3.71,3.14,3.38,3.32,0.85,4.67,-0.28,4.76,0.87,857.00,1822.00,319.00,432.00,539.00,977.00,1202.00,1653.00,,,,,,,,,,,,1,0,3,,660,16124,1476,-106,88,-81
38.477,38.01,3.78,3.31,3.13,6.63,-0.89,5.10,-1.07,5.90,0.41,866.00,1822.00,330.00,397.00,558.00,981.00,1207.00,1600.00,,,,,,,,,,,,1,0,3,,676,16268,1252,-166,297,-127
38.54,38.07,3.76,3.80,2.69,8.67,-4.18,3.55,0.13,5.27,0.41,879.00,1808.00,380.00,400.00,538.00,1010.00,1221.00,1640.00,,,,,,,,,,,,1,0,4,,608,15912,1144,-292,113,-200
38.623,38.12,3.78,3.60,2.93,4.01,-0.34,4.06,0.13,4.83,1.36,871.00,1811.00,336.00,434.00,533.00,990.00,1169.00,1627.00,,,,,,,,,,,,1,0,4,,588,16232,1224,-66,101,-252
38.643,38.17,3.88,3.32,3.28,5.40,0.09,5.83,-1.58,6.55,-0.44,859.00,1814.00,320.00,406.00,566.00,966.00,1249.00,1595.00,,,,,,,,,,,,1,0,4,,496,16060,1528,-183,212,-94
38.685,38.23,3.86,3.91,2.48,8.88,-3.36,3.38,0.05,4.60,1.22,887.00,1810.00,362.00,388.00,542.00,1019.00,1183.00,1648.00,,,,,,,,,,,,1,0,4,,708,16120,1428,-48,336,-79
38.747,38.28,3.82,3.04,3.20,4.08,-0.37,3.08,1.24,5.75,0.55,867.00,1838.00,336.00,433.00,511.00,999.00,1201.00,1603.00,,,,,,,,,,,,1,0,4,,692,16196,988,-131,181,-124
38.809,38.34,3.92,3.20,2.99,3.90,1.12,5.78,-2.11,5.20,0.34,874.00,1836.00,311.00,419.00,583.00,982.00,1227.00,1648.00,,,,,,,,,,,,1,0,4,,672,15960,1284,-147,169,-170
38.851,38.40,3.92,3.35,2.69,7.20,-1.63,3.95,-0.38,4.62,1.25,886.00,1840.00,340.00,396.00,549.00,1008.00,1181.00,1646.00,,,,,,,,,,,,1,0,4,,676,16208,1204,-251,272,-262
38.913,38.45,3.82,3.07,2.85,6.07,-1.63,1.95,1.62,5.52,0.03,883.00,1853.00,347.00,414.00,511.00,1034.00,1241.00,1641.00,,,,,,,,,,,,1,0,4,,564,16044,1340,-337,157,-187
38.995,38.51,3.82,2.86,2.96,3.26,0.92,3.83,-0.21,4.34,1.04,881.00,1863.00,318.00,432.00,545.00,1008.00,1200.00,1673.00,,,,,,,,,,,,1,0,4,,492,16116,1332,-163,237,-56
39.016,38.56,3.85,2.74,2.96,5.03,-0.63,4.39,-1.25,5.94,0.02,883.00,1872.00,335.00,420.00,571.00,1014.00,1232.00,1614.00,,,,,,,,,,,,1,0,4,,744,16012,1368,-24,140,-123
39.077,38.62,3.79,3.38,2.46,8.03,-3.32,2.65,0.19,4.60,0.62,897.00,1850.00,367.00,401.00,545.00,1045.00,1222.00,1675.00,,,,,,,,,,,,1,0,4,,764,16056,1404,-193,-11,-112
39.138,38.67,3.77,2.94,2.96,3.04,-0.02,3.38,0.53,4.93,1.08,880.00,1857.00,336.00,447.00,528.00,1006.00,1185.00,1633.00,,,,,,,,,,,,1,0,4,,620,16128,1668,-601,13,-243
39.179,38.73,3.85,3.41,3.25,5.10,0.08,5.36,-1.45,6.30,-0.45,859.00,1809.00,322.00,411.00,567.00,981.00,1255.00,1611.00,,,,,,,,,,,,1,0,4,,740,16240,1532,-95,50,-230
39.24,38.78,3.84,3.89,2.74,8.87,-3.04,3.71,0.04,4.58,1.26,875.00,1799.00,356.00,385.00,539.00,1006.00,1181.00,1648.00,,,,,,,,,,,,1,0,4,,628,16080,1268,63,171,-136
39.301,38.84,3.82,3.34,3.27,5.96,-1.11,3.39,0.67,6.24,0.25,859.00,1813.00,338.00,410.00,524.00,1002.00,1210.00,1585.00,,,,,,,,,,,,1,0,4,,524,16276,1388,26,50,-238
39.361,38.89,3.86,3.29,3.50,4.30,1.35,4.76,-0.14,5.23,0.60,849.00,1805.00,305.00,410.00,534.00,970.00,1209.00,1634.00,,,,,,,,,,,,1,0,4,,820,16136,1332,180,39,-184
39.422,38.95,3.90,3.46,3.25,7.13,-1.06,4.68,-0.86,5.46,0.85,858.00,1805.00,330.00,391.00,556.00,992.00,1188.00,1609.00,,,,,,,,,,,,1,0,4,,836,16148,1144,8,-22,-108
39.484,39.00,3.86,3.47,3.08,6.77,-1.65,3.03,0.75,5.63,0.23,866.00,1813.00,343.00,403.00,525.00,1014.00,1225.00,1625.00,,,,,,,,,,,,1,0,4,,476,16348,1520,-59,107,-272
39.545,39.06,3.85,3.42,3.07,4.25,0.08,3.59,0.15,4.69,1.22,867.00,1817.00,327.00,425.00,537.00,1008.00,1181.00,1642.00,,,,,,,,,,,,1,0,4,,820,16036,984,-299,-39,-113
39.587,39.11,3.90,3.25,3.21,4.52,0.21,4.93,-1.76,6.24,-0.31,863.00,1822.00,323.00,419.00,581.00,1006.00,1247.00,1609.00,,,,,,,,,,,,1,0,4,,656,16168,1384,-168,50,-31
39.648,39.17,3.82,3.73,2.57,7.83,-3.31,2.34,0.40,4.30,0.84,886.00,1819.00,368.00,404.00,542.00,1052.00,1214.00,1685.00,,,,,,,,,,,,1,0,4,,644,16252,1220,-298,-11,-92
39.73,39.22,3.75,2.79,3.26,3.06,-0.13,2.45,0.81,5.13,0.73,868.00,1853.00,338.00,448.00,529.00,1036.00,1203.00,1635.00,,,,,,,,,,,,1,0,4,,480,16364,1560,32,247,72
39.751,39.28,3.81,3.12,3.26,4.23,0.37,4.82,-1.07,5.74,-0.26,863.00,1829.00,322.00,422.00,561.00,992.00,1255.00,1639.00,,,,,,,,,,,,1,0,4,,684,16012,1164,-191,94,-182
39.793,39.33,3.81,3.73,2.80,7.32,-1.62,3.79,-0.26,4.69,1.25,875.00,1808.00,339.00,394.00,547.00,1011.00,1179.00,1641.00,,,,,,,,,,,,1,0,4,,608,16016,1436,-129,20,-120
39.855,39.39,3.76,3.55,3.33,6.04,-1.41,2.95,1.28,6.47,-0.05,853.00,1795.00,343.00,412.00,511.00,1003.00,1225.00,1584.00,,,,,,,,,,,,1,0,4,,656,16204,1536,21,203,-103
39.895,39.44,3.82,3.43,3.59,4.37,0.61,4.87,-0.35,5.23,0.74,843.00,1791.00,317.00,417.00,539.00,971.00,1200.00,1628.00,,,,,,,,,,,,1,0,4,,756,16252,1300,-154,321,-112
39.957,39.50,3.88,3.75,3.37,7.95,-1.50,5.02,-1.11,6.12,0.47,848.00,1779.00,333.00,383.00,560.00,985.00,1198.00,1583.00,,,,,,,,,,,,1,0,4,,544,16044,1296,-66,196,-63
40.022,39.55,3.84,3.95,3.24,7.60,-2.41,3.11,0.48,5.79,0.34,851.00,1771.00,352.00,398.00,532.00,1018.00,1214.00,1610.00,,,,,,,,,,,,1,0,5,,552,16096,1336,-132,151,-59
40.083,39.60,3.85,3.49,3.46,4.24,-0.26,3.93,0.24,5.14,1.38,848.00,1793.00,333.00,429.00,531.00,992.00,1161.00,1606.00,,,,,,,,,,,,1,0,5,,716,16048,1432,36,234,-98
40.125,39.66,3.91,3.45,3.58,5.40,0.09,5.19,-1.39,6.91,-0.38,843.00,1790.00,320.00,406.00,567.00,986.00,1237.00,1570.00,,,,,,,,,,,,1,0,5,,664,16180,1224,-207,80,-93
40.188,39.72,3.86,4.11,2.93,8.60,-3.52,2.90,0.11,4.64,1.16,863.00,1775.00,367.00,394.00,545.00,1037.00,1186.00,1648.00,,,,,,,,,,,,1,0,5,,520,16108,1408,-90,63,-131
40.229,39.77,3.83,3.31,3.52,4.54,-0.52,3.28,0.56,5.95,0.64,848.00,1803.00,336.00,427.00,528.00,1009.00,1191.00,1587.00,,,,,,,,,,,,1,0,5,,564,16064,1372,-195,177,-60
40.29,39.83,3.87,3.55,3.44,4.11,0.81,4.53,-0.64,5.68,0.24,848.00,1790.00,315.00,419.00,551.00,992.00,1223.00,1621.00,,,,,,,,,,,,1,0,5,,608,16184,1376,-181,194,-173
40.351,39.88,3.86,3.61,3.27,8.32,-2.33,3.79,-0.66,4.98,1.23,855.00,1794.00,346.00,386.00,559.00,1022.00,1174.00,1623.00,,,,,,,,,,,,1,0,5,,632,16012,1396,-174,98,-157
40.393,39.94,3.77,3.39,3.34,6.63,-2.91,2.01,0.99,6.07,0.07,855.00,1806.00,368.00,419.00,528.00,1049.00,1226.00,1604.00,,,,,,,,,,,,1,0,5,,712,16304,1360,27,244,-41
40.455,39.99,3.79,3.33,3.38,3.44,0.92,4.07,-0.49,5.23,0.92,854.00,1808.00,317.00,429.00,551.00,1006.00,1189.00,1621.00,,,,,,,,,,,,1,0,5,,708,16060,1192,-171,178,-73
40.537,40.05,3.83,2.51,4.89,6.53,-1.03,4.71,-1.10,6.49,0.29,799.00,1794.00,333.00,400.00,563.00,997.00,1202.00,1568.00,,,,,,,,,,,,1,0,5,,856,15976,1388,69,66,-60
40.577,40.10,3.80,4.10,3.01,8.64,-2.81,3.25,0.09,5.31,0.72,859.00,1771.00,353.00,386.00,542.00,1023.00,1200.00,1624.00,,,,,,,,,,,,1,0,5,,496,16232,1284,-616,119,-156
40.639,40.16,3.80,3.53,3.49,3.02,0.10,3.80,0.32,5.62,1.22,846.00,1789.00,334.00,446.00,530.00,995.00,1161.00,1583.00,,,,,,,,,,,,1,0,5,,424,16120,1564,-243,177,-199
40.7,40.21,3.88,3.83,3.69,5.80,-0.05,5.43,-1.41,7.09,-0.38,832.00,1758.00,320.00,401.00,565.00,977.00,1233.00,1559.00,,,,,,,,,,,,1,0,5,,612,16072,1364,-139,149,-73
40.721,40.27,3.88,4.21,3.21,9.33,-3.15,3.81,0.00,5.04,1.31,848.00,1754.00,355.00,379.00,539.00,1003.00,1168.00,1616.00,,,,,,,,,,,,1,0,5,,520,16264,1544,27,241,-193
40.843,40.32,3.83,3.49,3.85,6.51,-1.19,2.88,1.30,7.01,0.36,830.00,1774.00,336.00,402.00,511.00,1005.00,1186.00,1533.00,,,,,,,,,,,,1,0,5,,640,16088,1416,-8,85,-213
40.863,40.38,3.88,3.74,3.68,4.35,1.27,4.82,-0.47,6.01,0.40,834.00,1765.00,306.00,410.00,543.00,976.00,1205.00,1593.00,,,,,,,,,,,,1,0,5,,500,16120,1372,4,108,-183
40.905,40.43,3.92,3.91,3.31,8.10,-1.72,4.60,-0.93,5.79,1.09,848.00,1770.00,336.00,383.00,559.00,997.00,1166.00,1578.00,,,,,,,,,,,,1,0,5,,756,16192,1212,-160,20,-246
40.946,40.49,3.84,3.84,3.32,6.91,-1.86,2.39,0.97,6.32,0.16,849.00,1775.00,346.00,403.00,525.00,1034.00,1214.00,1584.00,,,,,,,,,,,,1,0,5,,560,16120,1444,-245,112,-204
41.008,40.54,3.82,3.60,3.51,4.05,0.37,3.51,0.04,5.09,1.26,844.00,1783.00,323.00,425.00,541.00,1014.00,1170.00,1615.00,,,,,,,,,,,,1,0,5,,576,16152,1140,-226,86,-182
41.05,40.60,3.84,3.43,3.67,5.63,-0.61,4.06,-0.88,6.75,-0.19,839.00,1787.00,331.00,410.00,563.00,1017.00,1228.00,1572.00,,,,,,,,,,,,1,0,5,,524,15844,1592,-117,155,-87
