Time_Host,Time_Arduino,easingdata,CH1_Oxy,CH1_Deoxy,CH2_Oxy,CH2_Deoxy,CH3_Oxy,CH3_Deoxy,CH4_Oxy,CH4_Deoxy,CH1_PD730,CH1_PD850,CH2_PD730,CH2_PD850,CH3_PD730,CH3_PD850,CH4_PD730,CH4_PD850,Answers,airplane_playstate,trail_times,frameRate,Airplane X,Airplane Y,Correct,Wrong,Slow,AnswerRate,CorrectRate,VFTstates,VFTchoose,VFTCount,Culfstates,ax,ay,az,gx,gy,gz
1.326,0.04,0.00,0.00,0.00,0.00,0.00,0.00,0.00,0.00,0.00,200.00,848.00,686.00,1054.00,1582.00,3182.00,0.00,43.00,,,,,,,,,,,,0,1,0,,-1044,16124,716,183,-197,-144
1.347,0.10,0.00,0.00,0.00,0.00,0.00,0.00,0.00,0.00,0.00,214.00,849.00,709.00,1047.00,1566.00,3222.00,0.00,90.00,,,,,,,,,,,,0,1,0,,-952,16160,792,92,-273,-39
1.368,0.15,0.00,0.00,0.00,0.00,0.00,0.00,0.00,0.00,0.00,205.00,878.00,698.00,1083.00,1553.00,3216.00,0.00,68.00,,,,,,,,,,,,0,1,0,,-1128,16432,664,40,-125,77
1.389,0.21,0.00,0.00,0.00,0.00,0.00,0.00,0.00,0.00,0.00,194.00,851.00,675.00,1063.00,1575.00,3143.00,0.00,64.00,,,,,,,,,,,,0,1,0,,-940,16224,904,64,2,-103
1.41,0.26,0.00,0.00,0.00,0.00,0.00,0.00,0.00,0.00,0.00,220.00,848.00,702.00,1050.00,1555.00,3169.00,0.00,95.00,,,,,,,,,,,,0,1,0,,-872,16148,828,-39,-47,48
1.43,1.05,0.00,0.00,0.00,0.00,0.00,0.00,0.00,0.00,0.00,217.00,917.00,693.00,1075.00,1554.00,3193.00,0.00,68.00,,,,,,,,,,,,0,1,0,,-956,16180,1128,10,68,-240
1.452,1.11,0.00,0.00,0.00,0.00,0.00,0.00,0.00,0.00,0.00,208.00,907.00,670.00,1058.00,1555.00,3152.00,0.00,50.00,,,,,,,,,,,,0,1,0,,-968,16108,1016,76,85,-126
1.514,1.16,0.00,0.00,0.00,0.00,0.00,0.00,0.00,0.00,0.00,222.00,892.00,688.00,1035.00,1568.00,3184.00,0.00,71.00,,,,,,,,,,,,0,1,0,,-972,16144,1148,-155,187,-84
1.555,1.22,0.00,0.00,0.00,0.00,0.00,0.00,0.00,0.00,0.00,222.00,912.00,695.00,1045.00,1527.00,3200.00,0.00,77.00,,,,,,,,,,,,0,1,0,,-980,16140,976,-270,182,-202
1.618,1.27,0.00,0.00,0.00,0.00,0.00,0.00,0.00,0.00,0.00,208.00,914.00,663.00,1081.00,1558.00,3167.00,0.00,49.00,,,,,,,,,,,,0,1,0,,-836,16016,1128,-238,321,1
1.68,1.33,-0.00,0.22,-1.01,0.42,-0.01,-0.03,-0.10,nan,nan,222.00,898.00,683.00,1042.00,1569.00,3196.00,0.00,72.00,,,,,,,,,,,,0,1,0,,-728,16292,1028,-18,327,53
1.721,1.38,-0.02,0.42,-2.05,0.55,-0.66,-0.42,0.07,nan,nan,234.00,916.00,706.00,1055.00,1565.00,3230.00,0.00,91.00,,,,,,,,,,,,0,1,0,,-796,16332,884,99,275,-109
1.785,1.44,-0.05,-1.24,-0.52,-0.97,0.32,-0.51,0.23,nan,nan,222.00,939.00,688.00,1091.00,1554.00,3227.00,0.00,79.00,,,,,,,,,,,,0,1,0,,-780,16192,820,126,51,-157
1.89,1.49,-0.05,-0.87,-0.23,-0.46,0.26,-0.14,-0.41,nan,nan,217.00,918.00,684.00,1071.00,1598.00,3235.00,0.00,70.00,,,,,,,,,,,,0,1,0,,-864,16148,1060,31,90,-159
1.931,1.55,-0.10,1.28,-3.19,0.65,-1.06,-0.93,0.03,nan,nan,245.00,913.00,720.00,1062.00,1583.00,3299.00,0.00,102.00,,,,,,,,,,,,0,1,0,,-896,16168,1024,-46,353,-115
1.952,1.60,-0.14,-1.27,-0.76,-1.01,-0.06,-0.94,0.16,nan,nan,225.00,946.00,703.00,1104.00,1573.00,3290.00,0.00,80.00,,,,,,,,,,,,0,1,0,,-768,16252,856,-86,512,-107
1.995,1.66,-0.16,-1.37,0.03,-1.07,0.55,-0.67,-0.22,nan,nan,216.00,930.00,681.00,1089.00,1597.00,3287.00,0.00,64.00,,,,,,,,,,,,0,1,0,,-640,16232,808,-80,282,-128
2.056,1.71,-0.20,0.18,-1.97,-0.16,-0.22,-0.98,-0.04,nan,nan,234.00,923.00,698.00,1072.00,1591.00,3312.00,0.00,82.00,,,,,,,,,,,,0,1,0,,-748,16388,748,117,-73,-218
2.118,1.77,-0.25,-0.67,-1.12,-0.22,-0.30,-1.03,0.64,nan,nan,227.00,933.00,702.00,1077.00,1535.00,3259.00,0.00,85.00,,,,,,,,,,,,0,1,0,,-724,16104,864,139,-233,-340
2.181,1.82,-0.24,-1.35,0.28,-0.99,1.02,-0.13,-0.07,nan,nan,213.00,923.00,663.00,1072.00,1569.00,3205.00,0.00,58.00,,,,,,,,,,,,0,1,0,,-868,16252,896,-51,-411,-414
2.263,1.88,-0.23,0.11,-1.22,0.60,-0.20,-0.14,-0.20,nan,nan,225.00,907.00,688.00,1040.00,1580.00,3217.00,0.00,77.00,,,,,,,,,,,,0,1,0,,-968,16024,1144,-76,-288,-313
2.284,1.93,-0.26,-0.07,-1.89,0.32,-0.53,-0.69,0.27,nan,nan,234.00,930.00,704.00,1061.00,1556.00,3247.00,0.00,91.00,,,,,,,,,,,,0,1,0,,-952,16200,1136,-64,39,-343
2.326,1.99,-0.27,-0.88,-1.05,-0.73,0.24,-0.44,0.07,nan,nan,227.00,939.00,688.00,1083.00,1566.00,3233.00,0.00,79.00,,,,,,,,,,,,0,1,0,,-1044,16096,872,-24,273,-296
2.386,2.04,-0.26,-0.56,-1.32,-0.29,0.61,-0.10,-0.44,nan,nan,229.00,934.00,669.00,1054.00,1600.00,3234.00,0.00,79.00,,,,,,,,,,,,0,1,0,,-968,16124,716,-162,158,-207
2.45,2.10,-0.29,0.83,-3.78,0.68,-1.07,-0.83,0.11,nan,nan,255.00,944.00,720.00,1061.00,1574.00,3280.00,0.00,105.00,,,,,,,,,,,,0,1,0,,-948,16236,1104,-84,57,-217
2.49,2.15,-0.32,-1.45,-1.66,-1.06,0.22,-0.85,0.30,nan,nan,237.00,976.00,693.00,1098.00,1558.00,3265.00,0.00,79.00,,,,,,,,,,,,0,1,0,,-1016,16168,948,1,45,-185
2.635,2.21,-0.32,-1.30,-0.83,-1.37,0.81,-0.33,-0.38,nan,nan,226.00,949.00,675.00,1094.00,1601.00,3257.00,0.00,64.00,,,,,,,,,,,,0,1,0,,-916,16244,804,50,68,-134
2.655,2.26,-0.35,0.49,-3.07,0.50,-0.60,-0.91,-0.02,nan,nan,247.00,939.00,704.00,1055.00,1587.00,3301.00,0.00,81.00,,,,,,,,,,,,0,1,0,,-972,16284,852,-55,17,-286
2.676,2.32,-0.40,-0.91,-1.21,-0.56,0.00,-1.43,0.37,nan,nan,229.00,944.00,695.00,1083.00,1569.00,3335.00,0.00,82.00,,,,,,,,,,,,0,1,0,,-1108,16236,884,18,16,-365
2.697,2.37,-0.43,-2.06,0.61,-1.40,0.96,-0.95,-0.09,nan,nan,212.00,941.00,670.00,1091.00,1594.00,3312.00,0.00,60.00,,,,,,,,,,,,0,1,0,,-1072,16188,1040,35,-17,-359
2.759,2.43,-0.47,-0.03,-1.66,0.05,-0.21,-1.21,-0.19,nan,nan,231.00,923.00,695.00,1063.00,1610.00,3355.00,0.00,83.00,,,,,,,,,,,,0,1,0,,-1228,16232,788,-18,-28,-188
2.801,2.48,-0.54,-0.28,-1.89,-0.19,-0.73,-1.88,0.34,nan,nan,235.00,938.00,718.00,1088.00,1584.00,3397.00,0.00,94.00,,,,,,,,,,,,0,1,0,,-1188,16160,824,-63,142,-25
2.865,2.54,-0.57,-1.47,-0.02,-2.08,1.52,-1.24,0.07,nan,nan,217.00,935.00,658.00,1104.00,1589.00,3337.00,0.00,79.00,,,,,,,,,,,,0,1,0,,-936,16260,852,-187,241,-74
2.989,2.59,-0.58,-2.66,2.26,-0.70,0.21,-0.65,-0.32,nan,nan,196.00,922.00,689.00,1083.00,1605.00,3293.00,0.00,74.00,,,,,,,,,,,,0,1,0,,-1060,16244,960,-94,334,-108
3.01,2.65,-0.61,1.25,-3.10,0.50,-1.01,-1.22,0.13,nan,nan,244.00,912.00,720.00,1067.00,1583.00,3328.00,0.00,107.00,,,,,,,,,,,,0,1,0,,-1116,16132,824,-40,224,-83
3.031,2.70,-0.62,-1.34,-0.57,-1.09,0.10,-0.89,0.21,nan,nan,223.00,944.00,698.00,1103.00,1567.00,3279.00,0.00,80.00,,,,,,,,,,,,0,1,0,,-1036,16248,1044,-131,100,-112
3.093,2.76,-0.61,-0.99,0.16,-0.65,0.41,-0.44,-0.36,nan,nan,213.00,913.00,681.00,1075.00,1603.00,3270.00,0.00,64.00,,,,,,,,,,,,0,1,0,,-1044,16184,788,-115,120,-120
3.133,2.81,-0.63,1.26,-2.88,0.45,-0.76,-1.03,0.04,nan,nan,241.00,906.00,711.00,1062.00,1585.00,3311.00,0.00,86.00,,,,,,,,,,,,0,1,0,,-1036,16100,924,-77,201,-103
3.237,2.87,-0.66,-0.83,-0.49,-0.24,-0.27,-1.17,0.35,nan,nan,220.00,923.00,701.00,1077.00,1563.00,3302.00,0.00,81.00,,,,,,,,,,,,0,1,0,,-968,16176,852,-62,238,23
3.258,2.92,-0.66,-1.51,0.60,-0.84,0.71,-0.63,-0.09,nan,nan,210.00,921.00,672.00,1074.00,1585.00,3271.00,0.00,61.00,,,,,,,,,,,,0,1,0,,-980,16284,880,-49,182,-133
3.343,2.98,-0.65,0.26,-1.44,0.22,-0.29,-0.46,-0.26,nan,nan,227.00,907.00,696.00,1058.00,1595.00,3264.00,0.00,84.00,,,,,,,,,,,,0,1,0,,-976,16216,944,-29,-17,-220
3.364,3.03,-0.70,-0.49,-1.10,-0.10,-0.47,-1.59,0.44,nan,nan,226.00,926.00,707.00,1077.00,1567.00,3349.00,0.00,87.00,,,,,,,,,,,,0,1,0,,-1060,16124,1028,-122,-137,-240
3.426,3.09,-0.73,-1.88,0.90,-1.53,0.81,-1.36,0.16,nan,nan,208.00,927.00,677.00,1101.00,1585.00,3345.00,0.00,66.00,,,,,,,,,,,,0,1,0,,-1084,16140,964,-220,42,-283
3.468,3.14,-0.76,-1.21,-0.36,-0.95,0.29,-1.35,-0.18,nan,nan,220.00,934.00,689.00,1091.00,1614.00,3374.00,0.00,79.00,,,,,,,,,,,,0,1,0,,-1024,16140,852,-223,232,-286
3.552,3.20,-0.82,0.28,-3.00,-0.01,-0.99,-2.04,0.18,nan,nan,247.00,945.00,726.00,1088.00,1603.00,3434.00,0.00,107.00,,,,,,,,,,,,0,1,0,,-1056,16252,984,-133,335,-244
3.573,3.25,-0.88,-2.08,-1.45,-1.80,0.18,-1.92,0.17,nan,nan,237.00,995.00,704.00,1132.00,1600.00,3418.00,0.00,80.00,,,,,,,,,,,,0,1,0,,-1056,16092,864,169,126,-313
3.634,3.31,-0.91,-1.84,-1.68,-0.78,-0.73,-1.48,-0.38,nan,nan,239.00,992.00,726.00,1114.00,1635.00,3409.00,0.00,68.00,,,,,,,,,,,,0,1,0,,-1104,16148,648,203,-182,-172
3.716,3.36,-0.94,0.67,-4.43,0.08,-1.12,-1.58,0.02,nan,nan,265.00,967.00,730.00,1088.00,1603.00,3386.00,0.00,107.00,,,,,,,,,,,,0,1,0,,-1284,16004,988,-305,-231,-156
3.737,3.42,-0.97,-1.82,-1.22,-0.57,-0.24,-1.48,0.33,nan,nan,233.00,979.00,704.00,1090.00,1573.00,3344.00,0.00,79.00,,,,,,,,,,,,0,1,0,,-1088,16316,992,-282,135,-156
3.799,3.47,-0.96,-1.59,-0.32,-1.24,0.66,-0.86,-0.01,nan,nan,221.00,947.00,679.00,1093.00,1585.00,3294.00,0.00,62.00,,,,,,,,,,,,0,1,0,,-1064,16180,880,40,294,-105
3.861,3.53,-0.97,-0.18,-1.77,0.32,-0.40,-1.02,-0.02,nan,nan,233.00,931.00,699.00,1057.00,1590.00,3315.00,0.00,80.00,,,,,,,,,,,,0,1,0,,-1040,16124,732,58,236,-42
3.924,3.58,-0.99,-1.13,-0.89,-0.42,-0.31,-1.49,0.41,nan,nan,226.00,944.00,705.00,1086.00,1567.00,3339.00,0.00,94.00,,,,,,,,,,,,0,1,0,,-984,16284,896,-31,287,-79
3.966,3.64,-0.94,-2.39,0.89,-1.58,0.88,-0.04,-1.06,nan,nan,210.00,946.00,675.00,1101.00,1653.00,3280.00,0.00,62.00,,,,,,,,,,,,0,1,0,,-948,16164,648,-37,257,-149
4.026,3.69,-0.94,-1.18,-1.27,-0.45,0.04,-0.88,-0.24,nan,nan,231.00,956.00,692.00,1077.00,1605.00,3317.00,0.00,77.00,,,,,,,,,,,,0,1,0,,-1000,16192,720,17,109,-143
4.087,3.75,-0.97,-0.92,-2.97,0.36,-1.47,-1.44,0.14,nan,nan,252.00,990.00,740.00,1086.00,1589.00,3357.00,0.00,99.00,,,,,,,,,,,,0,1,0,,-988,16240,908,202,82,-218
4.13,3.80,-0.99,-2.59,-2.33,-1.37,0.01,-1.36,0.17,nan,nan,251.00,1040.00,705.00,1118.00,1584.00,3344.00,0.00,82.00,,,,,,,,,,,,0,1,0,,-1028,16164,928,132,34,-237
4.191,3.86,-0.98,-1.71,-1.88,-0.98,0.27,-0.96,-0.44,nan,nan,241.00,992.00,690.00,1093.00,1625.00,3345.00,0.00,71.00,,,,,,,,,,,,0,1,0,,-1108,16068,928,-56,103,-90
4.253,3.91,-1.03,0.33,-3.90,0.14,-1.04,-1.82,0.05,nan,nan,259.00,966.00,726.00,1083.00,1607.00,3415.00,0.00,102.00,,,,,,,,,,,,0,1,0,,-1044,16264,648,-93,198,-99
4.315,3.97,-1.07,-1.90,-0.95,-1.19,-0.03,-1.90,0.27,nan,nan,230.00,975.00,704.00,1111.00,1591.00,3407.00,0.00,86.00,,,,,,,,,,,,0,1,0,,-1056,16036,864,-147,108,1
4.357,4.02,-1.10,-1.57,-0.16,-1.43,0.53,-1.62,-0.01,nan,nan,219.00,942.00,686.00,1105.00,1607.00,3395.00,0.00,71.00,,,,,,,,,,,,0,1,0,,-1000,16196,740,-21,-31,55
4.438,4.08,-1.14,-0.50,-1.02,-0.52,-0.20,-1.94,-0.03,nan,nan,225.00,924.00,702.00,1087.00,1618.00,3440.00,0.00,87.00,,,,,,,,,,,,0,1,0,,-1100,16164,708,-295,15,-138
4.46,4.13,-1.19,-1.46,-0.28,-0.79,-0.42,-2.24,0.44,nan,nan,220.00,941.00,714.00,1105.00,1586.00,3437.00,0.00,95.00,,,,,,,,,,,,0,1,0,,-1064,16248,980,-314,285,-187
4.521,4.19,-1.19,-2.26,1.03,-1.83,1.02,-1.12,0.04,nan,nan,208.00,938.00,673.00,1108.00,1588.00,3323.00,0.00,66.00,,,,,,,,,,,,0,1,0,,-1036,16192,768,-115,101,73
4.563,4.24,-1.16,-0.64,-0.72,-0.06,-0.22,-0.64,-0.33,nan,nan,222.00,922.00,697.00,1068.00,1606.00,3293.00,0.00,80.00,,,,,,,,,,,,0,1,0,,-976,16216,788,-45,-227,-7
4.625,4.30,-1.17,-0.78,-1.01,0.03,-0.67,-1.22,0.11,nan,nan,226.00,934.00,713.00,1077.00,1585.00,3331.00,0.00,99.00,,,,,,,,,,,,0,1,0,,-860,16272,1000,25,-93,-39
4.686,4.35,-1.16,-2.03,-0.34,-1.35,0.21,-0.99,0.09,nan,nan,223.00,964.00,697.00,1111.00,1580.00,3302.00,0.00,80.00,,,,,,,,,,,,0,1,0,,-924,16204,988,120,107,-260
4.749,4.41,-1.13,-1.71,-0.69,-0.79,0.26,-0.67,-0.32,nan,nan,226.00,961.00,688.00,1085.00,1606.00,3296.00,0.00,74.00,,,,,,,,,,,,0,1,0,,-1064,16156,632,-159,79,-372
4.811,4.46,-1.14,0.19,-3.42,0.43,-0.99,-1.19,0.05,nan,nan,253.00,959.00,720.00,1069.00,1589.00,3332.00,0.00,105.00,,,,,,,,,,,,0,1,0,,-980,16116,904,-339,186,-149
4.853,4.52,-1.15,-2.08,-1.37,-1.07,-0.04,-1.35,0.32,nan,nan,236.00,993.00,703.00,1106.00,1571.00,3329.00,0.00,71.00,,,,,,,,,,,,0,1,0,,-1048,16300,948,-99,254,-192
4.915,4.57,-1.11,-1.93,-1.02,-1.14,0.68,-0.37,-0.24,nan,nan,231.00,978.00,677.00,1088.00,1590.00,3250.00,0.00,69.00,,,,,,,,,,,,0,1,0,,-944,16188,880,88,230,-102
4.977,4.63,-1.11,-1.17,-2.06,0.05,-0.42,-1.17,-0.01,nan,nan,241.00,976.00,703.00,1069.00,1594.00,3335.00,0.00,80.00,,,,,,,,,,,,0,1,0,,-816,16324,804,162,159,-131
5.017,4.68,-1.16,-1.84,-1.76,-0.51,-0.28,-2.14,1.30,nan,nan,240.00,994.00,705.00,1089.00,1511.00,3345.00,0.00,90.00,,,,,,,,,,,,0,1,0,,-836,16212,760,-3,-33,-181
5.08,4.74,-1.16,-2.85,-0.31,-1.77,0.86,-1.07,0.01,nan,nan,226.00,995.00,678.00,1110.00,1589.00,3319.00,0.00,64.00,,,,,,,,,,,,0,1,0,,-948,16072,820,-122,24,-219
5.184,4.79,-1.17,-1.38,-1.99,-0.35,0.04,-1.32,-0.10,nan,nan,241.00,982.00,691.00,1073.00,1606.00,3363.00,0.00,83.00,,,,,,,,,,,,0,1,0,,-1040,16156,812,-208,261,-173
5.205,4.85,-1.20,-1.51,-2.55,-0.47,-0.68,-1.93,0.24,nan,nan,249.00,1002.00,720.00,1099.00,1594.00,3413.00,0.00,95.00,,,,,,,,,,,,0,1,0,,-976,16196,772,-54,232,-179
5.247,4.90,-1.24,-2.19,-2.02,-2.01,0.65,-1.84,0.20,nan,nan,245.00,1015.00,689.00,1127.00,1595.00,3405.00,0.00,83.00,,,,,,,,,,,,0,1,0,,-996,16260,728,27,19,-64
5.309,4.96,-1.22,-1.91,-1.74,-1.09,0.12,-0.86,-0.39,nan,nan,240.00,996.00,697.00,1102.00,1618.00,3328.00,0.00,80.00,,,,,,,,,,,,0,1,0,,-852,16100,912,-32,27,-87
5.349,5.01,-1.22,-0.13,-4.16,0.14,-0.97,-1.19,0.11,nan,nan,265.00,991.00,723.00,1081.00,1584.00,3326.00,0.00,108.00,,,,,,,,,,,,0,1,0,,-856,16372,892,-209,208,-156
5.411,5.07,-1.20,-2.45,-1.71,-1.21,0.27,-0.84,0.24,nan,nan,242.00,1017.00,693.00,1103.00,1563.00,3269.00,0.00,77.00,,,,,,,,,,,,0,1,0,,-880,16160,1084,-312,358,-216
5.453,5.12,-1.15,-1.74,-1.79,-1.08,0.66,-0.21,-0.28,nan,nan,240.00,991.00,677.00,1086.00,1589.00,3233.00,0.00,65.00,,,,,,,,,,,,0,1,0,,-908,16284,764,-96,286,-238
5.557,5.18,-1.10,-0.36,-3.31,0.58,-0.57,-0.14,-0.64,nan,nan,254.00,977.00,702.00,1051.00,1618.00,3255.00,0.00,86.00,,,,,,,,,,,,0,1,0,,-968,16224,700,114,-64,-178
5.578,5.23,-1.09,-1.97,-1.71,-0.17,-0.13,-1.01,0.63,nan,nan,240.00,998.00,695.00,1070.00,1535.00,3257.00,0.00,85.00,,,,,,,,,,,,0,1,0,,-960,16120,872,-72,-182,-187
5.641,5.29,-1.05,-2.43,-0.77,-1.28,0.89,-0.23,-0.06,nan,nan,230.00,991.00,671.00,1088.00,1571.00,3217.00,0.00,61.00,,,,,,,,,,,,0,1,0,,-896,16140,1176,-108,116,30
5.662,5.34,-1.02,-1.11,-2.08,0.40,-0.27,-0.40,-0.16,nan,nan,241.00,974.00,693.00,1050.00,1584.00,3247.00,0.00,81.00,,,,,,,,,,,,0,1,0,,-856,16264,1012,-23,440,-172
5.724,5.40,-1.02,-1.41,-2.36,-0.02,-0.42,-1.18,0.69,nan,nan,246.00,993.00,704.00,1072.00,1535.00,3274.00,0.00,97.00,,,,,,,,,,,,0,1,0,,-992,16280,600,110,225,-345
5.786,5.45,-1.01,-2.10,-1.67,-1.02,0.39,-0.75,0.14,nan,nan,240.00,1002.00,686.00,1091.00,1569.00,3267.00,0.00,80.00,,,,,,,,,,,,0,1,0,,-1124,16004,652,-28,-135,-329
5.848,5.51,-0.99,-1.61,-1.99,-1.28,1.06,-0.53,-0.33,nan,nan,242.00,991.00,665.00,1083.00,1603.00,3279.00,0.00,78.00,,,,,,,,,,,,0,1,0,,-1180,16092,1020,-154,-77,-112
5.911,5.56,-1.00,-0.15,-3.95,0.30,-0.99,-1.26,0.08,nan,nan,262.00,986.00,722.00,1075.00,1589.00,3339.00,0.00,105.00,,,,,,,,,,,,0,1,0,,-1148,16272,1068,-137,209,-96
5.952,5.62,-1.02,-2.19,-1.95,-1.38,0.12,-1.34,0.32,nan,nan,244.00,1013.00,701.00,1115.00,1570.00,3327.00,0.00,81.00,,,,,,,,,,,,0,1,0,,-964,16316,872,0,330,-81
5.995,5.67,-1.01,-1.75,-1.56,-1.18,0.53,-0.80,-0.33,nan,nan,237.00,985.00,683.00,1094.00,1611.00,3315.00,0.00,65.00,,,,,,,,,,,,0,1,0,,-972,16160,672,98,324,-71
6.056,5.73,-1.01,0.30,-4.24,0.45,-0.94,-0.98,-0.08,nan,nan,264.00,976.00,718.00,1067.00,1594.00,3315.00,0.00,82.00,,,,,,,,,,,,0,1,0,,-880,16216,896,-13,162,-265
6.118,5.78,-1.01,-1.44,-1.89,-0.33,-0.32,-1.09,0.66,nan,nan,240.00,982.00,704.00,1082.00,1535.00,3265.00,0.00,81.00,,,,,,,,,,,,0,1,0,,-1016,16172,776,-107,33,-218
6.18,5.84,-0.96,-2.12,-0.47,-1.22,1.17,-0.10,-0.02,nan,nan,225.00,971.00,660.00,1077.00,1564.00,3197.00,0.00,60.00,,,,,,,,,,,,0,1,0,,-1028,16112,888,-14,-31,-188
6.241,5.89,-0.88,-1.30,-0.91,0.29,0.25,0.73,-0.42,nan,nan,227.00,951.00,675.00,1040.00,1574.00,3127.00,0.00,75.00,,,,,,,,,,,,0,1,0,,-980,16252,820,7,45,-185
6.283,5.95,-0.87,-1.01,-1.96,0.07,-0.03,-0.61,0.52,nan,nan,239.00,967.00,688.00,1057.00,1533.00,3215.00,0.00,82.00,,,,,,,,,,,,0,1,0,,-1132,16152,644,23,165,-179
6.346,6.00,-0.83,-2.93,0.73,-0.98,0.82,-0.22,0.15,nan,nan,214.00,971.00,670.00,1077.00,1553.00,3198.00,0.00,65.00,,,,,,,,,,,,0,1,0,,-1164,16204,752,-30,134,-144
6.407,6.06,-0.79,-1.35,-1.38,-0.42,0.52,0.13,-0.32,nan,nan,233.00,965.00,674.00,1062.00,1583.00,3194.00,0.00,74.00,,,,,,,,,,,,0,1,0,,-1008,16136,660,-208,68,-81
6.448,6.11,-0.77,0.34,-3.76,0.86,-1.05,-0.47,0.09,nan,nan,257.00,962.00,717.00,1053.00,1565.00,3235.00,0.00,98.00,,,,,,,,,,,,0,1,0,,-1056,16348,760,-145,-3,-154
6.489,6.17,-0.76,-2.66,-0.29,-0.83,0.22,-0.56,0.48,nan,nan,225.00,987.00,690.00,1088.00,1535.00,3213.00,0.00,81.00,,,,,,,,,,,,0,1,0,,-1068,16336,924,32,22,-264
6.551,6.22,-0.71,-1.39,-1.21,-0.60,0.61,0.16,-0.49,nan,nan,231.00,962.00,673.00,1067.00,1597.00,3205.00,0.00,69.00,,,,,,,,,,,,0,1,0,,-1052,15980,744,184,104,-209
6.653,6.28,-0.71,0.98,-4.47,0.89,-0.99,-0.71,0.13,nan,nan,264.00,956.00,714.00,1050.00,1569.00,3263.00,0.00,93.00,,,,,,,,,,,,0,1,0,,-1132,16180,684,113,152,-5
6.673,6.33,-0.73,-1.45,-1.66,-0.59,0.03,-1.09,0.66,nan,nan,237.00,976.00,694.00,1083.00,1535.00,3265.00,0.00,82.00,,,,,,,,,,,,0,1,0,,-876,16272,704,15,180,77
6.715,6.39,-0.77,-1.53,-1.08,-1.04,0.84,-1.42,1.34,nan,nan,230.00,964.00,670.00,1079.00,1488.00,3248.00,0.00,62.00,,,,,,,,,,,,0,1,0,,-912,16260,500,-31,180,-112
6.777,6.44,-0.80,-0.33,-2.50,0.18,-0.09,-1.45,0.14,nan,nan,243.00,955.00,689.00,1054.00,1589.00,3358.00,0.00,80.00,,,,,,,,,,,,0,1,0,,-1092,16028,680,60,2,-156
6.818,6.50,-0.82,-1.07,-2.02,-0.23,-0.35,-1.19,0.33,nan,nan,240.00,971.00,704.00,1079.00,1565.00,3307.00,0.00,85.00,,,,,,,,,,,,0,1,0,,-1104,16312,700,-161,-41,-59
6.88,6.55,-0.79,-1.93,-0.37,-1.09,0.77,-0.28,0.03,nan,nan,223.00,961.00,673.00,1083.00,1565.00,3216.00,0.00,64.00,,,,,,,,,,,,0,1,0,,-896,16156,832,-221,145,84
6.963,6.61,-0.75,-0.35,-2.03,0.29,0.03,0.07,-0.29,nan,nan,237.00,944.00,683.00,1046.00,1582.00,3199.00,0.00,69.00,,,,,,,,,,,,0,1,0,,-928,16224,916,-2,316,-16
7.047,6.66,-0.73,-0.03,-2.90,0.68,-0.68,-0.37,0.16,nan,nan,247.00,954.00,705.00,1050.00,1556.00,3216.00,0.00,90.00,,,,,,,,,,,,0,1,0,,-960,16240,656,1,205,103
7.067,6.72,-0.71,-1.48,-1.57,-0.65,0.30,-0.24,0.37,nan,nan,236.00,975.00,685.00,1078.00,1535.00,3181.00,0.00,74.00,,,,,,,,,,,,0,1,0,,-748,16116,812,-86,131,60
7.11,6.77,-0.65,-0.94,-1.59,-0.30,0.48,0.43,-0.42,nan,nan,234.00,955.00,674.00,1058.00,1583.00,3165.00,0.00,64.00,,,,,,,,,,,,0,1,0,,-824,16292,624,4,130,-191
7.195,6.83,-0.63,1.10,-4.37,1.04,-0.86,-0.29,0.16,nan,nan,262.00,949.00,707.00,1040.00,1554.00,3206.00,0.00,99.00,,,,,,,,,,,,0,1,0,,-824,16148,632,-67,80,-209
7.214,6.88,-0.62,-1.07,-1.78,-0.24,0.08,-0.37,0.49,nan,nan,237.00,965.00,688.00,1067.00,1529.00,3188.00,0.00,78.00,,,,,,,,,,,,0,1,0,,-892,16284,716,-114,44,-220
7.276,6.94,-0.58,-1.22,-1.10,-0.75,1.05,0.12,0.01,nan,nan,229.00,953.00,659.00,1061.00,1555.00,3167.00,0.00,54.00,,,,,,,,,,,,0,1,0,,-904,16292,728,-149,94,-292
7.338,6.99,-0.56,0.02,-2.39,0.85,-0.29,-0.09,-0.10,nan,nan,240.00,939.00,688.00,1032.00,1570.00,3202.00,0.00,82.00,,,,,,,,,,,,0,1,0,,-996,16204,704,-121,79,-299
7.379,7.05,-0.56,-0.77,-1.81,0.29,-0.39,-0.67,0.55,nan,nan,236.00,954.00,699.00,1058.00,1532.00,3220.00,0.00,80.00,,,,,,,,,,,,0,1,0,,-916,16188,704,75,37,-236
7.462,7.10,-0.55,-2.18,0.39,-1.21,1.23,-0.22,0.01,nan,nan,215.00,951.00,658.00,1075.00,1565.00,3210.00,0.00,54.00,,,,,,,,,,,,0,1,0,,-1012,16232,596,-73,44,-181
7.483,7.16,-0.54,-1.47,-0.02,0.42,-0.12,-0.35,-0.17,nan,nan,217.00,935.00,687.00,1045.00,1584.00,3242.00,0.00,78.00,,,,,,,,,,,,0,1,0,,-1056,16136,688,-141,121,-161
7.546,7.21,-0.55,-0.19,-2.54,0.02,-0.38,-0.77,-0.03,nan,nan,243.00,951.00,702.00,1069.00,1584.00,3284.00,0.00,93.00,,,,,,,,,,,,0,1,0,,-960,16080,832,-129,189,-76
7.587,7.27,-0.56,-1.25,-1.41,-1.92,0.62,-0.72,0.06,nan,nan,233.00,962.00,689.00,1124.00,1575.00,3270.00,0.00,74.00,,,,,,,,,,,,0,1,0,,-928,16404,568,-28,264,-85
7.649,7.32,-0.52,-0.91,-1.21,-0.26,0.25,0.16,-0.47,nan,nan,229.00,944.00,682.00,1063.00,1595.00,3203.00,0.00,69.00,,,,,,,,,,,,0,1,0,,-868,16256,708,-63,236,-175
7.712,7.38,-0.51,1.27,-4.07,1.15,-1.05,-0.31,0.06,nan,nan,257.00,935.00,713.00,1041.00,1563.00,3217.00,0.00,95.00,,,,,,,,,,,,0,1,0,,-940,16308,736,-35,136,-318
7.751,7.43,-0.49,-1.74,-0.68,-0.56,0.27,-0.12,0.36,nan,nan,226.00,962.00,685.00,1075.00,1533.00,3168.00,0.00,73.00,,,,,,,,,,,,0,1,0,,-860,16248,752,-80,98,-276
7.813,7.49,-0.44,-1.48,0.06,-0.27,0.71,0.60,-0.24,nan,nan,216.00,933.00,665.00,1050.00,1563.00,3129.00,0.00,55.00,,,,,,,,,,,,0,1,0,,-1076,16172,684,-95,114,-317
7.874,7.54,-0.40,0.52,-2.48,1.21,-0.49,0.34,-0.13,nan,nan,239.00,923.00,691.00,1023.00,1561.00,3152.00,0.00,76.00,,,,,,,,,,,,0,1,0,,-1004,16176,740,-89,148,-259
7.935,7.60,-0.38,-1.06,-0.75,0.57,-0.19,-0.13,0.51,nan,nan,224.00,938.00,688.00,1041.00,1520.00,3155.00,0.00,208.00,,,,,,,,,,,,0,1,0,,-1024,16144,788,-138,201,-175
7.978,7.65,-0.35,-1.93,0.74,-0.51,1.08,0.35,0.17,nan,nan,210.00,933.00,655.00,1050.00,1535.00,3125.00,0.00,53.00,,,,,,,,,,,,0,1,0,,-896,16208,772,-173,268,-42
8.039,7.71,-0.31,0.17,-2.05,1.16,-0.12,0.38,-0.17,nan,nan,235.00,925.00,678.00,1015.00,1563.00,3150.00,0.00,76.00,,,,,,,,,,,,0,1,0,,-1024,16292,768,-106,254,-210
8.122,7.76,-0.32,-0.70,-1.52,1.71,-1.85,-0.42,0.54,nan,nan,232.00,944.00,737.00,1040.00,1526.00,3190.00,0.00,83.00,,,,,,,,,,,,0,1,0,,-980,16280,616,-92,54,-325
8.143,7.82,-0.30,-1.66,-0.38,-0.48,0.68,0.04,-0.03,nan,nan,222.00,951.00,669.00,1060.00,1561.00,3181.00,0.00,69.00,,,,,,,,,,,,0,1,0,,-1024,16028,792,-121,-51,-246
8.206,7.87,-0.28,-0.84,-1.31,-0.17,0.44,0.10,-0.36,nan,nan,230.00,944.00,674.00,1054.00,1587.00,3201.00,0.00,66.00,,,,,,,,,,,,0,1,0,,-1140,16204,768,-51,-16,-258
8.267,7.93,-0.30,0.87,-3.72,0.94,-0.85,-0.64,0.10,nan,nan,254.00,941.00,708.00,1044.00,1569.00,3256.00,0.00,98.00,,,,,,,,,,,,0,1,0,,-1080,16092,744,-51,72,-203
8.329,7.98,-0.32,-1.21,-1.74,-0.73,0.24,-0.66,0.27,nan,nan,237.00,969.00,688.00,1083.00,1555.00,3243.00,0.00,76.00,,,,,,,,,,,,0,1,0,,-1176,16016,668,-56,64,-49
8.371,8.04,-0.30,-1.16,-0.96,-0.75,0.66,-0.01,-0.45,nan,nan,227.00,947.00,673.00,1072.00,1598.00,3223.00,0.00,64.00,,,,,,,,,,,,0,1,0,,-1052,16372,632,-117,18,-46
8.412,8.09,-0.30,1.33,-4.23,1.08,-0.84,-0.22,-0.01,nan,nan,259.00,937.00,706.00,1038.00,1566.00,3211.00,0.00,87.00,,,,,,,,,,,,0,1,0,,-1080,16216,1176,-328,178,-201
8.495,8.15,-0.29,-0.94,-1.35,0.29,-0.07,-0.09,0.32,nan,nan,231.00,949.00,687.00,1049.00,1535.00,3167.00,0.00,74.00,,,,,,,,,,,,0,1,0,,-928,16280,752,-124,324,-191
8.535,8.20,-0.25,-1.60,-0.15,-0.38,1.06,0.47,0.13,nan,nan,219.00,943.00,654.00,1045.00,1535.00,3113.00,0.00,51.00,,,,,,,,,,,,0,1,0,,-984,16128,692,6,134,-111
8.596,8.26,-0.20,0.73,-2.62,1.51,-0.24,0.63,-0.21,nan,nan,240.00,919.00,678.00,1004.00,1559.00,3122.00,0.00,67.00,,,,,,,,,,,,0,1,0,,-1072,16152,800,-58,56,-137
8.659,8.31,-0.20,-0.46,-1.68,1.09,-0.32,-0.08,0.55,nan,nan,233.00,939.00,686.00,1023.00,1516.00,3146.00,0.00,78.00,,,,,,,,,,,,0,1,0,,-1076,16336,876,-120,187,-171
8.721,8.37,-0.16,-1.71,-0.03,-0.33,0.99,0.56,0.10,nan,nan,218.00,944.00,656.00,1045.00,1535.00,3105.00,0.00,54.00,,,,,,,,,,,,0,1,0,,-1056,16024,884,-250,249,-170
8.763,8.42,-0.12,-0.32,-1.57,0.92,0.26,0.60,-0.17,nan,nan,231.00,931.00,667.00,1014.00,1557.00,3123.00,0.00,66.00,,,,,,,,,,,,0,1,0,,-1020,16288,916,-158,232,7
8.847,8.48,-0.12,0.09,-2.56,1.35,-0.51,-0.01,0.29,nan,nan,242.00,941.00,690.00,1018.00,1535.00,3159.00,0.00,85.00,,,,,,,,,,,,0,1,0,,-896,16284,992,-5,188,-64
8.868,8.53,-0.11,-1.08,-1.71,-0.35,0.55,0.11,0.25,nan,nan,236.00,963.00,672.00,1058.00,1535.00,3148.00,0.00,64.00,,,,,,,,,,,,0,1,0,,-924,16152,704,55,106,-112
8.929,8.59,-0.07,-0.91,-1.21,0.05,0.61,0.56,-0.44,nan,nan,229.00,944.00,665.00,1040.00,1581.00,3150.00,0.00,61.00,,,,,,,,,,,,0,1,0,,-984,16236,776,38,95,-104
8.97,8.64,-0.08,1.38,-4.39,1.17,-0.87,-0.15,0.03,nan,nan,261.00,939.00,706.00,1035.00,1561.00,3199.00,0.00,93.00,,,,,,,,,,,,0,1,0,,-1008,16144,912,-85,195,-121
9.031,8.70,-0.09,-1.41,-1.67,-0.43,0.22,-0.43,0.44,nan,nan,237.00,975.00,685.00,1071.00,1535.00,3200.00,0.00,71.00,,,,,,,,,,,,0,1,0,,-948,16220,708,-147,253,-166
9.093,8.75,-0.05,-1.37,-0.64,-0.64,1.09,0.75,-0.34,nan,nan,224.00,947.00,656.00,1055.00,1567.00,3118.00,0.00,54.00,,,,,,,,,,,,0,1,0,,-952,16176,848,-82,143,-163
9.154,8.81,-0.06,-0.04,-2.29,0.93,-0.05,-0.14,-0.19,nan,nan,239.00,939.00,678.00,1022.00,1579.00,3216.00,0.00,74.00,,,,,,,,,,,,0,1,0,,-908,16296,888,-80,89,-143
9.216,8.86,-0.07,-0.56,-1.96,0.46,-0.19,-0.30,0.44,nan,nan,237.00,950.00,689.00,1045.00,1531.00,3183.00,0.00,75.00,,,,,,,,,,,,0,1,0,,-1020,16240,688,-178,88,-324
9.237,8.92,-0.03,-1.81,0.01,-0.52,1.05,0.60,-0.11,nan,nan,218.00,947.00,656.00,1051.00,1552.00,3118.00,0.00,48.00,,,,,,,,,,,,0,1,0,,-996,16064,964,-175,90,-235
9.299,8.97,-0.01,0.45,-2.37,1.31,0.02,0.40,0.16,nan,nan,238.00,923.00,671.00,1005.00,1535.00,3120.00,0.00,65.00,,,,,,,,,,,,0,1,0,,-1080,16136,864,-45,165,-165
9.361,9.03,0.00,0.19,-2.60,1.44,-0.46,0.29,0.32,nan,nan,242.00,938.00,687.00,1013.00,1524.00,3119.00,0.00,81.00,,,,,,,,,,,,0,1,0,,-988,16252,900,15,216,-154
9.402,9.08,0.02,-0.84,-1.55,0.24,0.32,0.42,0.20,nan,nan,233.00,950.00,673.00,1040.00,1531.00,3114.00,0.00,64.00,,,,,,,,,,,,0,1,0,,-968,16248,732,-4,124,-127
9.464,9.14,0.06,-0.70,-1.28,0.67,0.37,0.80,-0.31,nan,nan,229.00,938.00,666.00,1021.00,1563.00,3110.00,0.00,64.00,,,,,,,,,,,,0,1,0,,-1040,16100,808,-131,29,-246
9.527,9.19,0.07,1.03,-3.92,1.96,-1.01,0.17,0.23,nan,nan,256.00,940.00,701.00,1007.00,1535.00,3142.00,0.00,94.00,,,,,,,,,,,,0,1,0,,-1032,16176,964,-208,83,-161
9.63,9.25,0.08,-1.42,-1.35,-0.19,0.36,0.29,0.29,nan,nan,233.00,967.00,677.00,1057.00,1527.00,3122.00,0.00,67.00,,,,,,,,,,,,0,1,0,,-980,16300,812,-141,127,-199
9.65,9.30,0.11,-1.02,-0.92,0.02,0.76,0.78,-0.26,nan,nan,226.00,941.00,660.00,1037.00,1559.00,3108.00,0.00,59.00,,,,,,,,,,,,0,1,0,,-952,16160,748,28,114,-174
9.693,9.36,0.08,0.52,-3.09,1.86,-0.89,-0.61,0.50,nan,nan,247.00,938.00,698.00,1008.00,1535.00,3218.00,0.00,71.00,,,,,,,,,,,,0,1,0,,-1060,16220,908,89,59,-65
9.734,9.41,0.06,-0.84,-1.31,0.48,0.08,-0.21,0.53,nan,nan,230.00,944.00,679.00,1037.00,1521.00,3164.00,0.00,73.00,,,,,,,,,,,,0,1,0,,-968,16208,728,75,141,-120
9.796,9.47,0.07,-1.53,-0.26,-0.62,1.34,0.14,0.24,nan,nan,220.00,943.00,647.00,1047.00,1535.00,3145.00,0.00,48.00,,,,,,,,,,,,0,1,0,,-988,16136,824,-62,162,-129
9.858,9.52,0.06,0.51,-2.63,0.92,-0.07,0.04,-0.13,nan,nan,241.00,927.00,679.00,1023.00,1569.00,3189.00,0.00,70.00,,,,,,,,,,,,0,1,0,,-960,16164,732,-113,88,-147
9.899,9.58,0.03,-0.36,-2.26,0.66,-0.33,-0.64,0.50,nan,nan,240.00,950.00,692.00,1041.00,1535.00,3220.00,0.00,28.00,,,,,,,,,,,,0,1,0,,-1056,16280,728,-60,100,-118
9.979,9.63,0.03,-1.59,-0.40,0.52,-0.84,0.11,0.01,nan,nan,222.00,949.00,713.00,1061.00,1555.00,3168.00,0.00,61.00,,,,,,,,,,,,0,1,0,,-964,16132,772,-139,107,-250
10.041,9.69,0.06,-0.63,-1.62,0.13,0.53,0.54,-0.23,nan,nan,233.00,944.00,667.00,1039.00,1563.00,3134.00,0.00,64.00,,,,,,,,,,,,0,1,0,,-888,16264,832,-146,122,-204
10.062,9.74,0.06,0.88,-3.65,1.42,-0.59,0.07,0.27,nan,nan,253.00,939.00,692.00,1017.00,1535.00,3151.00,0.00,93.00,,,,,,,,,,,,0,1,0,,-1080,16156,804,-52,30,-182
10.125,9.80,0.07,-1.22,-1.18,-0.39,0.51,0.34,0.36,nan,nan,230.00,955.00,674.00,1061.00,1520.00,3110.00,0.00,67.00,,,,,,,,,,,,0,1,0,,-956,16244,912,-14,42,-170
10.189,9.85,0.12,-0.53,-1.41,0.49,0.71,0.91,-0.30,nan,nan,230.00,935.00,656.00,1019.00,1559.00,3095.00,0.00,60.00,,,,,,,,,,,,0,1,0,,-868,16244,868,38,137,-152
10.25,9.91,0.13,0.41,-3.71,2.08,-0.89,0.32,0.18,nan,nan,256.00,958.00,695.00,999.00,1535.00,3127.00,0.00,86.00,,,,,,,,,,,,0,1,0,,-988,16184,668,-21,111,-221
10.331,9.96,0.13,-1.12,-1.14,0.26,0.29,0.27,0.40,nan,nan,229.00,950.00,674.00,1040.00,1518.00,3115.00,0.00,67.00,,,,,,,,,,,,0,1,0,,-988,16204,784,-55,69,-164
10.351,10.02,0.16,-0.60,-0.90,0.09,0.88,0.75,0.04,nan,nan,224.00,925.00,655.00,1031.00,1535.00,3087.00,0.00,48.00,,,,,,,,,,,,0,1,0,,-1100,16112,808,-9,60,-249
10.393,10.07,0.18,0.77,-2.41,1.60,-0.11,0.42,0.15,nan,nan,237.00,912.00,672.00,997.00,1535.00,3118.00,0.00,67.00,,,,,,,,,,,,0,1,0,,-1084,16112,704,58,82,-193
10.453,10.13,0.17,-0.32,-1.41,1.09,-0.21,-0.03,0.56,nan,nan,229.00,927.00,682.00,1020.00,1514.00,3140.00,0.00,96.00,,,,,,,,,,,,0,1,0,,-1064,16284,748,57,109,-171
10.515,10.18,0.18,-1.41,0.13,-0.33,1.13,0.40,0.16,nan,nan,215.00,929.00,651.00,1041.00,1535.00,3120.00,0.00,46.00,,,,,,,,,,,,0,1,0,,-1060,16264,652,-43,102,-241
10.558,10.24,0.19,0.33,-1.46,1.09,0.23,0.34,-0.13,nan,nan,227.00,905.00,666.00,1008.00,1561.00,3152.00,0.00,64.00,,,,,,,,,,,,0,1,0,,-1136,16120,760,-87,170,-178
10.619,10.29,0.16,0.77,-2.48,1.14,-0.39,-0.27,0.38,nan,nan,238.00,914.00,688.00,1023.00,1535.00,3184.00,0.00,80.00,,,,,,,,,,,,0,1,0,,-1076,16188,772,-79,113,-81
10.701,10.35,0.14,-0.60,-1.15,-0.55,0.53,-0.24,0.37,nan,nan,227.00,931.00,675.00,1067.00,1535.00,3181.00,0.00,65.00,,,,,,,,,,,,0,1,0,,-1024,16248,596,-36,171,0
10.722,10.40,0.17,-0.18,-0.96,0.24,0.43,0.62,-0.39,nan,nan,223.00,911.00,669.00,1037.00,1575.00,3139.00,0.00,63.00,,,,,,,,,,,,0,1,0,,-984,16156,856,-122,231,-173
10.783,10.46,0.17,1.91,-3.55,1.90,-1.07,0.21,0.24,nan,nan,247.00,899.00,704.00,1011.00,1533.00,3136.00,0.00,83.00,,,,,,,,,,,,0,1,0,,-1036,16284,700,-135,227,-222
10.846,10.51,0.19,-1.20,0.06,0.15,0.36,0.52,0.32,nan,nan,215.00,923.00,673.00,1043.00,1518.00,3091.00,0.00,64.00,,,,,,,,,,,,0,1,0,,-1040,16224,624,-84,53,-217
10.888,10.57,0.24,-0.65,0.39,0.53,0.84,1.19,-0.11,nan,nan,209.00,895.00,651.00,1014.00,1535.00,3045.00,0.00,48.00,,,,,,,,,,,,0,1,0,,-1032,16176,628,-32,-14,-140
10.97,10.62,0.27,1.45,-2.24,1.61,-0.19,0.89,0.03,nan,nan,232.00,884.00,675.00,999.00,1532.00,3070.00,0.00,67.00,,,,,,,,,,,,0,1,0,,-1084,16176,740,-121,103,-144
11.012,10.68,0.28,-0.04,-0.76,1.34,-0.13,0.42,0.57,nan,nan,220.00,901.00,676.00,1008.00,1500.00,3082.00,0.00,66.00,,,,,,,,,,,,0,1,0,,-1092,16084,888,-93,313,-90
11.075,10.73,0.32,-0.69,0.50,0.07,1.20,1.17,-0.10,nan,nan,208.00,894.00,644.00,1023.00,1535.00,3047.00,0.00,41.00,,,,,,,,,,,,0,1,0,,-944,16228,624,-159,290,-113
11.14,10.79,0.35,1.07,-1.46,1.97,-0.20,0.92,-0.02,nan,nan,224.00,879.00,671.00,985.00,1535.00,3071.00,0.00,65.00,,,,,,,,,,,,0,1,0,,-1048,16172,596,-51,60,-144
11.201,10.84,0.35,0.44,-1.25,1.50,-0.37,0.28,0.55,nan,nan,224.00,896.00,683.00,1008.00,1506.00,3102.00,0.00,70.00,,,,,,,,,,,,0,1,0,,-1040,16224,776,-37,-28,-209
11.221,10.90,0.33,-0.84,0.55,-0.08,1.16,0.05,0.41,nan,nan,208.00,898.00,647.00,1030.00,1524.00,3142.00,0.00,59.00,,,,,,,,,,,,0,1,0,,-1040,16244,896,-107,72,-148
11.282,10.95,0.35,0.07,-0.71,0.62,0.53,0.74,-0.25,nan,nan,219.00,896.00,661.00,1019.00,1559.00,3111.00,0.00,59.00,,,,,,,,,,,,0,1,0,,-1132,16096,744,-140,118,-130
11.344,11.01,0.33,1.67,-2.94,1.70,-0.92,-0.04,0.30,nan,nan,240.00,893.00,701.00,1015.00,1535.00,3162.00,0.00,85.00,,,,,,,,,,,,0,1,0,,-1060,16384,708,-107,34,-117
11.428,11.06,0.32,-0.75,-0.69,-0.35,0.52,0.09,0.26,nan,nan,222.00,925.00,673.00,1059.00,1535.00,3149.00,0.00,64.00,,,,,,,,,,,,0,1,0,,-1192,16248,780,-47,26,-173
11.449,11.12,0.34,-0.11,-0.57,0.03,0.67,0.59,-0.48,nan,nan,218.00,899.00,663.00,1039.00,1583.00,3149.00,0.00,55.00,,,,,,,,,,,,0,1,0,,-996,16272,788,62,185,-115
11.512,11.17,0.32,2.13,-3.32,1.74,-0.99,0.08,0.05,nan,nan,243.00,886.00,703.00,1015.00,1553.00,3169.00,0.00,80.00,,,,,,,,,,,,0,1,0,,-1124,16160,756,-106,195,-247
11.553,11.23,0.33,-0.44,-0.46,0.53,0.01,0.36,0.41,nan,nan,218.00,908.00,681.00,1037.00,1515.00,3103.00,0.00,67.00,,,,,,,,,,,,0,1,0,,-996,16112,732,-234,99,-40
11.615,11.28,0.36,-0.50,0.34,0.31,0.92,0.98,0.12,nan,nan,209.00,891.00,651.00,1021.00,1522.00,3052.00,0.00,46.00,,,,,,,,,,,,0,1,0,,-992,16280,808,-96,8,-115
11.677,11.34,0.39,1.18,-1.42,1.97,-0.09,1.08,0.05,nan,nan,223.00,874.00,667.00,982.00,1525.00,3046.00,0.00,66.00,,,,,,,,,,,,0,1,0,,-1060,16188,804,-159,73,-230
11.72,11.39,0.40,0.11,-0.64,1.47,-0.15,0.48,0.70,nan,nan,218.00,893.00,675.00,1003.00,1488.00,3065.00,0.00,68.00,,,,,,,,,,,,0,1,0,,-1060,16160,944,-55,226,-181
11.803,11.45,0.44,-0.74,0.78,0.47,1.14,1.25,0.06,nan,nan,205.00,889.00,641.00,1008.00,1519.00,3024.00,0.00,43.00,,,,,,,,,,,,0,1,0,,-1068,16124,796,43,143,-91
11.825,11.50,0.48,0.63,-0.73,2.00,-0.02,1.16,-0.06,nan,nan,217.00,877.00,664.00,979.00,1532.00,3045.00,0.00,56.00,,,,,,,,,,,,0,1,0,,-1136,16120,684,-52,83,-13
11.887,11.56,0.49,0.95,-1.59,1.84,-0.46,0.76,0.23,nan,nan,226.00,886.00,682.00,997.00,1519.00,3070.00,0.00,80.00,,,,,,,,,,,,0,1,0,,-996,16220,828,-40,120,-34
11.948,11.61,0.51,-0.33,-0.41,0.33,0.40,0.84,0.20,nan,nan,217.00,903.00,669.00,1034.00,1519.00,3062.00,0.00,129.00,,,,,,,,,,,,0,1,0,,-1124,16228,812,-37,213,-100
11.991,11.67,0.54,0.29,-0.79,0.82,0.60,1.13,-0.29,nan,nan,219.00,890.00,656.00,1009.00,1552.00,3068.00,0.00,53.00,,,,,,,,,,,,0,1,0,,-1024,16220,636,-81,258,-117
12.052,11.72,0.53,1.94,-3.26,1.86,-0.89,0.34,0.23,nan,nan,243.00,891.00,698.00,1008.00,1530.00,3120.00,0.00,85.00,,,,,,,,,,,,0,1,0,,-964,16128,664,-93,96,-97
12.176,11.78,0.52,-0.61,-0.48,0.47,-0.16,0.26,0.38,nan,nan,219.00,915.00,688.00,1044.00,1520.00,3118.00,0.00,64.00,,,,,,,,,,,,0,1,0,,-928,16184,876,-147,23,-107
12.196,11.83,0.53,-0.42,0.05,-0.31,1.35,0.79,-0.26,nan,nan,212.00,895.00,643.00,1034.00,1559.00,3107.00,0.00,49.00,,,,,,,,,,,,0,1,0,,-972,16252,896,-97,75,-114
12.217,11.89,0.52,1.54,-2.66,1.48,-0.34,0.41,-0.16,nan,nan,237.00,891.00,682.00,1008.00,1561.00,3145.00,0.00,66.00,,,,,,,,,,,,0,1,0,,-936,16124,748,-47,186,-49
12.28,11.94,0.49,-0.11,-0.90,0.55,-0.03,-0.14,0.52,nan,nan,222.00,907.00,682.00,1037.00,1520.00,3156.00,0.00,64.00,,,,,,,,,,,,0,1,0,,-888,16340,828,-31,182,-85
12.343,12.00,0.52,-0.54,0.45,0.41,0.68,0.99,-0.03,nan,nan,208.00,890.00,658.00,1023.00,1534.00,3063.00,0.00,43.00,,,,,,,,,,,,0,1,0,,-984,16208,728,-171,167,-137
12.405,12.05,0.54,1.29,-1.46,1.89,-0.12,0.94,-0.00,nan,nan,223.00,871.00,669.00,986.00,1533.00,3067.00,0.00,61.00,,,,,,,,,,,,0,1,0,,-792,16180,748,-127,59,-192
12.465,12.11,0.54,0.84,-1.39,1.60,-0.30,0.54,0.60,nan,nan,224.00,885.00,679.00,1002.00,1495.00,3066.00,0.00,68.00,,,,,,,,,,,,0,1,0,,-964,16148,820,-113,21,-178
12.528,12.16,0.56,-0.58,0.46,0.76,0.65,1.05,0.25,nan,nan,208.00,891.00,655.00,1010.00,1509.00,3033.00,0.00,49.00,,,,,,,,,,,,0,1,0,,-888,16180,720,-35,95,-183
12.548,12.22,0.60,0.55,-0.87,1.22,0.30,1.32,-0.16,nan,nan,219.00,883.00,662.00,1001.00,1535.00,3033.00,0.00,52.00,,,,,,,,,,,,0,1,0,,-968,16260,756,-6,127,-319
12.63,12.27,0.60,2.15,-3.10,2.19,-0.90,0.68,0.23,nan,nan,240.00,880.00,694.00,995.00,1521.00,3079.00,0.00,80.00,,,,,,,,,,,,0,1,0,,-1060,16224,632,-86,58,-252
12.651,12.33,0.62,-0.48,-0.36,0.16,0.52,0.96,0.26,nan,nan,217.00,907.00,667.00,1038.00,1511.00,3043.00,0.00,59.00,,,,,,,,,,,,0,1,0,,-988,16320,864,-53,81,-196
12.714,12.38,0.65,-0.21,0.34,0.85,0.59,1.27,-0.14,nan,nan,208.00,881.00,656.00,1008.00,1535.00,3038.00,0.00,47.00,,,,,,,,,,,,0,1,0,,-952,16236,796,-9,119,-300
12.776,12.44,0.65,2.15,-3.10,2.20,-0.88,0.58,0.24,nan,nan,240.00,880.00,693.00,994.00,1523.00,3091.00,0.00,80.00,,,,,,,,,,,,0,1,0,,-1092,16124,820,16,85,-334
12.817,12.49,0.64,-0.48,-0.19,0.45,0.20,0.49,0.38,nan,nan,215.00,903.00,675.00,1035.00,1514.00,3090.00,0.00,64.00,,,,,,,,,,,,0,1,0,,-1104,16120,736,-45,29,-303
12.9,12.55,0.66,-0.21,0.34,-0.08,1.02,0.91,-0.00,nan,nan,208.00,881.00,652.00,1034.00,1534.00,3071.00,0.00,45.00,,,,,,,,,,,,0,1,0,,-1124,16112,912,-72,30,-281
12.921,12.60,0.65,1.25,-1.53,1.66,-0.15,0.59,-0.13,nan,nan,224.00,874.00,673.00,996.00,1554.00,3121.00,0.00,65.00,,,,,,,,,,,,0,1,0,,-1152,16328,720,-63,50,-265
12.982,12.66,0.62,0.33,-0.80,1.03,-0.19,-0.09,0.50,nan,nan,219.00,889.00,682.00,1022.00,1520.00,3151.00,0.00,69.00,,,,,,,,,,,,0,1,0,,-1024,16188,788,-27,78,-134
13.043,12.71,0.60,-0.65,0.48,-0.52,1.05,0.30,0.19,nan,nan,208.00,893.00,656.00,1051.00,1535.00,3129.00,0.00,48.00,,,,,,,,,,,,0,1,0,,-1080,16240,728,85,142,-199
13.106,12.77,0.61,1.22,-1.27,1.45,-0.11,0.75,-0.25,nan,nan,221.00,869.00,674.00,1003.00,1559.00,3110.00,0.00,59.00,,,,,,,,,,,,0,1,0,,-1072,16052,760,-165,67,-243
13.147,12.82,0.60,1.07,-1.46,1.38,-0.31,0.50,0.30,nan,nan,224.00,879.00,682.00,1011.00,1520.00,3095.00,0.00,75.00,,,,,,,,,,,,0,1,0,,-1164,16192,744,-158,106,-168
13.209,12.88,0.62,0.07,-0.63,0.35,0.34,0.95,0.18,nan,nan,218.00,894.00,671.00,1035.00,1518.00,3051.00,0.00,51.00,,,,,,,,,,,,0,1,0,,-1156,16160,728,-34,50,-181
13.272,12.93,0.65,0.13,-0.05,0.99,0.35,1.26,-0.13,nan,nan,211.00,878.00,663.00,1009.00,1535.00,3039.00,0.00,51.00,,,,,,,,,,,,0,1,0,,-1136,16176,764,-39,29,-163
13.333,12.99,0.65,2.27,-3.06,1.85,-0.71,0.65,0.19,nan,nan,239.00,875.00,691.00,1003.00,1525.00,3086.00,0.00,84.00,,,,,,,,,,,,0,1,0,,-1108,16324,780,-65,63,-170
13.374,13.04,0.66,-0.85,0.11,0.05,0.61,0.73,0.38,nan,nan,213.00,909.00,665.00,1040.00,1507.00,3060.00,0.00,59.00,,,,,,,,,,,,0,1,0,,-1160,16192,680,-125,87,-169
13.457,13.10,0.69,-0.14,0.31,0.18,1.36,1.30,-0.15,nan,nan,208.00,879.00,637.00,1014.00,1535.00,3035.00,0.00,46.00,,,,,,,,,,,,0,1,0,,-1168,16172,848,-69,65,-118
13.478,13.15,0.70,2.22,-3.13,2.26,-0.82,0.99,-0.02,nan,nan,240.00,878.00,690.00,990.00,1533.00,3062.00,0.00,69.00,,,,,,,,,,,,0,1,0,,-1044,16284,732,23,54,-163
13.541,13.21,0.69,0.14,-0.57,1.21,-0.17,0.39,0.55,nan,nan,217.00,890.00,679.00,1014.00,1503.00,3088.00,0.00,64.00,,,,,,,,,,,,0,1,0,,-1160,16200,660,31,80,-152
13.641,13.26,0.70,-0.51,0.62,-0.34,1.22,0.95,0.12,nan,nan,206.00,885.00,648.00,1039.00,1523.00,3056.00,0.00,39.00,,,,,,,,,,,,0,1,0,,-1132,16056,728,-17,122,-146
13.662,13.32,0.70,1.48,-1.68,1.57,-0.10,0.63,0.08,nan,nan,225.00,870.00,672.00,998.00,1535.00,3098.00,0.00,64.00,,,,,,,,,,,,0,1,0,,-1224,16140,648,-151,132,-118
13.724,13.37,0.66,0.40,-0.99,1.11,-0.35,0.01,0.52,nan,nan,221.00,891.00,687.00,1023.00,1516.00,3138.00,0.00,73.00,,,,,,,,,,,,0,1,0,,-1080,16264,732,-189,120,-79
13.764,13.43,0.62,-0.88,0.74,-0.67,1.24,-0.27,0.38,nan,nan,206.00,895.00,651.00,1052.00,1535.00,3184.00,0.00,48.00,,,,,,,,,,,,0,1,0,,-1080,16320,744,-84,165,-143
13.848,13.48,0.61,0.33,-0.88,0.28,0.34,0.43,-0.27,nan,nan,220.00,891.00,672.00,1038.00,1570.00,3152.00,0.00,57.00,,,,,,,,,,,,0,1,0,,-1136,16164,728,-59,183,-58
13.868,13.54,0.58,1.64,-2.78,0.92,-0.50,0.05,0.27,nan,nan,238.00,890.00,695.00,1035.00,1535.00,3153.00,0.00,83.00,,,,,,,,,,,,0,1,0,,-1064,16144,600,-110,116,-161
13.931,13.59,0.58,-0.14,-0.81,-0.22,0.40,0.57,0.26,nan,nan,221.00,906.00,676.00,1057.00,1522.00,3091.00,0.00,58.00,,,,,,,,,,,,0,1,0,,-1156,16112,716,-101,122,-107
14.013,13.65,0.62,0.21,-0.25,0.54,0.50,1.34,-0.45,nan,nan,213.00,880.00,663.00,1023.00,1559.00,3055.00,0.00,48.00,,,,,,,,,,,,0,1,0,,-1108,16180,900,-103,94,-84
14.034,13.70,0.62,2.62,-3.41,1.95,-1.03,0.71,0.12,nan,nan,242.00,871.00,702.00,1008.00,1529.00,3084.00,0.00,82.00,,,,,,,,,,,,0,1,0,,-1100,16208,808,-47,178,-55
14.097,13.76,0.63,-0.04,-0.59,0.25,0.24,0.71,0.39,nan,nan,218.00,897.00,676.00,1042.00,1507.00,3062.00,0.00,59.00,,,,,,,,,,,,0,1,0,,-996,16164,628,-47,295,-32
14.158,13.81,0.65,-0.17,0.32,0.29,0.86,1.20,-0.06,nan,nan,208.00,880.00,653.00,1023.00,1531.00,3041.00,0.00,46.00,,,,,,,,,,,,0,1,0,,-944,16040,664,-108,195,-99
14.2,13.87,0.67,1.51,-1.70,1.75,-0.19,1.04,-0.06,nan,nan,225.00,869.00,673.00,993.00,1535.00,3059.00,0.00,61.00,,,,,,,,,,,,0,1,0,,-1068,16288,620,-126,91,-65
14.263,13.92,0.66,0.40,-0.91,1.01,-0.02,0.39,0.61,nan,nan,220.00,889.00,676.00,1018.00,1498.00,3083.00,0.00,67.00,,,,,,,,,,,,0,1,0,,-1004,16200,932,-95,106,-202
14.325,13.98,0.68,-0.54,0.45,-0.02,0.88,1.10,0.03,nan,nan,208.00,890.00,656.00,1035.00,1526.00,3045.00,0.00,46.00,,,,,,,,,,,,0,1,0,,-1052,16120,724,-113,193,-122
14.366,14.03,0.68,1.29,-1.54,1.46,0.02,0.74,0.04,nan,nan,224.00,873.00,669.00,999.00,1535.00,3088.00,0.00,64.00,,,,,,,,,,,,0,1,0,,-1024,16152,740,-59,113,-74
14.428,14.09,0.66,0.97,-2.00,1.38,-0.52,0.19,0.38,nan,nan,231.00,895.00,690.00,1017.00,1522.00,3127.00,0.00,71.00,,,,,,,,,,,,0,1,0,,-1000,16184,760,-10,128,-112
14.49,14.14,0.64,-0.21,-0.95,-0.28,0.55,0.28,0.22,nan,nan,223.00,912.00,671.00,1055.00,1533.00,3129.00,0.00,64.00,,,,,,,,,,,,0,1,0,,-1120,16196,728,-95,128,-61
14.55,14.20,0.64,-0.03,-1.34,0.23,0.27,0.57,-0.35,nan,nan,227.00,915.00,675.00,1042.00,1573.00,3141.00,0.00,63.00,,,,,,,,,,,,0,1,0,,-1160,16260,676,-168,160,-47
14.592,14.25,0.59,1.49,-4.07,0.99,-0.79,-0.21,0.16,nan,nan,256.00,927.00,705.00,1040.00,1552.00,3196.00,0.00,93.00,,,,,,,,,,,,0,1,0,,-924,16252,672,-110,348,-1
14.654,14.31,0.57,-0.73,-1.90,-0.50,0.22,0.02,0.29,nan,nan,237.00,955.00,686.00,1074.00,1534.00,3155.00,0.00,65.00,,,,,,,,,,,,0,1,0,,-936,16312,576,-126,239,-220
14.778,14.36,0.60,-0.32,-1.41,-0.10,0.71,1.14,-0.49,nan,nan,229.00,927.00,663.00,1043.00,1568.00,3082.00,0.00,50.00,,,,,,,,,,,,0,1,0,,-936,16396,676,-98,105,-215
14.798,14.42,0.59,1.83,-4.33,1.03,-0.78,0.47,0.13,nan,nan,258.00,921.00,704.00,1038.00,1535.00,3113.00,0.00,60.00,,,,,,,,,,,,0,1,0,,-1008,16068,860,-83,91,-242
14.818,14.47,0.59,-0.39,-1.78,0.54,0.06,0.69,0.31,nan,nan,234.00,939.00,679.00,1035.00,1514.00,3071.00,0.00,66.00,,,,,,,,,,,,0,1,0,,-1052,16200,760,23,113,-146
14.859,14.53,0.62,-0.74,-0.85,-0.20,0.97,1.14,0.09,nan,nan,224.00,929.00,655.00,1040.00,1520.00,3035.00,0.00,48.00,,,,,,,,,,,,0,1,0,,-1080,16188,716,-21,120,-169
14.922,14.58,0.64,1.01,-2.79,1.78,-0.41,0.97,0.01,nan,nan,241.00,913.00,681.00,998.00,1531.00,3062.00,0.00,48.00,,,,,,,,,,,,0,1,0,,-1016,16220,604,-75,136,-247
14.962,14.64,0.63,-0.11,-2.11,1.27,-0.43,0.40,0.64,nan,nan,237.00,937.00,688.00,1019.00,1495.00,3079.00,0.00,67.00,,,,,,,,,,,,0,1,0,,-1032,16176,740,-97,180,-154
15.023,14.69,0.64,-1.17,-0.63,-0.26,0.99,0.97,0.14,nan,nan,223.00,939.00,655.00,1042.00,1520.00,3051.00,0.00,45.00,,,,,,,,,,,,0,1,0,,-996,16320,664,-94,170,-246
15.146,14.75,0.65,0.48,-2.54,1.04,0.06,0.77,0.03,nan,nan,240.00,926.00,673.00,1015.00,1535.00,3085.00,0.00,63.00,,,,,,,,,,,,0,1,0,,-1144,16160,700,-8,41,-251
15.166,14.80,0.63,0.66,-3.13,1.30,-0.63,0.30,0.24,nan,nan,247.00,934.00,695.00,1023.00,1531.00,3125.00,0.00,80.00,,,,,,,,,,,,0,1,0,,-1128,16184,804,31,-29,-159
15.208,14.86,0.62,-0.39,-2.17,-0.26,0.14,0.40,0.16,nan,nan,239.00,949.00,686.00,1066.00,1535.00,3120.00,0.00,65.00,,,,,,,,,,,,0,1,0,,-1052,16080,764,-16,34,-227
15.271,14.91,0.62,-0.21,-1.60,0.01,0.48,0.67,-0.41,nan,nan,231.00,928.00,670.00,1045.00,1575.00,3134.00,0.00,60.00,,,,,,,,,,,,0,1,0,,-1104,16136,636,-167,181,-234
15.31,14.97,0.59,2.00,-4.46,1.17,-0.90,-0.11,0.09,nan,nan,259.00,918.00,707.00,1036.00,1555.00,3189.00,0.00,81.00,,,,,,,,,,,,0,1,0,,-1040,16204,688,-220,98,-153
15.373,15.02,0.54,-1.22,-1.18,-0.88,0.29,-0.27,0.38,nan,nan,230.00,955.00,688.00,1088.00,1535.00,3184.00,0.00,64.00,,,,,,,,,,,,0,1,0,,-988,16192,868,-199,129,-118
15.415,15.08,0.55,-0.50,-1.02,-0.49,0.65,0.67,-0.49,nan,nan,225.00,924.00,670.00,1061.00,1582.00,3141.00,0.00,48.00,,,,,,,,,,,,0,1,0,,-1204,16308,788,-183,125,-248
15.478,15.13,0.55,1.18,-3.00,1.27,-0.40,0.49,0.12,nan,nan,243.00,912.00,687.00,1018.00,1535.00,3111.00,0.00,50.00,,,,,,,,,,,,0,1,0,,-1212,16248,792,-125,170,-214
15.541,15.19,0.54,-0.07,-1.73,0.50,-0.17,0.35,0.54,nan,nan,232.00,926.00,688.00,1043.00,1505.00,3094.00,0.00,67.00,,,,,,,,,,,,0,1,0,,-1168,16180,836,-8,115,-159
15.582,15.24,0.56,-0.95,-0.03,-0.25,1.05,1.07,0.05,nan,nan,215.00,916.00,653.00,1040.00,1525.00,3047.00,0.00,42.00,,,,,,,,,,,,0,1,0,,-1188,16160,720,5,82,-78
15.645,15.30,0.58,1.39,-2.69,1.48,-0.12,0.96,-0.01,nan,nan,238.00,897.00,674.00,1002.00,1533.00,3065.00,0.00,64.00,,,,,,,,,,,,0,1,0,,-1132,16100,808,-86,182,-83
15.708,15.35,0.58,0.63,-2.43,0.93,-0.37,0.46,0.44,nan,nan,238.00,918.00,690.00,1031.00,1510.00,3089.00,0.00,80.00,,,,,,,,,,,,0,1,0,,-1024,16208,652,-149,199,-157
15.729,15.41,0.59,-0.96,-0.53,-0.52,1.05,0.84,0.12,nan,nan,221.00,929.00,656.00,1051.00,1526.00,3069.00,0.00,50.00,,,,,,,,,,,,0,1,0,,-1132,16128,728,-204,144,-14
15.791,15.46,0.62,0.21,-1.98,0.22,0.38,1.12,-0.31,nan,nan,234.00,922.00,671.00,1039.00,1554.00,3071.00,0.00,57.00,,,,,,,,,,,,0,1,0,,-992,16268,900,-121,202,-142
15.853,15.52,0.60,1.58,-3.88,1.49,-0.90,0.34,0.23,nan,nan,253.00,919.00,703.00,1023.00,1530.00,3120.00,0.00,82.00,,,,,,,,,,,,0,1,0,,-976,16228,788,-17,183,-199
15.893,15.57,0.59,-0.60,-1.79,-0.43,0.36,0.36,0.32,nan,nan,235.00,947.00,680.00,1067.00,1522.00,3110.00,0.00,64.00,,,,,,,,,,,,0,1,0,,-1056,16132,764,-5,37,-138
15.955,15.63,0.60,0.17,-2.05,-0.09,0.63,0.86,-0.45,nan,nan,235.00,925.00,666.00,1045.00,1573.00,3114.00,0.00,54.00,,,,,,,,,,,,0,1,0,,-1028,16300,832,4,72,-164
16.016,15.68,0.58,1.86,-4.41,1.32,-1.05,0.15,0.02,nan,nan,259.00,922.00,711.00,1034.00,1553.00,3162.00,0.00,85.00,,,,,,,,,,,,0,1,0,,-1064,16176,876,-107,129,-138
16.078,15.74,0.54,-0.77,-1.89,0.34,-0.14,-0.21,0.46,nan,nan,237.00,956.00,689.00,1049.00,1527.00,3170.00,0.00,69.00,,,,,,,,,,,,0,1,0,,-1076,16152,920,-160,124,20
16.121,15.79,0.53,-0.56,-1.48,-0.84,0.85,0.27,-0.06,nan,nan,231.00,938.00,667.00,1070.00,1557.00,3154.00,0.00,47.00,,,,,,,,,,,,0,1,0,,-1072,16332,804,-1,226,-121
16.221,15.85,0.51,0.76,-2.79,0.66,-0.23,0.20,-0.11,nan,nan,242.00,922.00,688.00,1038.00,1563.00,3167.00,0.00,68.00,,,,,,,,,,,,0,1,0,,-1080,16320,804,-86,128,-211
16.24,15.90,0.49,0.17,-2.28,0.43,-0.28,0.14,0.53,nan,nan,238.00,931.00,693.00,1049.00,1511.00,3120.00,0.00,69.00,,,,,,,,,,,,0,1,0,,-1040,16240,880,-76,200,-177
16.303,15.96,0.51,-1.64,0.55,-0.87,1.28,0.91,0.11,nan,nan,211.00,927.00,652.00,1059.00,1525.00,3062.00,0.00,41.00,,,,,,,,,,,,0,1,0,,-1048,16096,904,-14,63,-251
16.343,16.01,0.54,1.03,-2.34,1.26,-0.02,0.96,-0.03,nan,nan,235.00,901.00,673.00,1008.00,1535.00,3067.00,0.00,63.00,,,,,,,,,,,,0,1,0,,-1016,16140,840,-2,40,-137
16.404,16.07,0.55,1.05,-2.81,0.67,-0.31,0.70,0.30,nan,nan,241.00,912.00,691.00,1040.00,1515.00,3071.00,0.00,78.00,,,,,,,,,,,,0,1,0,,-1076,16272,948,-51,79,-198
16.466,16.12,0.56,-0.53,-1.09,0.02,0.29,0.86,0.17,nan,nan,226.00,927.00,677.00,1050.00,1521.00,3062.00,0.00,63.00,,,,,,,,,,,,0,1,0,,-1068,16148,828,-90,16,-268
16.527,16.18,0.60,0.29,-1.69,0.36,0.37,1.30,-0.39,nan,nan,230.00,912.00,670.00,1034.00,1555.00,3055.00,0.00,51.00,,,,,,,,,,,,0,1,0,,-1112,16176,672,-168,14,-137
16.568,16.23,0.60,1.96,-3.86,1.46,-0.79,0.56,0.22,nan,nan,251.00,905.00,699.00,1021.00,1525.00,3095.00,0.00,86.00,,,,,,,,,,,,0,1,0,,-1100,16300,960,-89,106,-156
16.652,16.29,0.59,-0.28,-1.50,-0.37,0.45,0.54,0.40,nan,nan,230.00,928.00,676.00,1062.00,1511.00,3082.00,0.00,68.00,,,,,,,,,,,,0,1,0,,-1052,16184,904,-13,218,-174
16.672,16.34,0.62,-0.18,-0.63,0.05,0.61,1.17,-0.34,nan,nan,219.00,903.00,665.00,1040.00,1555.00,3067.00,0.00,48.00,,,,,,,,,,,,0,1,0,,-1212,16128,676,-6,50,-75
16.736,16.40,0.61,2.02,-3.59,1.64,-0.69,0.45,0.14,nan,nan,247.00,896.00,693.00,1011.00,1535.00,3115.00,0.00,75.00,,,,,,,,,,,,0,1,0,,-1072,16112,868,-38,26,-98
16.777,16.45,0.59,-0.10,-1.15,0.49,-0.11,0.15,0.46,nan,nan,225.00,913.00,686.00,1042.00,1517.00,3125.00,0.00,64.00,,,,,,,,,,,,0,1,0,,-1096,16208,1036,-177,117,-146
16.838,16.51,0.59,0.18,-1.33,-0.70,1.11,0.50,0.12,nan,nan,226.00,907.00,656.00,1057.00,1535.00,3110.00,0.00,41.00,,,,,,,,,,,,0,1,0,,-1108,16116,708,-167,159,-111
16.941,16.56,0.57,0.73,-1.68,1.62,-0.84,0.33,-0.11,nan,nan,228.00,896.00,699.00,1016.00,1559.00,3151.00,0.00,64.00,,,,,,,,,,,,0,1,0,,-1092,16188,816,-171,129,-58
16.962,16.62,0.53,0.22,-1.58,0.36,-0.31,-0.25,0.53,nan,nan,229.00,912.00,695.00,1053.00,1522.00,3169.00,0.00,71.00,,,,,,,,,,,,0,1,0,,-1160,16176,704,-143,184,-213
17.004,16.67,0.55,-0.87,0.47,-0.56,1.01,0.83,0.11,nan,nan,209.00,901.00,658.00,1054.00,1527.00,3071.00,0.00,44.00,,,,,,,,,,,,0,1,0,,-1192,16260,760,-145,185,-134
17.065,16.73,0.57,0.77,-1.28,1.20,0.00,1.08,-0.07,nan,nan,223.00,885.00,673.00,1010.00,1535.00,3056.00,0.00,59.00,,,,,,,,,,,,0,1,0,,-1056,16108,780,-51,125,-161
17.107,16.78,0.58,1.72,-2.72,1.53,-0.60,0.67,0.25,nan,nan,237.00,886.00,691.00,1013.00,1520.00,3079.00,0.00,80.00,,,,,,,,,,,,0,1,0,,-1080,16128,856,12,151,-69
17.169,16.84,0.60,0.04,-1.20,-0.01,0.30,0.96,0.26,nan,nan,225.00,909.00,677.00,1051.00,1511.00,3043.00,0.00,55.00,,,,,,,,,,,,0,1,0,,-1104,16076,748,15,92,-39
17.229,16.89,0.63,0.48,-0.85,0.72,0.27,1.33,-0.16,nan,nan,219.00,885.00,669.00,1022.00,1535.00,3032.00,0.00,53.00,,,,,,,,,,,,0,1,0,,-1100,16156,616,-66,115,-211
17.333,16.95,0.64,2.42,-3.50,1.94,-0.95,0.76,0.22,nan,nan,244.00,880.00,699.00,1006.00,1520.00,3071.00,0.00,80.00,,,,,,,,,,,,0,1,0,,-1068,16188,784,-137,107,-80
17.354,17.00,0.65,-0.21,-0.95,0.11,0.34,0.85,0.37,nan,nan,223.00,912.00,674.00,1045.00,1505.00,3047.00,0.00,59.00,,,,,,,,,,,,0,1,0,,-1140,16204,896,-51,164,-127
17.396,17.06,0.69,0.03,-0.27,0.39,0.72,1.39,-0.18,nan,nan,214.00,887.00,657.00,1023.00,1535.00,3027.00,0.00,41.00,,,,,,,,,,,,0,1,0,,-1044,16244,716,-26,180,-168
17.457,17.11,0.70,1.67,-2.39,1.55,-0.25,0.95,0.07,nan,nan,233.00,880.00,678.00,1003.00,1527.00,3060.00,0.00,64.00,,,,,,,,,,,,0,1,0,,-1120,16048,624,-25,146,-116
17.52,17.17,0.71,0.99,-1.44,1.13,-0.19,0.79,0.02,nan,nan,224.00,881.00,681.00,1018.00,1535.00,3083.00,0.00,64.00,,,,,,,,,,,,0,1,0,,-1036,16268,816,-74,113,-131
17.562,17.22,0.71,-0.35,0.12,-0.20,0.97,0.90,0.06,nan,nan,211.00,891.00,655.00,1040.00,1529.00,3067.00,0.00,38.00,,,,,,,,,,,,0,1,0,,-988,16160,828,-167,166,-105
17.623,17.28,0.71,1.32,-1.87,1.38,-0.20,0.57,0.10,nan,nan,228.00,880.00,678.00,1008.00,1535.00,3104.00,0.00,64.00,,,,,,,,,,,,0,1,0,,-1160,16280,604,-108,179,-108
17.686,17.33,0.67,1.04,-2.18,0.73,-0.33,0.03,0.45,nan,nan,233.00,897.00,691.00,1038.00,1521.00,3141.00,0.00,74.00,,,,,,,,,,,,0,1,0,,-1252,16200,748,-55,158,-76
17.749,17.39,0.66,-0.26,-0.34,-0.42,0.65,0.41,0.19,nan,nan,216.00,899.00,669.00,1058.00,1532.00,3116.00,0.00,55.00,,,,,,,,,,,,0,1,0,,-1092,16264,772,-133,205,-202
17.79,17.44,0.69,-0.01,-0.17,0.64,0.38,1.19,-0.11,nan,nan,213.00,886.00,666.00,1022.00,1535.00,3045.00,0.00,49.00,,,,,,,,,,,,0,1,0,,-1040,16192,848,-137,264,-106
17.854,17.50,0.70,2.10,-3.16,0.89,0.38,0.87,0.19,nan,nan,241.00,883.00,663.00,1012.00,1519.00,3059.00,0.00,82.00,,,,,,,,,,,,0,1,0,,-960,16220,900,-73,184,-102
17.895,17.55,0.72,0.00,-1.02,0.23,0.27,1.09,0.34,nan,nan,223.00,906.00,675.00,1042.00,1501.00,3021.00,0.00,50.00,,,,,,,,,,,,0,1,0,,-1004,16180,900,12,152,-139
17.936,17.61,0.77,0.66,-0.91,0.85,0.59,1.76,-0.30,nan,nan,219.00,880.00,656.00,1008.00,1535.00,2993.00,0.00,47.00,,,,,,,,,,,,0,1,0,,-1060,16180,788,-14,145,-96
17.998,17.66,0.79,2.65,-3.80,2.70,-1.28,1.24,0.02,nan,nan,247.00,879.00,702.00,985.00,1523.00,3029.00,0.00,77.00,,,,,,,,,,,,0,1,0,,-968,16148,640,-34,168,-153
18.039,17.72,0.81,0.37,-1.23,0.80,0.11,1.14,0.40,nan,nan,224.00,898.00,674.00,1023.00,1494.00,3009.00,0.00,48.00,,,,,,,,,,,,0,1,0,,-1044,16260,916,-52,186,-130
18.102,17.77,0.85,0.36,-0.47,0.72,0.77,1.63,-0.04,nan,nan,215.00,880.00,651.00,1008.00,1517.00,2987.00,0.00,39.00,,,,,,,,,,,,0,1,0,,-948,16272,808,-39,160,-189
18.164,17.83,0.87,1.79,-2.20,2.20,-0.28,1.32,0.03,nan,nan,230.00,871.00,671.00,978.00,1520.00,3019.00,0.00,59.00,,,,,,,,,,,,0,1,0,,-1012,16132,724,-56,126,-190
18.206,17.88,0.87,0.70,-1.34,1.50,-0.37,0.79,0.59,nan,nan,224.00,889.00,683.00,1008.00,1489.00,3037.00,0.00,60.00,,,,,,,,,,,,0,1,0,,-952,16236,764,-6,38,-137
18.269,17.94,0.89,-0.31,0.10,-0.08,1.04,1.34,-0.03,nan,nan,211.00,890.00,651.00,1033.00,1524.00,3021.00,0.00,33.00,,,,,,,,,,,,0,1,0,,-1156,16220,812,-96,93,-159
18.333,17.99,0.90,1.47,-1.84,1.62,-0.06,1.08,-0.07,nan,nan,227.00,874.00,670.00,995.00,1535.00,3056.00,0.00,53.00,,,,,,,,,,,,0,1,0,,-1032,16148,812,-159,215,-133
18.413,18.05,0.88,1.83,-2.84,1.30,-0.44,0.54,0.24,nan,nan,238.00,885.00,688.00,1018.00,1524.00,3095.00,0.00,78.00,,,,,,,,,,,,0,1,0,,-1092,16260,816,-138,168,-126
18.434,18.10,0.87,0.26,-1.35,-0.04,0.20,0.56,0.13,nan,nan,226.00,905.00,681.00,1055.00,1533.00,3103.00,0.00,59.00,,,,,,,,,,,,0,1,0,,-1044,16192,760,-114,141,-99
18.495,18.16,0.89,0.77,-1.44,0.30,0.41,1.23,-0.48,nan,nan,225.00,889.00,669.00,1035.00,1565.00,3071.00,0.00,49.00,,,,,,,,,,,,0,1,0,,-996,16184,648,-97,127,-282
18.577,18.21,0.88,2.82,-4.01,1.99,-1.10,0.82,0.22,nan,nan,249.00,878.00,704.00,1008.00,1518.00,3063.00,0.00,80.00,,,,,,,,,,,,0,1,0,,-1040,16144,856,-163,147,-147
18.598,18.27,0.90,0.04,-0.95,0.33,0.27,1.20,0.31,nan,nan,222.00,903.00,674.00,1038.00,1500.00,3010.00,0.00,55.00,,,,,,,,,,,,0,1,0,,-1148,16236,812,-91,159,-154
18.659,18.32,0.95,0.81,-0.96,-0.14,2.06,1.94,-0.31,nan,nan,219.00,876.00,617.00,1008.00,1531.00,2973.00,0.00,41.00,,,,,,,,,,,,0,1,0,,-1120,16080,924,-47,147,-68
18.701,18.38,0.98,2.60,-3.25,2.68,-0.90,1.58,-0.01,nan,nan,240.00,868.00,688.00,976.00,1516.00,2991.00,0.00,58.00,,,,,,,,,,,,0,1,0,,-1064,16052,776,-14,224,-28
18.783,18.43,1.00,-0.60,0.92,1.65,-0.26,1.28,0.41,nan,nan,203.00,881.00,677.00,999.00,1490.00,2993.00,0.00,59.00,,,,,,,,,,,,0,1,0,,-944,16136,696,-8,221,-50
18.844,18.49,1.03,0.25,-0.08,0.68,0.87,1.77,0.08,nan,nan,211.00,875.00,648.00,1007.00,1503.00,2961.00,0.00,33.00,,,,,,,,,,,,0,1,0,,-1056,16216,744,-129,177,-36
18.906,18.54,1.07,1.92,-2.00,2.28,-0.17,1.64,-0.08,nan,nan,227.00,862.00,666.00,972.00,1520.00,2989.00,0.00,52.00,,,,,,,,,,,,0,1,0,,-1008,16220,768,-115,187,-83
18.926,18.60,1.04,1.39,-1.98,1.79,-0.28,0.66,0.64,nan,nan,229.00,880.00,676.00,994.00,1488.00,3048.00,0.00,63.00,,,,,,,,,,,,0,1,0,,-1012,16244,908,-73,210,-154
18.987,18.65,1.07,-0.21,0.34,0.33,1.14,1.49,0.04,nan,nan,208.00,881.00,643.00,1014.00,1514.00,2997.00,0.00,34.00,,,,,,,,,,,,0,1,0,,-1068,16224,808,-14,156,-90
19.049,18.71,1.08,1.18,-1.34,1.33,0.29,1.40,-0.14,nan,nan,222.00,872.00,661.00,997.00,1532.00,3023.00,0.00,51.00,,,,,,,,,,,,0,1,0,,-972,16148,820,-22,135,-44
19.213,18.76,1.06,2.01,-2.90,1.73,-0.56,0.66,0.19,nan,nan,238.00,880.00,687.00,1004.00,1525.00,3085.00,0.00,79.00,,,,,,,,,,,,0,1,0,,-968,16216,788,-159,224,-47
19.235,18.82,1.05,0.58,-1.71,0.45,0.20,0.83,0.18,nan,nan,229.00,902.00,675.00,1035.00,1521.00,3065.00,0.00,53.00,,,,,,,,,,,,0,1,0,,-952,16272,1040,-174,222,-47
19.255,18.87,1.06,0.99,-1.68,0.68,0.51,1.17,-0.39,nan,nan,227.00,887.00,661.00,1017.00,1559.00,3071.00,0.00,48.00,,,,,,,,,,,,0,1,0,,-980,16128,884,-122,238,-15
19.275,18.93,1.03,2.91,-4.18,1.86,-0.89,0.54,0.11,nan,nan,251.00,879.00,698.00,1008.00,1535.00,3106.00,0.00,77.00,,,,,,,,,,,,0,1,0,,-836,16164,800,-96,198,-146
19.316,18.98,1.03,0.33,-1.21,0.29,0.25,1.01,0.35,nan,nan,224.00,899.00,675.00,1040.00,1502.00,3029.00,0.00,59.00,,,,,,,,,,,,0,1,0,,-832,16244,976,-123,215,-143
19.357,19.04,1.06,0.51,-0.43,0.82,0.63,1.63,-0.04,nan,nan,214.00,874.00,655.00,1008.00,1517.00,2987.00,0.00,48.00,,,,,,,,,,,,0,1,0,,-948,16232,804,-70,130,-210
19.42,19.09,1.09,1.89,-1.82,2.19,-0.11,1.68,-0.04,nan,nan,225.00,859.00,665.00,974.00,1516.00,2982.00,0.00,53.00,,,,,,,,,,,,0,1,0,,-960,16284,904,22,87,-146
19.523,19.15,1.10,1.03,-1.20,1.19,0.09,1.33,0.45,nan,nan,221.00,874.00,670.00,1008.00,1485.00,2983.00,0.00,55.00,,,,,,,,,,,,0,1,0,,-824,16116,892,-12,100,-122
19.545,19.20,1.14,0.01,0.26,0.73,1.06,1.93,-0.03,nan,nan,208.00,875.00,641.00,1000.00,1508.00,2951.00,0.00,29.00,,,,,,,,,,,,0,1,0,,-872,16240,868,-14,196,-199
19.586,19.26,1.17,2.04,-1.87,2.56,-0.15,1.71,-0.08,nan,nan,225.00,855.00,662.00,961.00,1518.00,2981.00,0.00,49.00,,,,,,,,,,,,0,1,0,,-980,16112,860,-117,177,-169
19.668,19.31,1.17,1.72,-2.17,2.18,-0.55,1.07,0.52,nan,nan,230.00,873.00,681.00,986.00,1487.00,3009.00,0.00,65.00,,,,,,,,,,,,0,1,0,,-952,16248,768,-201,119,-177
19.687,19.37,1.18,0.18,-0.41,0.87,0.55,1.45,0.11,nan,nan,215.00,885.00,657.00,1008.00,1510.00,2997.00,0.00,51.00,,,,,,,,,,,,0,1,0,,-940,16332,812,-105,57,-273
19.751,19.42,1.20,1.45,-1.34,1.38,0.33,1.62,-0.24,nan,nan,221.00,863.00,659.00,994.00,1534.00,3005.00,0.00,48.00,,,,,,,,,,,,0,1,0,,-1048,16164,772,-14,33,-230
19.812,19.48,1.19,2.48,-3.21,2.23,-0.89,0.86,0.25,nan,nan,240.00,871.00,693.00,993.00,1514.00,3055.00,0.00,77.00,,,,,,,,,,,,0,1,0,,-1008,16100,860,-26,57,-198
19.895,19.53,1.18,0.15,-0.82,0.26,0.40,0.96,0.26,nan,nan,220.00,896.00,670.00,1037.00,1511.00,3043.00,0.00,49.00,,,,,,,,,,,,0,1,0,,-924,16148,872,-84,156,-191
19.917,19.59,1.19,0.59,-0.54,0.63,0.69,1.39,-0.39,nan,nan,215.00,874.00,655.00,1014.00,1553.00,3044.00,0.00,50.00,,,,,,,,,,,,0,1,0,,-908,16160,772,-197,134,-126
19.979,19.64,1.16,2.89,-3.73,2.06,-0.94,0.57,0.10,nan,nan,245.00,869.00,697.00,1001.00,1535.00,3104.00,0.00,70.00,,,,,,,,,,,,0,1,0,,-988,16160,784,-145,161,-133
20.021,19.70,1.12,0.92,-1.41,0.92,-0.07,0.41,0.41,nan,nan,224.00,883.00,679.00,1023.00,1514.00,3098.00,0.00,59.00,,,,,,,,,,,,0,1,0,,-960,16240,884,-82,177,-74
20.082,19.75,1.13,0.25,-0.08,0.44,0.78,1.29,0.02,nan,nan,211.00,875.00,654.00,1019.00,1521.00,3022.00,0.00,42.00,,,,,,,,,,,,0,1,0,,-872,16200,908,-160,171,-157
20.143,19.81,1.14,1.85,-1.97,1.03,1.45,1.32,0.03,nan,nan,227.00,864.00,624.00,978.00,1520.00,3019.00,0.00,58.00,,,,,,,,,,,,0,1,0,,-992,16312,888,1,74,-189
20.248,19.86,1.13,1.14,-1.49,1.81,-0.34,1.06,0.55,nan,nan,224.00,877.00,678.00,995.00,1485.00,3008.00,0.00,63.00,,,,,,,,,,,,0,1,0,,-1040,16160,996,76,-2,-222
20.289,19.92,1.17,0.09,0.23,0.67,0.96,1.81,-0.00,nan,nan,208.00,873.00,645.00,1005.00,1509.00,2963.00,0.00,37.00,,,,,,,,,,,,0,1,0,,-1088,16244,940,-108,60,-135
20.309,19.97,1.19,1.78,-1.78,2.08,-0.02,1.63,-0.08,nan,nan,225.00,862.00,663.00,976.00,1520.00,2990.00,0.00,52.00,,,,,,,,,,,,0,1,0,,-932,16160,808,-47,235,-143
20.351,20.03,1.19,1.87,-2.22,1.98,-0.48,1.27,0.20,nan,nan,230.00,869.00,681.00,992.00,1507.00,3010.00,0.00,71.00,,,,,,,,,,,,0,1,0,,-904,16056,668,-42,189,-124
20.415,20.08,1.20,0.77,-1.53,0.88,0.13,1.37,0.27,nan,nan,226.00,891.00,672.00,1019.00,1499.00,2993.00,0.00,48.00,,,,,,,,,,,,0,1,0,,-944,16248,752,-139,105,-112
20.477,20.14,1.23,1.26,-1.11,1.38,0.33,1.75,-0.30,nan,nan,219.00,864.00,659.00,994.00,1535.00,2994.00,0.00,49.00,,,,,,,,,,,,0,1,0,,-864,16340,996,-122,116,-201
20.519,20.19,1.22,2.88,-3.80,2.49,-0.89,1.09,0.14,nan,nan,246.00,871.00,690.00,983.00,1517.00,3037.00,0.00,74.00,,,,,,,,,,,,0,1,0,,-952,16216,884,-69,59,-233
20.621,20.25,1.21,0.37,-1.14,0.73,0.21,0.97,0.35,nan,nan,223.00,896.00,671.00,1023.00,1503.00,3034.00,0.00,54.00,,,,,,,,,,,,0,1,0,,-960,16220,808,17,33,-232
20.642,20.30,1.22,0.32,-0.28,0.82,0.60,1.42,-0.19,nan,nan,213.00,877.00,656.00,1009.00,1535.00,3024.00,0.00,42.00,,,,,,,,,,,,0,1,0,,-956,16140,880,-58,20,-245
20.683,20.36,1.21,1.79,-2.27,1.97,-0.50,0.95,0.07,nan,nan,231.00,873.00,682.00,993.00,1527.00,3060.00,0.00,61.00,,,,,,,,,,,,0,1,0,,-996,16248,1000,-168,107,-216
20.746,20.41,1.17,0.85,-1.31,1.25,-0.18,0.42,0.51,nan,nan,223.00,883.00,679.00,1013.00,1505.00,3088.00,0.00,62.00,,,,,,,,,,,,0,1,0,,-1096,16300,792,-42,153,-170
20.809,20.47,1.15,0.21,-0.25,0.24,0.94,0.78,0.06,nan,nan,213.00,880.00,651.00,1023.00,1532.00,3081.00,0.00,44.00,,,,,,,,,,,,0,1,0,,-1028,16260,836,16,167,-35
20.87,20.52,1.14,1.96,-2.01,1.64,-0.20,0.92,-0.02,nan,nan,227.00,861.00,675.00,998.00,1535.00,3071.00,0.00,57.00,,,,,,,,,,,,0,1,0,,-932,16104,988,-83,91,-164
20.912,20.58,1.12,1.36,-1.81,1.73,-0.34,0.79,0.48,nan,nan,227.00,877.00,679.00,998.00,1498.00,3046.00,0.00,71.00,,,,,,,,,,,,0,1,0,,-988,16288,708,-104,140,-159
20.995,20.63,1.12,-0.02,0.18,0.85,0.59,1.21,0.19,nan,nan,209.00,878.00,656.00,1008.00,1510.00,3019.00,0.00,54.00,,,,,,,,,,,,0,1,0,,-1004,16232,1024,-95,136,-207
21.017,20.69,1.15,1.44,-1.51,1.47,0.27,1.63,-0.21,nan,nan,223.00,867.00,660.00,992.00,1531.00,3001.00,0.00,49.00,,,,,,,,,,,,0,1,0,,-1048,16236,748,-54,69,-143
21.078,20.74,1.15,2.50,-3.06,2.61,-1.07,1.10,0.10,nan,nan,238.00,867.00,695.00,983.00,1520.00,3039.00,0.00,73.00,,,,,,,,,,,,0,1,0,,-1048,16172,916,-46,130,-112
21.141,20.80,1.15,0.33,-0.97,0.71,0.25,1.12,0.31,nan,nan,221.00,893.00,670.00,1023.00,1502.00,3019.00,0.00,54.00,,,,,,,,,,,,0,1,0,,-1096,16192,860,-69,148,-182
21.202,20.85,1.17,1.07,-1.30,0.98,0.55,1.59,-0.25,nan,nan,222.00,875.00,656.00,1004.00,1535.00,3008.00,0.00,48.00,,,,,,,,,,,,0,1,0,,-1044,16096,744,-101,151,-123
21.244,20.91,1.16,2.83,-3.63,2.23,-0.80,1.04,0.12,nan,nan,244.00,869.00,690.00,991.00,1520.00,3045.00,0.00,80.00,,,,,,,,,,,,0,1,0,,-1052,16224,844,-50,99,-131
21.348,20.96,1.15,0.77,-1.36,1.22,-0.03,0.88,0.38,nan,nan,224.00,887.00,674.00,1010.00,1503.00,3042.00,0.00,63.00,,,,,,,,,,,,0,1,0,,-1020,16156,860,-24,124,-173
21.368,21.02,1.15,0.70,-0.58,0.57,0.74,1.26,-0.03,nan,nan,215.00,871.00,654.00,1015.00,1526.00,3030.00,0.00,43.00,,,,,,,,,,,,0,1,0,,-948,16208,876,-34,116,-170
21.431,21.07,1.14,1.74,-1.77,1.89,0.07,0.87,0.06,nan,nan,225.00,863.00,662.00,981.00,1530.00,3070.00,0.00,62.00,,,,,,,,,,,,0,1,0,,-1032,16100,660,-29,143,-138
21.452,21.13,1.10,0.81,-1.13,1.31,-0.31,0.38,0.49,nan,nan,221.00,880.00,683.00,1014.00,1508.00,3094.00,0.00,66.00,,,,,,,,,,,,0,1,0,,-944,16168,864,-135,168,-107
21.515,21.18,1.08,-0.30,0.63,0.02,0.87,0.70,0.15,nan,nan,205.00,877.00,656.00,1034.00,1527.00,3083.00,0.00,42.00,,,,,,,,,,,,0,1,0,,-984,16132,980,-140,197,-141
21.577,21.24,1.06,1.52,-1.45,1.26,-0.02,0.63,-0.14,nan,nan,222.00,863.00,673.00,1008.00,1553.00,3116.00,0.00,61.00,,,,,,,,,,,,0,1,0,,-980,16176,796,-98,185,-106
21.639,21.29,1.03,1.61,-2.05,1.32,-0.47,0.58,0.11,nan,nan,229.00,874.00,689.00,1018.00,1534.00,3102.00,0.00,78.00,,,,,,,,,,,,0,1,0,,-1048,16160,1016,24,171,-160
21.784,21.35,1.03,0.51,-0.78,0.19,0.28,0.95,0.24,nan,nan,218.00,882.00,675.00,1043.00,1513.00,3046.00,0.00,58.00,,,,,,,,,,,,0,1,0,,-944,16248,892,-9,197,-122
21.805,21.40,1.06,0.96,-0.41,1.13,0.33,1.62,-0.46,nan,nan,212.00,858.00,662.00,1004.00,1552.00,3022.00,0.00,51.00,,,,,,,,,,,,0,1,0,,-932,16264,852,120,312,-185
21.826,21.46,1.06,3.36,-3.51,2.57,-1.16,1.00,0.21,nan,nan,240.00,848.00,699.00,987.00,1514.00,3042.00,0.00,81.00,,,,,,,,,,,,0,1,0,,-960,16084,688,-51,331,-166
21.847,21.51,1.07,-0.28,0.36,1.04,-0.05,1.22,0.32,nan,nan,208.00,883.00,677.00,1018.00,1499.00,3007.00,0.00,64.00,,,,,,,,,,,,0,1,0,,-932,16172,612,-167,263,-155
21.908,21.57,1.09,0.47,0.11,0.90,0.63,1.54,-0.20,nan,nan,208.00,863.00,654.00,1005.00,1533.00,3011.00,0.00,44.00,,,,,,,,,,,,0,1,0,,-1044,16104,632,-124,73,-218
21.949,21.62,1.10,2.00,-1.94,0.08,0.38,1.24,0.02,nan,nan,226.00,858.00,673.00,1045.00,1523.00,3029.00,0.00,57.00,,,,,,,,,,,,0,1,0,,-1016,16256,884,-120,36,-140
22.01,21.68,1.08,0.40,-0.48,1.23,0.10,0.84,0.47,nan,nan,215.00,879.00,669.00,1006.00,1497.00,3040.00,0.00,62.00,,,,,,,,,,,,0,1,0,,-952,16236,816,-81,158,-234
22.094,21.73,1.10,-0.14,0.40,-0.00,1.77,1.34,0.06,nan,nan,207.00,877.00,625.00,1010.00,1517.00,3014.00,0.00,36.00,,,,,,,,,,,,0,1,0,,-936,16200,704,-18,144,-244
22.115,21.79,1.09,1.88,-1.98,1.88,-0.25,0.98,-0.04,nan,nan,227.00,863.00,674.00,990.00,1535.00,3065.00,0.00,59.00,,,,,,,,,,,,0,1,0,,-948,16156,708,58,113,-228
22.176,21.84,1.06,1.17,-1.74,1.41,-0.34,0.45,0.43,nan,nan,227.00,882.00,683.00,1011.00,1511.00,3091.00,0.00,65.00,,,,,,,,,,,,0,1,0,,-1036,16152,748,-77,66,-81
22.239,21.90,1.03,-0.12,-0.22,0.03,0.78,0.57,0.22,nan,nan,214.00,891.00,659.00,1036.00,1525.00,3094.00,0.00,55.00,,,,,,,,,,,,0,1,0,,-1036,16220,876,-156,185,-178
22.282,21.95,1.02,0.48,-1.10,0.75,0.26,0.66,-0.16,nan,nan,222.00,891.00,669.00,1021.00,1554.00,3114.00,0.00,54.00,,,,,,,,,,,,0,1,0,,-976,16228,896,-208,174,-145
22.343,22.01,0.98,1.81,-2.99,1.37,-0.73,0.24,0.21,nan,nan,240.00,889.00,698.00,1023.00,1535.00,3135.00,0.00,81.00,,,,,,,,,,,,0,1,0,,-944,16284,812,-81,138,-173
22.465,22.06,0.96,-0.14,-1.06,0.04,0.23,0.55,0.28,nan,nan,224.00,912.00,679.00,1051.00,1520.00,3090.00,0.00,62.00,,,,,,,,,,,,0,1,0,,-952,16068,808,-85,101,-250
22.486,22.12,0.98,0.33,-0.46,0.77,0.45,1.39,-0.42,nan,nan,215.00,881.00,662.00,1015.00,1555.00,3046.00,0.00,48.00,,,,,,,,,,,,0,1,0,,-972,16348,872,-60,82,-178
22.507,22.17,0.98,2.48,-3.59,2.10,-0.74,0.97,0.06,nan,nan,245.00,880.00,689.00,994.00,1527.00,3058.00,0.00,79.00,,,,,,,,,,,,0,1,0,,-996,16112,1152,-31,123,-166
22.549,22.23,0.97,0.26,-0.77,1.24,-0.09,0.91,0.37,nan,nan,219.00,891.00,676.00,1011.00,1503.00,3040.00,0.00,64.00,,,,,,,,,,,,0,1,0,,-1144,16208,904,-56,172,-148
22.612,22.28,0.99,0.55,-0.53,0.89,0.61,1.31,0.07,nan,nan,215.00,875.00,655.00,1006.00,1517.00,3017.00,0.00,44.00,,,,,,,,,,,,0,1,0,,-972,16136,888,-93,168,-87
22.675,22.34,1.00,1.30,-1.37,2.16,-0.21,1.10,0.09,nan,nan,222.00,869.00,669.00,978.00,1521.00,3040.00,0.00,61.00,,,,,,,,,,,,0,1,0,,-904,16104,792,-114,143,-143
22.737,22.39,0.98,0.88,-1.40,1.35,-0.08,0.73,0.44,nan,nan,224.00,884.00,674.00,1006.00,1502.00,3055.00,0.00,64.00,,,,,,,,,,,,0,1,0,,-964,16216,864,-106,129,-92
22.818,22.45,0.99,-0.17,0.32,0.38,0.95,1.14,0.09,nan,nan,208.00,880.00,649.00,1017.00,1520.00,3035.00,0.00,43.00,,,,,,,,,,,,0,1,0,,-996,16336,736,1,143,-243
22.839,22.50,0.99,1.44,-1.67,1.69,-0.05,1.00,-0.05,nan,nan,225.00,871.00,669.00,992.00,1535.00,3063.00,0.00,53.00,,,,,,,,,,,,0,1,0,,-968,16104,632,55,65,-203
22.901,22.56,0.96,1.87,-2.77,1.62,-0.55,0.47,0.18,nan,nan,237.00,882.00,688.00,1008.00,1531.00,3109.00,0.00,76.00,,,,,,,,,,,,0,1,0,,-1064,16148,820,-34,46,-158
22.944,22.61,0.94,0.08,-0.96,0.20,0.20,0.47,0.24,nan,nan,222.00,902.00,678.00,1045.00,1526.00,3104.00,0.00,62.00,,,,,,,,,,,,0,1,0,,-968,16112,764,-127,103,-174
23.089,22.67,0.93,0.85,-1.31,0.84,0.21,0.77,-0.33,nan,nan,223.00,883.00,670.00,1019.00,1565.00,3114.00,0.00,53.00,,,,,,,,,,,,0,1,0,,-1104,16184,904,-218,156,-136
23.111,22.72,0.88,2.54,-3.76,1.72,-0.95,-0.13,0.33,nan,nan,247.00,882.00,702.00,1015.00,1535.00,3171.00,0.00,80.00,,,,,,,,,,,,0,1,0,,-1124,16112,836,-161,182,-95
23.131,22.78,0.84,0.18,-1.33,0.05,0.03,0.01,0.29,nan,nan,226.00,907.00,686.00,1056.00,1535.00,3157.00,0.00,62.00,,,,,,,,,,,,0,1,0,,-1088,16284,736,-83,243,-57
23.194,22.83,0.84,0.21,-0.25,0.37,0.75,0.94,-0.29,nan,nan,213.00,880.00,656.00,1023.00,1557.00,3090.00,0.00,48.00,,,,,,,,,,,,0,1,0,,-996,16212,928,-124,256,-162
23.215,22.89,0.84,1.61,-2.13,1.65,-0.26,0.72,0.05,nan,nan,230.00,876.00,677.00,999.00,1535.00,3089.00,0.00,64.00,,,,,,,,,,,,0,1,0,,-980,16332,744,-64,129,-167
23.278,22.94,0.82,0.59,-0.80,1.26,-0.13,0.54,0.53,nan,nan,218.00,880.00,677.00,1011.00,1500.00,3071.00,0.00,66.00,,,,,,,,,,,,0,1,0,,-984,16080,768,40,30,-152
23.338,23.00,0.84,0.05,0.25,0.45,0.92,1.19,0.08,nan,nan,208.00,874.00,649.00,1015.00,1519.00,3030.00,0.00,43.00,,,,,,,,,,,,0,1,0,,-932,16172,824,-23,73,-156
23.4,23.05,0.85,2.19,-2.01,1.89,-0.01,0.97,0.02,nan,nan,226.00,853.00,665.00,983.00,1530.00,3061.00,0.00,54.00,,,,,,,,,,,,0,1,0,,-972,16232,740,-84,184,-91
23.441,23.11,0.83,1.33,-1.63,1.51,-0.35,0.47,0.47,nan,nan,225.00,874.00,682.00,1007.00,1507.00,3085.00,0.00,66.00,,,,,,,,,,,,0,1,0,,-1064,16260,840,-140,212,-164
23.504,23.16,0.83,0.77,-1.12,-0.81,2.49,0.87,0.09,nan,nan,221.00,881.00,610.00,1023.00,1527.00,3067.00,0.00,64.00,,,,,,,,,,,,0,1,0,,-828,16216,888,-154,175,-82
23.571,23.22,0.84,0.48,-0.51,0.89,0.38,1.15,-0.36,nan,nan,215.00,877.00,663.00,1012.00,1557.00,3071.00,0.00,53.00,,,,,,,,,,,,0,1,0,,-1000,16216,856,-2,142,-142
23.61,23.27,0.82,2.63,-3.26,1.73,-0.85,0.27,0.32,nan,nan,240.00,867.00,698.00,1012.00,1525.00,3122.00,0.00,80.00,,,,,,,,,,,,0,1,0,,-936,16184,756,47,89,-120
23.692,23.33,0.79,0.11,-0.72,0.15,0.24,0.40,0.30,nan,nan,219.00,895.00,677.00,1046.00,1523.00,3108.00,0.00,64.00,,,,,,,,,,,,0,1,0,,-868,16148,764,-1,85,-170
23.713,23.38,0.80,0.47,-0.42,0.64,0.49,0.83,-0.32,nan,nan,214.00,875.00,662.00,1019.00,1563.00,3107.00,0.00,47.00,,,,,,,,,,,,0,1,0,,-932,16124,816,-63,118,-141
23.773,23.44,0.76,2.54,-3.39,1.88,-1.01,0.06,0.27,nan,nan,242.00,873.00,702.00,1010.00,1535.00,3152.00,0.00,70.00,,,,,,,,,,,,0,1,0,,-980,16212,884,-139,164,-164
23.834,23.49,0.72,0.40,-0.82,0.43,0.04,-0.09,0.38,nan,nan,219.00,887.00,681.00,1040.00,1530.00,3162.00,0.00,65.00,,,,,,,,,,,,0,1,0,,-1012,16200,868,-116,150,-145
23.94,23.55,0.69,-0.09,0.21,-0.28,0.94,0.23,0.01,nan,nan,209.00,880.00,657.00,1044.00,1552.00,3153.00,0.00,48.00,,,,,,,,,,,,0,1,0,,-996,16244,864,-120,121,-82
23.961,23.60,0.67,1.77,-1.86,1.42,-0.40,0.22,0.22,nan,nan,226.00,864.00,685.00,1012.00,1535.00,3137.00,0.00,64.00,,,,,,,,,,,,0,1,0,,-828,16216,976,-196,62,-219
24.001,23.66,0.64,0.44,-0.41,0.87,-0.32,0.09,0.59,nan,nan,214.00,876.00,689.00,1032.00,1508.00,3122.00,0.00,69.00,,,,,,,,,,,,0,1,0,,-1056,16264,740,-71,88,-244
24.064,23.71,0.65,-0.06,0.28,-0.19,1.02,0.85,0.10,nan,nan,208.00,877.00,653.00,1038.00,1527.00,3069.00,0.00,48.00,,,,,,,,,,,,0,1,0,,-984,16132,940,28,51,-129
24.125,23.77,0.66,1.15,-0.91,1.16,0.21,0.93,-0.02,nan,nan,217.00,863.00,666.00,1006.00,1535.00,3070.00,0.00,57.00,,,,,,,,,,,,0,1,0,,-988,16304,832,2,59,-155
24.167,23.82,0.66,2.00,-2.58,1.66,-0.64,0.47,0.25,nan,nan,234.00,873.00,691.00,1009.00,1525.00,3103.00,0.00,80.00,,,,,,,,,,,,0,1,0,,-932,16220,608,-29,139,-130
24.292,23.88,0.65,0.18,-0.58,0.05,0.36,0.59,0.27,nan,nan,217.00,889.00,674.00,1047.00,1520.00,3087.00,0.00,64.00,,,,,,,,,,,,0,1,0,,-1100,16172,804,-100,101,-220
24.313,23.93,0.67,1.11,-1.15,1.01,0.07,1.00,-0.28,nan,nan,220.00,870.00,673.00,1016.00,1555.00,3083.00,0.00,54.00,,,,,,,,,,,,0,1,0,,-1036,16216,1000,-121,22,-136
24.396,23.99,0.66,2.33,-3.16,1.89,-0.98,0.40,0.16,nan,nan,240.00,875.00,701.00,1009.00,1535.00,3120.00,0.00,81.00,,,,,,,,,,,,0,1,0,,-1056,16196,908,-39,76,-181
24.438,24.04,0.64,-0.23,-0.18,0.14,0.22,0.38,0.35,nan,nan,214.00,894.00,678.00,1047.00,1520.00,3107.00,0.00,65.00,,,,,,,,,,,,0,1,0,,-1016,16120,796,5,78,-199
24.458,24.10,0.64,0.13,-0.05,-0.14,0.92,0.62,0.08,nan,nan,211.00,878.00,656.00,1039.00,1535.00,3099.00,0.00,28.00,,,,,,,,,,,,0,1,0,,-1152,16092,788,-12,21,-186
24.499,24.15,0.62,1.88,-2.06,1.57,-0.40,0.28,0.19,nan,nan,228.00,865.00,683.00,1006.00,1535.00,3131.00,0.00,71.00,,,,,,,,,,,,0,1,0,,-1124,16068,900,-107,9,-171
24.561,24.21,0.58,0.51,-0.69,0.64,-0.19,-0.16,0.52,nan,nan,217.00,880.00,687.00,1038.00,1520.00,3158.00,0.00,70.00,,,,,,,,,,,,0,1,0,,-1132,16168,764,-142,163,-162
24.645,24.26,0.56,-0.28,0.36,-0.52,1.05,0.21,0.22,nan,nan,208.00,883.00,656.00,1051.00,1535.00,3138.00,0.00,48.00,,,,,,,,,,,,0,1,0,,-1084,16248,840,-79,210,-161
24.665,24.32,0.54,1.58,-1.80,1.16,-0.42,0.12,-0.11,nan,nan,226.00,869.00,689.00,1023.00,1565.00,3177.00,0.00,68.00,,,,,,,,,,,,0,1,0,,-968,16128,716,-19,214,-62
24.705,24.37,0.52,1.53,-2.19,0.62,-0.35,0.11,0.03,nan,nan,231.00,880.00,693.00,1043.00,1554.00,3167.00,0.00,79.00,,,,,,,,,,,,0,1,0,,-984,16124,928,-111,129,-77
24.767,24.43,0.51,0.62,-1.15,0.01,0.13,0.34,0.28,nan,nan,222.00,887.00,683.00,1055.00,1526.00,3116.00,0.00,64.00,,,,,,,,,,,,0,1,0,,-880,16308,984,-90,217,-108
24.807,24.48,0.54,0.74,-0.77,0.38,0.33,0.98,-0.35,nan,nan,217.00,874.00,671.00,1034.00,1561.00,3091.00,0.00,62.00,,,,,,,,,,,,0,1,0,,-1008,16116,920,24,174,-142
24.87,24.54,0.52,2.57,-3.16,1.63,-0.82,0.29,0.35,nan,nan,239.00,867.00,698.00,1015.00,1522.00,3117.00,0.00,80.00,,,,,,,,,,,,0,1,0,,-1008,16204,780,43,166,-131
24.933,24.59,0.52,0.62,-1.40,0.11,0.12,0.47,0.37,nan,nan,225.00,893.00,682.00,1051.00,1515.00,3093.00,0.00,61.00,,,,,,,,,,,,0,1,0,,-1048,16184,924,-40,181,-112
25.037,24.65,0.54,0.24,0.18,0.11,0.70,0.92,-0.02,nan,nan,208.00,869.00,661.00,1035.00,1535.00,3071.00,0.00,48.00,,,,,,,,,,,,0,1,0,,-1052,16028,744,-107,131,-145
25.058,24.70,0.55,2.67,-2.89,1.56,-0.53,0.68,0.06,nan,nan,235.00,857.00,688.00,1010.00,1535.00,3093.00,0.00,65.00,,,,,,,,,,,,0,1,0,,-1008,16224,720,-163,134,-83
25.1,24.76,0.53,0.40,-0.40,0.76,-0.23,0.24,0.53,nan,nan,214.00,877.00,687.00,1034.00,1509.00,3109.00,0.00,67.00,,,,,,,,,,,,0,1,0,,-1008,16220,724,-70,166,-186
25.163,24.81,0.54,-0.38,0.84,-0.17,0.94,0.76,0.07,nan,nan,203.00,875.00,656.00,1040.00,1532.00,3083.00,0.00,47.00,,,,,,,,,,,,0,1,0,,-1176,16288,692,-10,126,-164
25.224,24.87,0.53,1.75,-1.61,1.34,-0.10,0.37,0.17,nan,nan,223.00,859.00,675.00,1007.00,1535.00,3123.00,0.00,63.00,,,,,,,,,,,,0,1,0,,-976,16244,680,44,40,-189
25.246,24.92,0.50,1.14,-1.49,0.60,-0.20,-0.10,0.52,nan,nan,224.00,877.00,688.00,1040.00,1519.00,3151.00,0.00,75.00,,,,,,,,,,,,0,1,0,,-1008,16160,700,23,-40,-148
25.308,24.98,0.48,-0.17,0.32,-0.48,0.79,0.13,0.25,nan,nan,208.00,880.00,665.00,1057.00,1535.00,3146.00,0.00,60.00,,,,,,,,,,,,0,1,0,,-1056,16216,740,-73,72,-220
25.391,25.03,0.48,0.66,-0.91,-0.01,0.41,0.35,-0.29,nan,nan,219.00,880.00,673.00,1048.00,1574.00,3164.00,0.00,62.00,,,,,,,,,,,,0,1,0,,-1064,16188,948,-96,157,-209
25.412,25.09,0.45,1.98,-2.81,1.11,-1.04,-0.12,-0.15,nan,nan,237.00,879.00,713.00,1042.00,1575.00,3210.00,0.00,86.00,,,,,,,,,,,,0,1,0,,-1060,16228,724,-87,222,-171
25.475,25.14,0.42,-0.18,-0.54,-0.88,0.29,-0.05,0.31,nan,nan,218.00,901.00,688.00,1088.00,1535.00,3163.00,0.00,59.00,,,,,,,,,,,,0,1,0,,-972,16152,856,-151,193,-279
25.537,25.20,0.44,0.63,-0.56,0.20,0.20,0.81,-0.34,nan,nan,215.00,873.00,678.00,1045.00,1565.00,3111.00,0.00,50.00,,,,,,,,,,,,0,1,0,,-936,16252,864,-117,141,-209
25.641,25.25,0.44,2.82,-3.40,1.69,-1.13,0.32,0.18,nan,nan,241.00,864.00,709.00,1021.00,1535.00,3127.00,0.00,80.00,,,,,,,,,,,,0,1,0,,-1004,16132,744,-15,45,-229
25.662,25.31,0.44,0.40,-0.65,0.14,0.00,0.47,0.37,nan,nan,217.00,883.00,686.00,1053.00,1515.00,3093.00,0.00,63.00,,,,,,,,,,,,0,1,0,,-1084,16216,932,17,57,-153
25.766,25.36,0.46,0.62,-0.21,-0.10,0.83,0.97,0.01,nan,nan,211.00,865.00,659.00,1040.00,1531.00,3062.00,0.00,45.00,,,,,,,,,,,,0,1,0,,-1088,16160,752,-20,212,-103
25.786,25.42,0.47,1.64,-1.49,-0.08,0.27,0.67,0.11,nan,nan,222.00,860.00,679.00,1055.00,1531.00,3090.00,0.00,65.00,,,,,,,,,,,,0,1,0,,-1112,16208,700,-107,243,-167
25.806,25.47,0.48,0.92,-1.17,0.78,-0.29,0.50,0.30,nan,nan,221.00,877.00,689.00,1035.00,1520.00,3095.00,0.00,70.00,,,,,,,,,,,,0,1,0,,-1092,16288,684,-124,205,-98
25.868,25.53,0.48,-0.26,0.71,-0.33,0.99,0.50,0.66,nan,nan,204.00,874.00,656.00,1045.00,1491.00,3066.00,0.00,50.00,,,,,,,,,,,,0,1,0,,-896,16220,656,-50,107,-226
25.91,25.58,0.49,1.34,-1.14,0.47,0.16,0.68,0.06,nan,nan,219.00,862.00,676.00,1035.00,1535.00,3093.00,0.00,61.00,,,,,,,,,,,,0,1,0,,-1076,16136,788,5,96,-231
25.973,25.64,0.47,1.47,-1.84,0.81,-0.51,0.16,0.26,nan,nan,227.00,874.00,697.00,1040.00,1533.00,3141.00,0.00,82.00,,,,,,,,,,,,0,1,0,,-1124,16172,664,-13,54,-165
26.036,25.69,0.46,0.22,-0.85,-0.54,0.34,0.21,0.27,nan,nan,220.00,894.00,682.00,1072.00,1531.00,3134.00,0.00,60.00,,,,,,,,,,,,0,1,0,,-1192,16176,856,-103,151,-176
26.139,25.75,0.47,0.63,-0.81,0.15,0.24,0.62,-0.37,nan,nan,218.00,879.00,677.00,1046.00,1573.00,3137.00,0.00,64.00,,,,,,,,,,,,0,1,0,,-1096,16268,936,-225,217,-156
26.161,25.80,0.43,2.39,-3.34,0.95,-0.72,-0.18,0.15,nan,nan,242.00,877.00,703.00,1040.00,1552.00,3193.00,0.00,86.00,,,,,,,,,,,,0,1,0,,-1104,16176,728,-189,150,-164
26.201,25.86,0.40,0.11,-0.98,-0.61,0.20,-0.27,0.38,nan,nan,222.00,901.00,688.00,1079.00,1535.00,3184.00,0.00,65.00,,,,,,,,,,,,0,1,0,,-1060,16160,788,-99,144,-55
26.264,25.91,0.40,0.25,-0.26,-0.65,0.68,0.53,-0.27,nan,nan,213.00,879.00,671.00,1067.00,1567.00,3139.00,0.00,48.00,,,,,,,,,,,,0,1,0,,-1036,16252,844,-172,170,-182
26.305,25.97,0.39,1.81,-1.88,0.97,-0.14,0.19,0.23,nan,nan,226.00,863.00,681.00,1023.00,1535.00,3140.00,0.00,69.00,,,,,,,,,,,,0,1,0,,-1024,16216,876,-196,183,-118
26.347,26.02,0.38,0.70,-0.75,0.71,-0.29,0.06,0.60,nan,nan,217.00,875.00,690.00,1038.00,1508.00,3125.00,0.00,65.00,,,,,,,,,,,,0,1,0,,-1040,16192,888,-61,122,-187
26.409,26.08,0.41,-0.38,0.84,-0.31,0.95,0.95,0.12,nan,nan,203.00,875.00,657.00,1045.00,1523.00,3056.00,0.00,48.00,,,,,,,,,,,,0,1,0,,-992,16240,756,-19,54,-124
26.489,26.13,0.43,1.46,-1.09,1.34,-0.10,0.81,0.04,nan,nan,218.00,857.00,675.00,1007.00,1533.00,3079.00,0.00,64.00,,,,,,,,,,,,0,1,0,,-1100,16264,900,-38,136,-131
26.51,26.19,0.43,1.30,-1.37,0.76,-0.26,0.45,0.39,nan,nan,222.00,869.00,688.00,1035.00,1514.00,3094.00,0.00,73.00,,,,,,,,,,,,0,1,0,,-1136,16116,856,-87,159,-198
26.571,26.24,0.44,0.48,-0.76,-0.10,0.33,0.61,0.27,nan,nan,218.00,883.00,677.00,1054.00,1520.00,3085.00,0.00,64.00,,,,,,,,,,,,0,1,0,,-1008,16092,828,-135,164,-118
26.632,26.30,0.46,0.81,-0.88,0.17,0.43,0.97,-0.24,nan,nan,218.00,874.00,670.00,1040.00,1552.00,3083.00,0.00,64.00,,,,,,,,,,,,0,1,0,,-1072,16272,836,-93,158,-102
26.695,26.35,0.45,2.59,-3.63,0.88,-0.72,0.28,0.29,nan,nan,245.00,877.00,704.00,1043.00,1527.00,3123.00,0.00,89.00,,,,,,,,,,,,0,1,0,,-964,16268,792,-77,186,-161
26.756,26.41,0.44,-0.04,-0.59,-1.34,1.70,0.28,0.34,nan,nan,218.00,897.00,643.00,1067.00,1523.00,3119.00,0.00,67.00,,,,,,,,,,,,0,1,0,,-1000,16200,796,-81,119,-140
26.818,26.46,0.45,0.40,-0.40,-0.21,0.67,0.64,-0.14,nan,nan,214.00,877.00,666.00,1049.00,1553.00,3115.00,0.00,60.00,,,,,,,,,,,,0,1,0,,-964,16156,868,-120,130,-196
26.963,26.52,0.44,2.75,-3.30,1.51,-0.85,0.06,0.27,nan,nan,240.00,864.00,701.00,1021.00,1535.00,3152.00,0.00,75.00,,,,,,,,,,,,0,1,0,,-1076,16140,864,-78,167,-127
26.983,26.57,0.40,0.99,-1.68,0.12,-0.07,-0.23,0.55,nan,nan,227.00,887.00,689.00,1056.00,1520.00,3165.00,0.00,74.00,,,,,,,,,,,,0,1,0,,-976,16116,976,-113,154,-210
27.004,26.63,0.40,-0.09,0.12,1.41,0.40,0.27,-0.01,nan,nan,210.00,882.00,656.00,991.00,1552.00,3149.00,0.00,48.00,,,,,,,,,,,,0,1,0,,-1124,16260,844,-105,86,-155
27.026,26.68,0.38,1.43,-1.75,0.59,-0.12,0.02,-0.12,nan,nan,226.00,873.00,685.00,1038.00,1569.00,3191.00,0.00,71.00,,,,,,,,,,,,0,1,0,,-1144,16260,928,-78,220,-88
27.089,26.74,0.35,1.27,-2.10,0.15,-0.19,-0.10,0.48,nan,nan,231.00,887.00,693.00,1058.00,1522.00,3154.00,0.00,74.00,,,,,,,,,,,,0,1,0,,-1192,16168,788,-173,246,-61
27.149,26.79,0.36,-0.28,0.18,-0.36,0.63,0.42,0.26,nan,nan,210.00,887.00,669.00,1056.00,1526.00,3109.00,0.00,62.00,,,,,,,,,,,,0,1,0,,-1064,16232,772,-95,197,-114
27.232,26.85,0.37,0.78,-0.86,-0.09,0.60,0.66,0.07,nan,nan,218.00,875.00,667.00,1046.00,1535.00,3095.00,0.00,64.00,,,,,,,,,,,,0,1,0,,-996,16140,848,-54,96,-75
27.253,26.90,0.35,2.15,-3.10,1.42,-0.80,-0.10,0.90,nan,nan,240.00,880.00,700.00,1023.00,1488.00,3119.00,0.00,82.00,,,,,,,,,,,,0,1,0,,-912,16216,848,-73,70,-150
27.294,26.96,0.35,-0.18,-0.88,-0.20,0.34,0.44,0.32,nan,nan,222.00,909.00,678.00,1058.00,1520.00,3101.00,0.00,66.00,,,,,,,,,,,,0,1,0,,-1008,16272,856,-79,87,-243
27.357,27.01,0.38,0.33,-0.63,0.06,0.55,0.96,-0.26,nan,nan,217.00,885.00,667.00,1041.00,1554.00,3086.00,0.00,56.00,,,,,,,,,,,,0,1,0,,-1124,16168,944,-245,-8,-275
27.42,27.07,0.38,2.51,-3.68,1.61,-0.97,0.28,0.21,nan,nan,246.00,881.00,704.00,1020.00,1534.00,3130.00,0.00,80.00,,,,,,,,,,,,0,1,0,,-1140,16212,1048,-195,50,-226
27.482,27.12,0.37,0.33,-1.21,1.13,-0.19,0.29,0.37,nan,nan,224.00,899.00,681.00,1018.00,1520.00,3115.00,0.00,65.00,,,,,,,,,,,,0,1,0,,-1124,16124,1076,-66,167,-169
27.523,27.18,0.39,0.33,-0.97,-0.58,1.07,0.63,0.08,nan,nan,221.00,893.00,656.00,1053.00,1535.00,3098.00,0.00,79.00,,,,,,,,,,,,0,1,0,,-1132,16152,868,-27,171,-235
27.607,27.23,0.38,1.60,-2.29,1.41,-0.42,0.22,0.22,nan,nan,232.00,880.00,686.00,1013.00,1535.00,3137.00,0.00,66.00,,,,,,,,,,,,0,1,0,,-1032,16248,744,-41,83,-148
27.628,27.29,0.35,0.83,-1.79,0.38,-0.13,-0.16,0.52,nan,nan,229.00,895.00,688.00,1047.00,1520.00,3158.00,0.00,78.00,,,,,,,,,,,,0,1,0,,-1108,16160,968,-65,72,-162
27.669,27.34,0.34,-0.56,0.10,-0.88,1.06,0.12,0.25,nan,nan,212.00,899.00,660.00,1066.00,1535.00,3147.00,0.00,51.00,,,,,,,,,,,,0,1,0,,-960,16136,916,-104,73,-54
27.73,27.40,0.33,0.14,-0.13,-0.08,0.27,0.06,-0.05,nan,nan,212.00,880.00,679.00,1055.00,1562.00,3180.00,0.00,64.00,,,,,,,,,,,,0,1,0,,-1120,16204,692,-13,97,-132
27.794,27.45,0.29,1.04,-2.26,0.30,-0.58,-0.39,0.20,nan,nan,234.00,899.00,706.00,1063.00,1554.00,3216.00,0.00,79.00,,,,,,,,,,,,0,1,0,,-1124,16192,708,115,111,-90
27.856,27.51,0.27,-1.11,-1.38,-0.88,0.29,-0.07,0.31,nan,nan,232.00,956.00,688.00,1088.00,1535.00,3165.00,0.00,61.00,,,,,,,,,,,,0,1,0,,-1080,16064,836,-147,105,-181
27.918,27.56,0.30,-0.15,-2.33,-0.20,0.34,0.75,-0.37,nan,nan,240.00,944.00,678.00,1058.00,1569.00,3120.00,0.00,64.00,,,,,,,,,,,,0,1,0,,-1116,16192,804,-167,229,-93
27.96,27.62,0.28,1.57,-4.31,1.11,-1.06,0.06,0.27,nan,nan,259.00,930.00,714.00,1043.00,1535.00,3152.00,0.00,92.00,,,,,,,,,,,,0,1,0,,-1112,16164,804,-73,265,-115
28.021,27.67,0.28,-0.53,-1.81,-0.35,0.06,0.22,0.42,nan,nan,235.00,945.00,690.00,1072.00,1518.00,3120.00,0.00,64.00,,,,,,,,,,,,0,1,0,,-996,16208,876,-25,184,-4
28.063,27.73,0.30,-0.72,-0.44,-0.98,1.66,0.69,0.07,nan,nan,219.00,918.00,640.00,1053.00,1534.00,3091.00,0.00,55.00,,,,,,,,,,,,0,1,0,,-1076,16208,736,-62,172,-96
28.105,27.78,0.31,1.10,-2.52,0.74,-0.09,0.40,0.16,nan,nan,237.00,903.00,682.00,1031.00,1535.00,3120.00,0.00,73.00,,,,,,,,,,,,0,1,0,,-1044,16120,872,-187,181,-168
28.189,27.84,0.29,0.22,-1.58,0.31,-0.24,0.00,0.72,nan,nan,229.00,912.00,693.00,1053.00,1500.00,3122.00,0.00,70.00,,,,,,,,,,,,0,1,0,,-1004,16252,860,-148,188,-93
28.229,27.89,0.31,-1.31,0.70,-0.77,0.97,0.70,0.05,nan,nan,208.00,911.00,662.00,1064.00,1535.00,3091.00,0.00,47.00,,,,,,,,,,,,0,1,0,,-964,16228,904,-56,137,-155
28.374,27.95,0.34,0.99,-1.68,0.73,-0.22,0.83,-0.23,nan,nan,227.00,887.00,687.00,1035.00,1555.00,3099.00,0.00,69.00,,,,,,,,,,,,0,1,0,,-928,16276,792,49,115,-153
28.413,28.00,0.32,0.51,-1.44,0.37,-0.47,0.02,0.33,nan,nan,226.00,898.00,701.00,1057.00,1531.00,3152.00,0.00,78.00,,,,,,,,,,,,0,1,0,,-1028,16224,836,97,82,-152
28.434,28.06,0.32,-0.26,-0.52,-0.55,0.18,0.36,-0.16,nan,nan,218.00,903.00,688.00,1077.00,1563.00,3152.00,0.00,75.00,,,,,,,,,,,,0,1,0,,-1152,16228,892,91,101,-104
28.455,28.11,0.33,-0.11,-0.74,-0.22,0.04,0.52,-0.57,nan,nan,220.00,903.00,689.00,1067.00,1593.00,3166.00,0.00,71.00,,,,,,,,,,,,0,1,0,,-1084,16324,884,176,376,-74
28.496,28.17,0.30,0.66,-3.65,0.89,-1.17,-0.32,0.06,nan,nan,254.00,947.00,721.00,1055.00,1563.00,3218.00,0.00,96.00,,,,,,,,,,,,0,1,0,,-944,16184,508,331,527,-187
28.559,28.22,0.27,-1.57,-2.60,-0.92,0.25,-0.37,0.19,nan,nan,250.00,1006.00,690.00,1091.00,1554.00,3214.00,0.00,71.00,,,,,,,,,,,,0,1,0,,-1044,16188,536,205,401,-125
28.621,28.28,0.27,0.91,-5.66,-0.38,0.29,0.26,-0.38,nan,nan,282.00,990.00,682.00,1067.00,1584.00,3182.00,0.00,59.00,,,,,,,,,,,,0,1,0,,-968,16220,520,-89,238,-276
28.702,28.33,0.27,0.40,-3.85,0.95,-0.72,0.27,-0.09,nan,nan,258.00,962.00,703.00,1040.00,1559.00,3156.00,0.00,71.00,,,,,,,,,,,,0,1,0,,-1028,16188,740,-36,241,-124
28.724,28.39,0.25,-0.73,-2.13,0.53,-0.21,-0.00,0.47,nan,nan,240.00,961.00,689.00,1043.00,1520.00,3143.00,0.00,70.00,,,,,,,,,,,,0,1,0,,-1116,16184,600,95,152,-101
28.784,28.44,0.28,-1.17,-0.46,-0.17,0.82,0.71,0.07,nan,nan,221.00,935.00,660.00,1043.00,1533.00,3088.00,0.00,51.00,,,,,,,,,,,,0,1,0,,-1148,16308,744,164,19,-9
28.825,28.50,0.29,0.53,-2.17,1.66,-0.54,0.50,0.12,nan,nan,235.00,915.00,687.00,1006.00,1535.00,3110.00,0.00,66.00,,,,,,,,,,,,0,1,0,,-1028,16076,644,243,107,-111
28.888,28.55,0.28,-0.14,-1.86,0.76,-0.34,0.09,0.48,nan,nan,234.00,932.00,691.00,1037.00,1517.00,3131.00,0.00,80.00,,,,,,,,,,,,0,1,0,,-1128,16016,648,-51,352,-68
28.949,28.61,0.29,-1.75,0.59,-0.06,0.59,0.53,0.15,nan,nan,211.00,930.00,667.00,1045.00,1532.00,3104.00,0.00,67.00,,,,,,,,,,,,0,1,0,,-1024,16136,528,-209,516,-42
28.992,28.66,0.31,-0.50,-0.69,0.62,0.09,0.74,-0.20,nan,nan,221.00,916.00,677.00,1031.00,1555.00,3107.00,0.00,67.00,,,,,,,,,,,,0,1,0,,-924,16164,552,-180,534,184
29.075,28.72,0.31,1.25,-3.10,1.51,-0.94,0.20,0.22,nan,nan,244.00,912.00,704.00,1023.00,1535.00,3139.00,0.00,106.00,,,,,,,,,,,,0,1,0,,-872,16184,456,-398,515,-34
29.094,28.77,0.31,-1.46,-0.20,-0.29,0.15,0.28,0.26,nan,nan,219.00,939.00,686.00,1067.00,1530.00,3126.00,0.00,66.00,,,,,,,,,,,,0,1,0,,-924,16148,504,-670,309,-95
29.157,28.83,0.33,-0.58,-0.41,0.18,0.46,0.71,-0.35,nan,nan,218.00,912.00,669.00,1039.00,1569.00,3124.00,0.00,63.00,,,,,,,,,,,,0,1,0,,-948,16220,840,-625,157,-192
29.217,28.88,0.31,1.44,-3.39,1.74,-0.99,-0.03,0.30,nan,nan,247.00,912.00,703.00,1015.00,1535.00,3161.00,0.00,80.00,,,,,,,,,,,,0,1,0,,-936,16204,1108,-498,327,-180
29.28,28.94,0.29,-1.16,0.04,0.51,-0.15,-0.10,0.39,nan,nan,215.00,922.00,687.00,1042.00,1530.00,3163.00,0.00,73.00,,,,,,,,,,,,0,1,0,,-976,16220,880,-615,415,-43
29.342,28.99,0.29,-1.37,0.64,-0.34,0.94,0.30,-0.05,nan,nan,209.00,915.00,658.00,1047.00,1555.00,3149.00,0.00,50.00,,,,,,,,,,,,0,1,0,,-840,16096,836,-629,422,-73
29.465,29.05,0.29,0.08,-1.13,1.00,-0.07,0.29,-0.10,nan,nan,224.00,906.00,678.00,1020.00,1559.00,3154.00,0.00,74.00,,,,,,,,,,,,0,1,0,,-860,16104,1028,-503,269,-189
29.486,29.10,0.28,-0.32,-0.91,1.21,-0.49,0.15,0.44,nan,nan,223.00,915.00,691.00,1023.00,1518.00,3126.00,0.00,71.00,,,,,,,,,,,,0,1,0,,-860,16164,952,-279,311,-145
29.508,29.16,0.31,-1.34,0.72,-0.22,1.01,0.74,0.04,nan,nan,208.00,912.00,654.00,1040.00,1535.00,3088.00,0.00,48.00,,,,,,,,,,,,0,1,0,,-992,16148,1132,-342,262,-193
29.547,29.21,0.34,-0.15,-0.47,1.26,-0.02,0.97,-0.04,nan,nan,217.00,898.00,673.00,1008.00,1535.00,3066.00,0.00,64.00,,,,,,,,,,,,0,1,0,,-988,16220,992,-578,249,-170
29.61,29.27,0.34,1.08,-2.19,1.62,-0.55,0.46,0.32,nan,nan,233.00,896.00,688.00,1008.00,1520.00,3099.00,0.00,90.00,,,,,,,,,,,,0,1,0,,-988,16272,1340,-607,271,-219
29.692,29.32,0.37,-0.89,0.12,0.36,0.26,0.83,0.23,nan,nan,213.00,910.00,674.00,1037.00,1517.00,3061.00,0.00,64.00,,,,,,,,,,,,0,1,0,,-952,16344,1396,-323,344,-285
29.732,29.38,0.41,-0.34,0.03,0.81,0.46,1.13,-0.09,nan,nan,212.00,893.00,661.00,1013.00,1535.00,3051.00,0.00,59.00,,,,,,,,,,,,0,1,0,,-992,16100,1324,-177,286,-196
29.815,29.43,0.42,1.68,-2.71,2.44,-1.11,0.62,0.24,nan,nan,237.00,887.00,699.00,991.00,1522.00,3086.00,0.00,91.00,,,,,,,,,,,,0,1,0,,-980,16120,1384,-126,395,-185
29.836,29.49,0.43,-1.23,0.59,0.76,0.18,0.61,0.49,nan,nan,209.00,911.00,672.00,1023.00,1502.00,3067.00,0.00,73.00,,,,,,,,,,,,0,1,0,,-940,16140,1176,-339,341,-191
29.878,29.54,0.46,-0.69,0.50,0.68,0.62,1.08,-0.01,nan,nan,208.00,894.00,657.00,1014.00,1530.00,3051.00,0.00,53.00,,,,,,,,,,,,0,1,0,,-968,16044,1268,-590,285,-366
29.941,29.60,0.47,0.17,-0.15,1.63,0.08,0.70,0.16,nan,nan,212.00,879.00,665.00,991.00,1526.00,3082.00,0.00,64.00,,,,,,,,,,,,0,1,0,,-1020,16096,1196,-689,238,-153
30.003,29.65,0.46,-0.75,0.34,1.41,-0.32,0.22,0.62,nan,nan,210.00,900.00,682.00,1010.00,1502.00,3103.00,0.00,80.00,,,,,,,,,,,,0,1,0,,-1064,16148,1568,-526,258,-189
30.045,29.71,0.47,-1.83,1.88,-0.08,1.02,0.75,0.10,nan,nan,197.00,901.00,652.00,1034.00,1530.00,3082.00,0.00,52.00,,,,,,,,,,,,1,0,0,,-972,16208,1596,-424,140,-162
30.108,29.76,0.47,0.48,-0.76,1.43,0.03,0.49,0.12,nan,nan,218.00,883.00,669.00,1000.00,1535.00,3111.00,0.00,70.00,,,,,,,,,,,,1,0,0,,-1008,16248,1828,-281,193,-70
30.168,29.82,0.47,-0.58,0.46,1.72,-0.87,0.40,0.31,nan,nan,208.00,891.00,699.00,1013.00,1522.00,3107.00,0.00,89.00,,,,,,,,,,,,1,0,0,,-1032,16172,1928,-251,306,-68
30.21,29.87,0.49,-1.08,0.54,0.18,0.46,0.87,0.30,nan,nan,209.00,907.00,669.00,1039.00,1510.00,3050.00,0.00,71.00,,,,,,,,,,,,1,0,0,,-1036,16112,1676,96,447,76
30.251,29.93,0.53,-0.43,0.41,0.88,0.58,1.32,-0.08,nan,nan,208.00,887.00,656.00,1007.00,1529.00,3027.00,0.00,61.00,,,,,,,,,,,,1,0,0,,-912,16044,1400,248,376,122
30.314,29.98,0.55,3.47,-5.09,2.28,-0.77,0.96,0.28,nan,nan,261.00,881.00,688.00,988.00,1509.00,3041.00,0.00,91.00,,,,,,,,,,,,1,0,0,,-892,16036,1220,344,283,53
30.375,30.04,0.57,-0.74,0.08,0.77,0.23,0.89,0.56,nan,nan,213.00,906.00,670.00,1021.00,1488.00,3026.00,0.00,65.00,,,,,,,,,,,,1,0,0,,-864,16108,1320,38,163,-1
30.437,30.09,0.61,-1.05,1.07,0.89,0.72,1.33,0.15,nan,nan,203.00,893.00,651.00,1003.00,1510.00,3008.00,0.00,55.00,,,,,,,,,,,,1,0,0,,-916,16036,1572,-295,132,-197
30.54,30.15,0.64,0.29,-0.36,2.13,-0.18,1.20,0.20,nan,nan,214.00,880.00,668.00,978.00,1509.00,3019.00,0.00,70.00,,,,,,,,,,,,1,0,0,,-880,16112,1468,-399,152,-162
30.562,30.20,0.65,-0.68,0.32,1.59,-0.13,0.88,0.60,nan,nan,210.00,898.00,673.00,998.00,1485.00,3024.00,0.00,75.00,,,,,,,,,,,,1,0,0,,-924,16136,1688,-368,97,-270
30.605,30.26,0.69,-1.33,1.53,0.52,1.07,1.35,0.16,nan,nan,199.00,892.00,643.00,1008.00,1508.00,3004.00,0.00,52.00,,,,,,,,,,,,1,0,0,,-952,16040,1424,-339,-7,-297
30.645,30.31,0.71,0.21,-0.33,1.93,-0.02,1.19,0.07,nan,nan,214.00,882.00,665.00,982.00,1520.00,3031.00,0.00,69.00,,,,,,,,,,,,1,0,0,,-960,16136,1572,-371,-163,-248
30.708,30.37,0.71,0.40,-1.16,1.57,-0.29,0.63,0.52,nan,nan,223.00,895.00,679.00,1003.00,1499.00,3062.00,0.00,81.00,,,,,,,,,,,,1,0,0,,-1020,16088,1884,-81,-127,-129
30.75,30.42,0.71,-1.36,0.99,0.59,0.43,0.77,0.37,nan,nan,205.00,906.00,665.00,1023.00,1507.00,3057.00,0.00,71.00,,,,,,,,,,,,1,0,0,,-1148,15988,1784,101,165,-50
30.812,30.48,0.71,-0.65,0.39,1.09,0.23,0.75,0.28,nan,nan,209.00,895.00,666.00,1008.00,1515.00,3067.00,0.00,57.00,,,,,,,,,,,,1,0,0,,-940,16048,1604,13,319,60
30.935,30.53,0.70,1.18,-2.31,1.85,-0.81,0.51,0.29,nan,nan,234.00,895.00,695.00,1006.00,1521.00,3095.00,0.00,91.00,,,,,,,,,,,,1,0,0,,-824,16272,1088,-35,-20,-147
30.957,30.59,0.71,-1.11,0.37,0.27,0.31,0.88,0.53,nan,nan,211.00,912.00,673.00,1039.00,1491.00,3030.00,0.00,71.00,,,,,,,,,,,,1,0,0,,-712,16120,1036,91,-1251,52
30.977,30.64,0.76,-0.36,0.38,0.97,0.52,1.65,-0.16,nan,nan,208.00,885.00,657.00,1005.00,1526.00,2994.00,0.00,59.00,,,,,,,,,,,,1,0,0,,-948,16268,1836,42,-1289,-125
31.059,30.70,0.79,0.78,-0.61,2.18,-0.36,1.43,0.17,nan,nan,215.00,869.00,674.00,981.00,1505.00,2994.00,0.00,69.00,,,,,,,,,,,,1,0,0,,-1016,15908,2712,17,-258,318
31.079,30.75,0.81,-0.32,1.00,1.58,0.04,1.22,0.33,nan,nan,201.00,869.00,667.00,994.00,1498.00,3006.00,0.00,69.00,,,,,,,,,,,,1,0,0,,-1120,16184,1964,-50,2184,-179
31.141,30.81,0.85,-1.13,2.02,0.74,1.08,1.48,0.25,nan,nan,193.00,873.00,640.00,999.00,1497.00,2981.00,0.00,51.00,,,,,,,,,,,,1,0,0,,-852,15924,880,-408,1839,-93
31.202,30.86,0.87,0.58,-0.11,2.17,0.03,1.40,0.13,nan,nan,210.00,864.00,660.00,971.00,1509.00,3000.00,0.00,69.00,,,,,,,,,,,,1,0,0,,-660,16048,1012,-650,441,289
31.284,30.92,0.88,0.10,-0.12,1.88,-0.34,0.97,0.61,nan,nan,212.00,881.00,677.00,992.00,1482.00,3013.00,0.00,80.00,,,,,,,,,,,,1,0,0,,-704,16364,1872,-428,6,-6
31.306,30.97,0.90,-0.60,0.92,0.84,0.68,1.39,0.08,nan,nan,203.00,881.00,653.00,1006.00,1514.00,3006.00,0.00,73.00,,,,,,,,,,,,1,0,0,,-904,16184,2052,-270,817,-297
31.386,31.03,0.94,-0.30,0.63,1.14,0.49,1.54,-0.13,nan,nan,205.00,877.00,656.00,999.00,1527.00,3005.00,0.00,70.00,,,,,,,,,,,,1,0,0,,-892,15964,1556,-530,951,-225
31.407,31.08,0.93,1.20,-1.84,2.18,-0.74,0.86,0.36,nan,nan,228.00,883.00,688.00,991.00,1505.00,3046.00,0.00,96.00,,,,,,,,,,,,1,0,0,,-824,16112,1492,-548,369,-259
31.469,31.14,0.93,-0.93,0.31,0.43,0.37,0.92,0.49,nan,nan,211.00,907.00,669.00,1031.00,1493.00,3029.00,0.00,78.00,,,,,,,,,,,,1,0,0,,-896,16108,1816,-284,-190,-125
31.53,31.19,0.95,-0.51,0.62,0.86,0.64,1.30,-0.08,nan,nan,206.00,885.00,654.00,1006.00,1529.00,3029.00,0.00,63.00,,,,,,,,,,,,1,0,0,,-940,16100,2056,-116,-120,-156
31.592,31.25,0.95,0.13,-2.50,2.29,-0.64,0.85,0.18,nan,nan,241.00,938.00,683.00,984.00,1520.00,3062.00,0.00,81.00,,,,,,,,,,,,1,0,0,,-892,16060,1928,-31,182,32
31.654,31.30,0.93,-0.90,-1.92,1.05,0.30,0.72,0.56,nan,nan,238.00,962.00,664.00,1008.00,1493.00,3047.00,0.00,80.00,,,,,,,,,,,,1,0,0,,-768,16004,1900,-10,247,-18
31.714,31.36,0.96,-1.37,-0.81,1.16,0.32,1.44,0.13,nan,nan,226.00,951.00,662.00,1003.00,1508.00,2996.00,0.00,50.00,,,,,,,,,,,,1,0,0,,-704,16168,1820,-7,173,-71
31.735,31.41,0.98,0.34,-2.34,2.14,0.16,1.43,0.03,nan,nan,238.00,926.00,656.00,969.00,1517.00,3006.00,0.00,75.00,,,,,,,,,,,,1,0,0,,-800,16008,1912,-97,121,-121
31.796,31.47,0.98,0.21,-1.98,2.10,-0.25,1.01,0.61,nan,nan,234.00,922.00,671.00,981.00,1481.00,3008.00,0.00,80.00,,,,,,,,,,,,1,0,0,,-800,16132,1912,20,187,-2
31.856,31.52,1.00,-1.34,0.72,0.92,0.96,1.34,0.36,nan,nan,208.00,912.00,642.00,995.00,1492.00,2989.00,0.00,67.00,,,,,,,,,,,,1,0,0,,-700,16164,1836,141,322,-99
31.921,31.58,1.03,-0.11,-0.39,1.64,0.44,1.57,0.05,nan,nan,216.00,895.00,652.00,981.00,1511.00,2987.00,0.00,69.00,,,,,,,,,,,,1,0,0,,-672,16116,1484,-4,100,-148
32.043,31.63,1.03,1.59,-2.37,2.37,-0.45,1.04,0.50,nan,nan,233.00,882.00,675.00,976.00,1489.00,3014.00,0.00,94.00,,,,,,,,,,,,1,0,0,,-796,16056,1508,75,119,-121
32.083,31.69,1.05,-0.94,0.58,0.87,0.53,1.32,0.38,nan,nan,208.00,901.00,658.00,1009.00,1491.00,2990.00,0.00,70.00,,,,,,,,,,,,1,0,0,,-784,16116,1692,46,152,-333
32.104,31.74,1.08,-0.15,0.58,1.22,0.63,1.72,-0.12,nan,nan,205.00,873.00,650.00,992.00,1521.00,2983.00,0.00,64.00,,,,,,,,,,,,1,0,0,,-764,15948,1612,-13,106,-266
32.123,31.80,1.08,2.41,-2.32,2.61,-0.80,1.09,0.30,nan,nan,229.00,853.00,685.00,976.00,1504.00,3024.00,0.00,82.00,,,,,,,,,,,,1,0,0,,-764,16120,1452,-1,89,-218
32.187,31.85,1.07,-0.54,1.64,1.38,0.22,0.91,0.57,nan,nan,195.00,862.00,663.00,997.00,1487.00,3024.00,0.00,80.00,,,,,,,,,,,,1,0,0,,-944,16028,1596,157,150,-162
32.248,31.91,1.08,-0.87,2.42,0.90,0.89,1.29,0.20,nan,nan,188.00,855.00,645.00,998.00,1507.00,3009.00,0.00,55.00,,,,,,,,,,,,1,0,0,,-792,16024,1564,104,47,-82
32.311,31.96,1.08,1.47,0.04,2.20,-0.00,1.07,0.17,nan,nan,205.00,831.00,661.00,971.00,1515.00,3037.00,0.00,79.00,,,,,,,,,,,,1,0,0,,-808,15952,1672,-56,-48,28
32.394,32.02,1.10,0.95,0.76,1.57,-0.29,1.40,-0.55,nan,nan,199.00,832.00,679.00,1003.00,1566.00,3056.00,0.00,80.00,,,,,,,,,,,,1,0,0,,-732,16264,1592,-86,89,-131
32.415,32.07,1.11,-0.42,3.18,0.52,1.19,1.32,0.36,nan,nan,179.00,823.00,639.00,1005.00,1493.00,2992.00,0.00,64.00,,,,,,,,,,,,1,0,0,,-784,16152,1700,-225,280,-229
32.477,32.13,1.14,1.13,1.08,1.44,0.39,1.73,-0.05,nan,nan,195.00,819.00,656.00,990.00,1515.00,2976.00,0.00,66.00,,,,,,,,,,,,1,0,0,,-728,16096,1624,-211,195,-207
32.52,32.18,1.15,2.58,-0.60,2.46,-0.59,1.30,0.35,nan,nan,208.00,809.00,679.00,976.00,1494.00,2995.00,0.00,94.00,,,,,,,,,,,,1,0,0,,-928,16004,1636,38,234,-54
32.561,32.24,1.17,0.39,1.80,0.91,0.57,1.57,0.37,nan,nan,190.00,827.00,656.00,1006.00,1485.00,2961.00,0.00,71.00,,,,,,,,,,,,1,0,0,,-772,15960,1556,-171,229,69
32.665,32.29,1.21,0.59,1.07,1.61,0.56,1.97,-0.17,nan,nan,197.00,837.00,648.00,979.00,1518.00,2957.00,0.00,62.00,,,,,,,,,,,,1,0,0,,-716,16228,1480,-227,232,-105
32.687,32.35,1.22,2.68,-2.41,2.70,-0.67,1.41,0.24,nan,nan,229.00,846.00,679.00,969.00,1500.00,2991.00,0.00,86.00,,,,,,,,,,,,1,0,0,,-644,16036,1916,-147,-16,-3
32.749,32.40,1.22,0.58,0.07,1.22,0.38,1.29,0.57,nan,nan,208.00,860.00,659.00,999.00,1477.00,2979.00,0.00,74.00,,,,,,,,,,,,1,0,0,,-584,16300,1744,15,-179,13
32.812,32.46,1.24,0.03,1.54,0.89,1.09,1.63,0.17,nan,nan,194.00,845.00,638.00,993.00,1500.00,2971.00,0.00,53.00,,,,,,,,,,,,1,0,0,,-800,16176,1856,-2,138,-179
32.833,32.51,1.25,1.82,-0.35,2.25,-0.05,1.42,0.15,nan,nan,208.00,828.00,662.00,970.00,1507.00,2997.00,0.00,69.00,,,,,,,,,,,,1,0,0,,-704,15984,1516,51,336,-155
32.894,32.57,1.24,1.35,0.08,1.87,-0.17,0.97,0.55,nan,nan,205.00,834.00,671.00,988.00,1487.00,3018.00,0.00,75.00,,,,,,,,,,,,1,0,0,,-720,16056,1376,64,123,-4
32.957,32.62,1.24,-0.10,2.26,0.47,1.14,1.30,0.21,nan,nan,187.00,833.00,641.00,1008.00,1506.00,3007.00,0.00,63.00,,,,,,,,,,,,1,0,0,,-708,15936,1532,99,-18,-96
33.018,32.68,1.25,1.50,0.48,1.46,0.36,1.44,-0.01,nan,nan,200.00,820.00,657.00,990.00,1520.00,3008.00,0.00,71.00,,,,,,,,,,,,1,0,0,,-768,16012,1820,180,176,98
33.122,32.73,1.22,1.78,-0.25,1.88,-0.55,0.72,0.34,nan,nan,207.00,827.00,685.00,998.00,1511.00,3065.00,0.00,96.00,,,,,,,,,,,,1,0,0,,-684,16140,1872,145,573,199
33.141,32.79,1.22,0.68,0.58,0.19,0.39,1.06,0.31,nan,nan,202.00,845.00,671.00,1040.00,1504.00,3027.00,0.00,67.00,,,,,,,,,,,,1,0,0,,-640,16136,1324,-43,459,-161
33.204,32.84,1.24,1.09,1.28,0.85,0.59,1.68,-0.09,nan,nan,193.00,816.00,656.00,1008.00,1520.00,2986.00,0.00,59.00,,,,,,,,,,,,1,0,0,,-760,16112,1520,-177,128,-104
33.223,32.90,1.25,3.30,-1.71,2.38,-0.88,1.53,-0.04,nan,nan,218.00,810.00,691.00,987.00,1520.00,2999.00,0.00,84.00,,,,,,,,,,,,1,0,0,,-724,15984,1872,-137,255,-6
33.306,32.95,1.26,0.59,1.74,1.37,-0.14,1.50,0.47,nan,nan,190.00,822.00,676.00,1007.00,1479.00,2962.00,0.00,70.00,,,,,,,,,,,,1,0,0,,-704,16176,1656,-233,518,60
33.388,33.01,1.30,0.91,2.32,0.97,0.89,1.88,0.18,nan,nan,183.00,799.00,644.00,995.00,1492.00,2940.00,0.00,53.00,,,,,,,,,,,,1,0,0,,-540,16148,1332,104,569,238
33.408,33.06,1.31,2.48,0.81,2.36,-0.08,1.66,0.22,nan,nan,193.00,782.00,662.00,967.00,1495.00,2963.00,0.00,70.00,,,,,,,,,,,,1,0,0,,-888,16192,1720,92,1246,127
33.492,33.12,1.29,1.89,1.30,1.87,-0.17,0.82,1.39,nan,nan,190.00,790.00,671.00,988.00,1425.00,2969.00,0.00,76.00,,,,,,,,,,,,1,0,1,,-744,16116,1160,-480,2239,103
33.512,33.17,1.31,-0.03,3.15,0.92,0.96,1.77,0.28,nan,nan,178.00,811.00,642.00,995.00,1487.00,2945.00,0.00,52.00,,,,,,,,,,,,1,0,1,,-676,15924,1100,-848,2369,-200
33.554,33.23,1.34,1.86,-0.45,1.86,0.31,1.82,0.02,nan,nan,209.00,829.00,654.00,976.00,1507.00,2960.00,0.00,62.00,,,,,,,,,,,,1,0,1,,-504,16212,1268,-542,1476,103
33.616,33.28,1.34,1.64,-1.24,1.94,-0.19,1.26,0.38,nan,nan,219.00,854.00,671.00,986.00,1493.00,2997.00,0.00,87.00,,,,,,,,,,,,1,0,1,,-584,16572,1348,67,512,103
33.739,33.34,1.33,0.06,0.07,0.61,0.39,1.29,0.39,nan,nan,210.00,878.00,666.00,1023.00,1491.00,2993.00,0.00,67.00,,,,,,,,,,,,1,0,1,,-472,16060,1192,573,-372,148
33.759,33.39,1.35,0.96,0.03,1.31,0.24,1.67,-0.22,nan,nan,207.00,848.00,663.00,999.00,1531.00,2997.00,0.00,62.00,,,,,,,,,,,,1,0,1,,-448,16300,1556,462,-538,349
33.78,33.45,1.34,2.60,-2.39,2.16,-0.78,1.11,-0.08,nan,nan,229.00,848.00,690.00,993.00,1535.00,3053.00,0.00,91.00,,,,,,,,,,,,1,0,1,,-296,16268,1612,226,-192,91
33.862,33.50,1.31,0.01,0.26,0.23,0.41,0.81,0.33,nan,nan,208.00,875.00,670.00,1038.00,1509.00,3055.00,0.00,75.00,,,,,,,,,,,,1,0,1,,-308,15744,1372,138,-170,-116
33.883,33.56,1.32,-0.10,1.11,0.86,0.50,1.55,0.02,nan,nan,199.00,859.00,659.00,1010.00,1514.00,2992.00,0.00,50.00,,,,,,,,,,,,1,0,1,,-408,15712,1564,-133,-327,39
33.944,33.61,1.33,1.90,-0.64,2.17,-0.19,1.50,0.15,nan,nan,211.00,832.00,668.00,977.00,1505.00,2987.00,0.00,64.00,,,,,,,,,,,,1,0,1,,-364,16252,1616,-344,-50,207
34.005,33.67,1.33,1.08,-0.10,1.75,-0.10,1.36,0.57,nan,nan,208.00,847.00,670.00,991.00,1475.00,2970.00,0.00,73.00,,,,,,,,,,,,1,0,1,,-312,16232,1932,-379,121,361
34.068,33.72,1.37,0.26,1.46,0.90,0.89,1.98,0.17,nan,nan,194.00,839.00,645.00,998.00,1490.00,2929.00,0.00,50.00,,,,,,,,,,,,1,0,1,,-116,16272,1792,-414,105,67
34.108,33.78,1.39,2.22,-0.39,2.07,0.18,1.94,0.05,nan,nan,207.00,816.00,656.00,971.00,1501.00,2944.00,0.00,63.00,,,,,,,,,,,,1,0,1,,-72,16080,1896,-434,-24,-143
34.235,33.83,1.40,1.74,-0.41,2.08,-0.41,1.56,0.34,nan,nan,209.00,832.00,677.00,986.00,1488.00,2965.00,0.00,75.00,,,,,,,,,,,,1,0,1,,-300,15980,1936,-232,51,-367
34.255,33.89,1.42,0.92,0.13,0.83,0.51,1.75,0.31,nan,nan,206.00,847.00,659.00,1011.00,1485.00,2945.00,0.00,61.00,,,,,,,,,,,,1,0,1,,-260,16072,1880,-269,-87,-154
34.296,33.94,1.46,1.46,0.59,1.46,0.36,2.14,-0.20,nan,nan,199.00,819.00,657.00,990.00,1516.00,2940.00,0.00,56.00,,,,,,,,,,,,1,0,1,,-520,16164,1936,-78,-65,-177
34.317,34.00,1.46,3.32,-2.05,2.72,-0.97,1.53,0.29,nan,nan,222.00,817.00,690.00,976.00,1493.00,2973.00,0.00,81.00,,,,,,,,,,,,1,0,1,,-324,15984,1764,-250,-151,-191
34.379,34.05,1.46,0.72,0.56,0.77,0.45,1.51,0.36,nan,nan,202.00,844.00,662.00,1015.00,1488.00,2970.00,0.00,64.00,,,,,,,,,,,,1,0,1,,-324,16020,1956,-289,-201,-8
34.441,34.11,1.48,0.97,1.32,0.89,0.61,1.75,0.13,nan,nan,193.00,819.00,655.00,1006.00,1500.00,2960.00,0.00,49.00,,,,,,,,,,,,1,0,1,,-256,16152,1980,-299,-18,-53
34.503,34.16,1.48,1.74,-0.32,1.93,-0.02,1.49,0.03,nan,nan,208.00,830.00,665.00,982.00,1515.00,2998.00,0.00,67.00,,,,,,,,,,,,1,0,1,,-340,16228,1752,-21,156,-116
34.605,34.22,1.45,0.11,-0.64,1.36,-0.05,0.90,0.45,nan,nan,218.00,893.00,673.00,1005.00,1497.00,3035.00,0.00,68.00,,,,,,,,,,,,1,0,1,,-164,16064,1792,18,3,-98
34.626,34.27,1.44,-0.35,0.30,0.21,1.06,1.36,0.04,nan,nan,209.00,887.00,647.00,1021.00,1518.00,3013.00,0.00,47.00,,,,,,,,,,,,1,0,1,,-168,16332,1800,55,-22,-289
34.666,34.33,1.45,1.23,-0.85,2.23,-0.12,1.57,-0.01,nan,nan,216.00,859.00,665.00,973.00,1516.00,2992.00,0.00,63.00,,,,,,,,,,,,1,0,1,,-244,16156,1764,-1,-96,-306
34.728,34.38,1.45,1.71,-1.68,2.00,-0.51,1.49,0.14,nan,nan,224.00,862.00,682.00,992.00,1506.00,2989.00,0.00,73.00,,,,,,,,,,,,1,0,1,,-176,16028,1604,254,-256,-259
34.77,34.44,1.46,0.48,-0.51,1.07,0.15,1.64,0.30,nan,nan,215.00,877.00,669.00,1011.00,1489.00,2959.00,0.00,63.00,,,,,,,,,,,,1,0,1,,-60,16092,1692,478,-492,-330
34.832,34.49,1.50,1.08,-0.36,1.44,0.39,2.16,-0.26,nan,nan,211.00,853.00,656.00,990.00,1520.00,2942.00,0.00,53.00,,,,,,,,,,,,1,0,1,,-328,15972,1716,243,-882,-681
34.873,34.55,1.49,3.15,-2.89,2.60,-0.90,1.41,0.32,nan,nan,233.00,841.00,689.00,979.00,1494.00,2985.00,0.00,79.00,,,,,,,,,,,,1,0,1,,-512,16068,1720,560,-546,-600
34.977,34.60,1.49,0.45,0.65,0.86,0.17,1.54,0.42,nan,nan,202.00,851.00,671.00,1019.00,1482.00,2961.00,0.00,66.00,,,,,,,,,,,,1,0,1,,-432,16264,1408,56,-366,-355
35.019,34.66,1.52,0.93,1.34,1.13,0.55,1.92,0.08,nan,nan,193.00,820.00,654.00,998.00,1499.00,2943.00,0.00,48.00,,,,,,,,,,,,1,0,1,,-480,16400,1364,-810,-341,-271
35.059,34.71,1.53,1.58,-0.44,2.44,-0.36,1.80,0.07,nan,nan,210.00,838.00,671.00,971.00,1503.00,2958.00,0.00,65.00,,,,,,,,,,,,1,0,1,,-396,16248,1836,-741,-510,-326
35.101,34.77,1.52,0.94,0.86,1.62,-0.14,1.35,0.42,nan,nan,198.00,830.00,673.00,997.00,1487.00,2983.00,0.00,65.00,,,,,,,,,,,,1,0,1,,-476,15960,2200,-18,-111,-492
35.163,34.82,1.53,-0.05,1.57,0.64,0.97,1.72,0.09,nan,nan,194.00,847.00,645.00,1006.00,1504.00,2966.00,0.00,46.00,,,,,,,,,,,,1,0,1,,-440,16008,1880,241,276,-169
35.225,34.88,1.53,2.12,-1.23,1.97,-0.09,1.44,-0.10,nan,nan,217.00,838.00,667.00,982.00,1527.00,3014.00,0.00,63.00,,,,,,,,,,,,1,0,1,,-356,15884,1400,213,61,17
35.328,34.93,1.50,1.68,-1.25,1.70,-0.55,0.97,0.10,nan,nan,219.00,853.00,687.00,1005.00,1524.00,3055.00,0.00,67.00,,,,,,,,,,,,1,0,1,,-236,16116,1600,-237,16,166
35.348,34.99,1.47,0.70,-0.50,0.26,0.26,0.92,0.08,nan,nan,214.00,869.00,675.00,1041.00,1527.00,3063.00,0.00,59.00,,,,,,,,,,,,1,0,1,,-384,16112,1712,-31,310,-33
35.39,35.04,1.46,0.85,-0.02,0.61,0.39,1.20,-0.38,nan,nan,208.00,853.00,666.00,1023.00,1557.00,3066.00,0.00,55.00,,,,,,,,,,,,1,0,1,,-200,16348,1660,-152,493,-277
35.451,35.10,1.44,3.35,-3.27,0.74,-0.52,1.03,0.11,nan,nan,237.00,843.00,698.00,1043.00,1521.00,3046.00,0.00,80.00,,,,,,,,,,,,1,0,1,,-144,16192,1656,-301,531,-128
35.513,35.15,1.42,0.28,0.17,0.59,-0.01,1.22,0.32,nan,nan,208.00,868.00,681.00,1035.00,1499.00,3007.00,0.00,60.00,,,,,,,,,,,,1,0,1,,-236,16200,1708,-168,359,-403
35.537,35.21,1.45,1.31,-0.09,0.91,0.57,1.90,-0.14,nan,nan,207.00,839.00,656.00,1006.00,1518.00,2964.00,0.00,46.00,,,,,,,,,,,,1,0,1,,-432,15956,1820,-18,333,17
35.596,35.26,1.46,2.33,-0.78,2.12,-0.20,1.73,-0.05,nan,nan,211.00,821.00,669.00,979.00,1515.00,2976.00,0.00,64.00,,,,,,,,,,,,1,0,1,,-336,16036,1672,-164,304,41
35.699,35.32,1.45,1.27,-0.16,1.90,-0.40,1.29,0.43,nan,nan,208.00,842.00,679.00,993.00,1488.00,2990.00,0.00,64.00,,,,,,,,,,,,1,0,1,,-232,16136,1728,-28,333,-205
35.72,35.37,1.47,0.12,1.23,0.70,0.81,1.76,0.08,nan,nan,197.00,849.00,650.00,1008.00,1504.00,2963.00,0.00,46.00,,,,,,,,,,,,1,0,1,,-288,16060,1576,-214,318,-187
35.761,35.43,1.47,1.97,-1.85,2.20,-0.20,1.58,-0.13,nan,nan,225.00,857.00,668.00,976.00,1526.00,3001.00,0.00,61.00,,,,,,,,,,,,1,0,1,,-328,16248,1716,-212,84,-217
35.822,35.48,1.46,1.67,-2.39,1.73,-0.34,1.21,0.10,nan,nan,233.00,880.00,679.00,998.00,1517.00,3026.00,0.00,71.00,,,,,,,,,,,,1,0,1,,-424,16236,1692,324,83,-286
35.864,35.54,1.45,0.59,-1.30,0.83,0.07,1.25,0.05,nan,nan,224.00,892.00,675.00,1023.00,1520.00,3025.00,0.00,0.00,,,,,,,,,,,,1,0,1,,-344,16196,1720,670,240,-185
35.927,35.59,1.45,0.55,-0.53,1.09,0.23,1.42,-0.19,nan,nan,215.00,875.00,666.00,1008.00,1535.00,3024.00,0.00,51.00,,,,,,,,,,,,1,0,2,,-384,15980,1324,459,294,16
35.968,35.65,1.41,3.14,-3.04,2.13,-0.96,0.64,0.18,nan,nan,235.00,845.00,697.00,999.00,1526.00,3088.00,0.00,80.00,,,,,,,,,,,,1,0,2,,-384,16120,1764,-237,570,-231
36.051,35.70,1.37,0.29,-0.36,0.31,-0.03,0.62,0.24,nan,nan,214.00,880.00,685.00,1047.00,1522.00,3086.00,0.00,60.00,,,,,,,,,,,,1,0,2,,-252,16340,1496,-448,283,-14
36.092,35.76,1.34,0.85,-0.11,0.25,0.48,0.75,0.04,nan,nan,209.00,855.00,667.00,1035.00,1535.00,3087.00,0.00,48.00,,,,,,,,,,,,1,0,2,,-240,16224,1612,1,131,57
36.135,35.81,1.31,2.02,-1.54,1.57,-0.50,0.72,-0.16,nan,nan,221.00,848.00,687.00,1009.00,1552.00,3106.00,0.00,63.00,,,,,,,,,,,,1,0,2,,-312,16148,1684,-196,402,-237
36.196,35.87,1.28,1.66,-0.47,1.23,-0.44,0.80,0.34,nan,nan,210.00,836.00,689.00,1021.00,1509.00,3056.00,0.00,66.00,,,,,,,,,,,,1,0,2,,-188,16280,1652,-118,655,-37
36.259,35.92,1.29,0.19,0.47,0.49,0.57,1.39,-0.01,nan,nan,205.00,864.00,661.00,1023.00,1521.00,3013.00,0.00,45.00,,,,,,,,,,,,1,0,2,,-100,16188,1244,-174,295,-194
36.341,35.98,1.27,1.73,-1.10,1.72,-0.17,0.96,0.02,nan,nan,217.00,848.00,673.00,994.00,1531.00,3063.00,0.00,64.00,,,,,,,,,,,,1,0,2,,-400,15980,1476,-786,-148,-170
36.361,36.03,1.27,1.74,-1.77,1.60,-0.60,1.25,0.07,nan,nan,225.00,863.00,690.00,1010.00,1518.00,3023.00,0.00,73.00,,,,,,,,,,,,1,0,2,,-312,16208,1816,-743,-371,-32
36.423,36.09,1.27,1.22,-1.43,0.97,-0.14,1.31,0.14,nan,nan,223.00,873.00,681.00,1023.00,1511.00,3011.00,0.00,59.00,,,,,,,,,,,,1,0,2,,-284,16324,1964,876,-390,-66
36.505,36.14,1.29,1.53,-1.20,1.07,0.27,1.58,-0.24,nan,nan,219.00,857.00,665.00,1008.00,1535.00,3009.00,0.00,59.00,,,,,,,,,,,,1,0,2,,-240,16164,1824,1122,-536,92
36.525,36.20,1.29,3.02,-3.00,0.99,-0.79,1.25,0.06,nan,nan,235.00,848.00,705.00,1040.00,1519.00,3024.00,0.00,82.00,,,,,,,,,,,,1,0,2,,-156,16156,1532,478,-289,-41
36.588,36.25,1.27,1.92,-2.56,0.42,-0.01,1.02,0.24,nan,nan,234.00,875.00,683.00,1042.00,1511.00,3037.00,0.00,64.00,,,,,,,,,,,,1,0,2,,-272,16104,1332,132,-5,-279
36.63,36.31,1.27,1.27,-0.60,0.32,0.46,1.24,-0.13,nan,nan,213.00,852.00,667.00,1033.00,1535.00,3041.00,0.00,48.00,,,,,,,,,,,,1,0,2,,-172,16148,1636,85,17,26
36.693,36.36,1.26,2.40,-1.91,1.74,-0.53,0.96,-0.03,nan,nan,224.00,844.00,686.00,1003.00,1535.00,3067.00,0.00,65.00,,,,,,,,,,,,1,0,2,,-224,16128,1432,401,37,-91
36.794,36.42,1.22,1.46,-0.75,0.84,-0.31,0.47,0.40,nan,nan,214.00,849.00,689.00,1033.00,1513.00,3091.00,0.00,64.00,,,,,,,,,,,,1,0,3,,-240,16172,1528,-469,-278,-164
36.814,36.47,1.19,0.21,1.01,-0.37,0.97,0.67,0.14,nan,nan,199.00,851.00,657.00,1047.00,1529.00,3088.00,0.00,47.00,,,,,,,,,,,,1,0,3,,-148,16236,1352,-469,-324,11
36.855,36.53,1.16,2.14,-1.49,1.25,-0.37,0.58,-0.14,nan,nan,220.00,843.00,686.00,1018.00,1555.00,3123.00,0.00,64.00,,,,,,,,,,,,1,0,3,,-88,16080,1028,-135,-648,67
36.916,36.58,1.12,2.09,-1.73,0.92,-0.50,0.36,0.17,nan,nan,223.00,850.00,695.00,1035.00,1535.00,3124.00,0.00,80.00,,,,,,,,,,,,1,0,3,,-56,16416,1312,381,-584,-327
36.977,36.64,1.11,1.08,-0.10,0.28,-0.10,0.94,0.12,nan,nan,208.00,847.00,688.00,1050.00,1523.00,3057.00,0.00,66.00,,,,,,,,,,,,1,0,3,,-216,16052,1228,420,-488,-101
37.019,36.69,1.12,1.78,-0.25,0.90,-0.04,1.39,-0.39,nan,nan,207.00,827.00,678.00,1023.00,1553.00,3044.00,0.00,65.00,,,,,,,,,,,,1,0,3,,-108,16148,1276,16,-385,-95
37.08,36.75,1.12,3.52,-2.53,1.90,-0.96,0.97,0.01,nan,nan,227.00,821.00,700.00,1008.00,1531.00,3062.00,0.00,93.00,,,,,,,,,,,,1,0,3,,-96,16228,1500,178,-248,-66
37.185,36.80,1.11,1.23,-0.15,0.50,-0.06,1.05,0.20,nan,nan,208.00,843.00,684.00,1040.00,1513.00,3037.00,0.00,75.00,,,,,,,,,,,,1,0,3,,-188,16044,1500,-218,93,-28
37.205,36.86,1.13,1.14,0.98,0.44,0.64,1.40,-0.18,nan,nan,196.00,821.00,659.00,1023.00,1535.00,3026.00,0.00,57.00,,,,,,,,,,,,1,0,3,,-40,16152,1268,-204,456,-141
37.247,36.91,1.12,2.49,-0.75,1.85,-0.52,1.08,-0.06,nan,nan,210.00,815.00,684.00,998.00,1534.00,3055.00,0.00,71.00,,,,,,,,,,,,1,0,3,,-100,16044,1212,-257,415,-3
37.289,36.97,1.10,1.31,-0.27,1.27,-0.43,0.73,0.41,nan,nan,209.00,843.00,688.00,1019.00,1505.00,3058.00,0.00,74.00,,,,,,,,,,,,1,0,3,,-60,16284,1552,-168,436,-78
37.351,37.02,1.10,0.50,1.19,0.04,0.72,1.07,-0.04,nan,nan,196.00,837.00,661.00,1037.00,1533.00,3055.00,0.00,53.00,,,,,,,,,,,,1,0,3,,-88,16212,1304,-307,412,-108
37.413,37.08,1.08,2.17,-0.73,1.65,-0.48,0.75,0.04,nan,nan,211.00,825.00,685.00,1005.00,1535.00,3087.00,0.00,69.00,,,,,,,,,,,,1,0,3,,-12,16256,1360,-313,275,-164
37.455,37.13,1.05,2.07,-1.38,1.26,-0.56,0.41,0.15,nan,nan,219.00,843.00,693.00,1023.00,1535.00,3119.00,0.00,83.00,,,,,,,,,,,,1,0,3,,-44,16328,1420,-509,230,-346
37.518,37.19,1.02,0.85,-0.80,0.25,-0.09,0.40,0.16,nan,nan,217.00,871.00,688.00,1051.00,1535.00,3120.00,0.00,69.00,,,,,,,,,,,,1,0,3,,-72,15996,1392,-275,40,-112
37.601,37.24,1.00,0.58,-1.71,0.02,0.65,0.68,-0.45,nan,nan,229.00,902.00,664.00,1040.00,1578.00,3136.00,0.00,63.00,,,,,,,,,,,,1,0,3,,76,16120,1664,33,-112,-140
37.641,37.30,0.95,2.17,-4.59,1.22,-1.12,0.03,-0.05,nan,nan,260.00,915.00,715.00,1040.00,1563.00,3184.00,0.00,90.00,,,,,,,,,,,,1,0,3,,-124,16136,1580,41,-158,-67
37.702,37.35,0.92,0.37,-2.50,0.25,-0.51,0.39,0.16,nan,nan,240.00,929.00,704.00,1063.00,1535.00,3121.00,0.00,66.00,,,,,,,,,,,,1,0,3,,-108,16236,1576,-59,215,-252
37.786,37.41,0.94,0.62,-1.23,0.19,0.39,1.15,-0.36,nan,nan,223.00,889.00,671.00,1040.00,1557.00,3071.00,0.00,54.00,,,,,,,,,,,,1,0,3,,-108,16080,1472,-269,209,-171
37.806,37.46,0.93,2.17,-2.40,1.81,-0.53,0.81,0.02,nan,nan,231.00,863.00,685.00,1000.00,1535.00,3081.00,0.00,70.00,,,,,,,,,,,,1,0,3,,8,16056,1568,-302,172,-95
37.889,37.52,0.91,1.08,-0.96,1.17,-0.40,0.63,0.42,nan,nan,218.00,867.00,688.00,1022.00,1507.00,3070.00,0.00,71.00,,,,,,,,,,,,1,0,3,,-24,16244,1676,-194,188,-154
37.91,37.57,0.92,0.43,0.12,0.37,0.75,1.08,0.00,nan,nan,208.00,864.00,656.00,1023.00,1529.00,3050.00,0.00,50.00,,,,,,,,,,,,1,0,3,,-80,16252,1620,-149,263,-206
37.951,37.63,0.93,2.67,-1.92,1.59,-0.32,1.01,-0.05,nan,nan,223.00,835.00,680.00,1003.00,1535.00,3062.00,0.00,67.00,,,,,,,,,,,,1,0,3,,-60,16068,1764,-242,339,-168
38.012,37.68,0.92,4.02,-4.48,1.46,-0.49,0.85,0.08,nan,nan,250.00,848.00,688.00,1013.00,1529.00,3071.00,0.00,79.00,,,,,,,,,,,,1,0,3,,-16,16288,1568,-103,415,-352
38.075,37.74,0.92,0.70,-0.41,0.34,-0.04,0.85,0.08,nan,nan,213.00,867.00,685.00,1046.00,1529.00,3071.00,0.00,64.00,,,,,,,,,,,,1,0,3,,-172,16120,1492,17,143,-290
38.138,37.79,0.93,1.57,-1.13,1.00,-0.15,1.17,-0.39,nan,nan,218.00,854.00,681.00,1022.00,1559.00,3071.00,0.00,64.00,,,,,,,,,,,,1,0,3,,-100,16372,1576,140,-80,-155
38.178,37.85,0.90,3.17,-3.44,1.79,-1.16,0.38,0.16,nan,nan,240.00,853.00,709.00,1018.00,1535.00,3122.00,0.00,85.00,,,,,,,,,,,,1,0,3,,-124,15992,1608,452,4,-152
38.26,37.90,0.87,0.36,-0.47,0.07,-0.03,0.31,0.28,nan,nan,215.00,880.00,688.00,1057.00,1527.00,3120.00,0.00,65.00,,,,,,,,,,,,1,0,3,,-228,16068,1444,-132,25,-103
38.281,37.96,0.86,1.00,-0.16,0.20,0.31,0.65,-0.19,nan,nan,209.00,851.00,674.00,1042.00,1557.00,3118.00,0.00,57.00,,,,,,,,,,,,1,0,3,,-164,16304,1540,-88,80,-146
38.342,38.01,0.84,2.07,-1.30,1.23,-0.42,0.37,-0.10,nan,nan,218.00,841.00,688.00,1020.00,1557.00,3145.00,0.00,74.00,,,,,,,,,,,,1,0,3,,-276,16096,1468,339,257,-192
38.425,38.07,0.80,1.81,-0.78,0.64,-0.38,0.13,0.43,nan,nan,213.00,838.00,694.00,1043.00,1520.00,3130.00,0.00,72.00,,,,,,,,,,,,1,0,3,,-100,15896,1416,-478,523,-360
38.445,38.12,0.82,0.59,1.07,-0.66,1.02,1.07,-0.07,nan,nan,197.00,837.00,659.00,1058.00,1535.00,3057.00,0.00,48.00,,,,,,,,,,,,1,0,3,,-100,16260,1656,-734,610,105
38.507,38.18,0.83,2.41,-0.72,1.74,-0.53,1.08,-0.07,nan,nan,210.00,817.00,686.00,1003.00,1535.00,3056.00,0.00,59.00,,,,,,,,,,,,1,0,3,,-152,16264,1848,-674,795,-33
38.632,38.23,0.83,2.32,-1.80,1.57,-0.77,0.84,0.19,nan,nan,223.00,844.00,697.00,1016.00,1520.00,3063.00,0.00,78.00,,,,,,,,,,,,1,0,3,,-104,16228,1996,-37,1149,-149
38.652,38.29,0.83,1.21,-1.76,0.37,0.06,0.90,0.16,nan,nan,227.00,881.00,681.00,1042.00,1521.00,3059.00,0.00,59.00,,,,,,,,,,,,1,0,3,,-320,16496,2468,716,2069,-158
38.672,38.34,0.85,1.05,-1.87,0.92,0.01,1.26,-0.46,nan,nan,229.00,889.00,676.00,1021.00,1562.00,3065.00,0.00,57.00,,,,,,,,,,,,1,0,3,,-116,16064,1144,511,2455,-602
38.734,38.40,0.84,2.46,-4.90,1.79,-1.06,0.54,0.11,nan,nan,263.00,912.00,705.00,1015.00,1535.00,3106.00,0.00,80.00,,,,,,,,,,,,1,0,3,,-200,16052,640,188,1163,-329
38.775,38.45,0.83,0.09,-2.56,0.03,0.07,0.61,0.25,nan,nan,242.00,941.00,685.00,1056.00,1521.00,3086.00,0.00,60.00,,,,,,,,,,,,1,0,3,,-200,16076,776,-342,-71,-226
38.837,38.51,0.83,0.88,-2.44,0.13,0.53,0.92,-0.02,nan,nan,237.00,909.00,667.00,1039.00,1535.00,3071.00,0.00,48.00,,,,,,,,,,,,1,0,3,,-312,15980,1648,230,-368,-54
38.9,38.56,0.82,2.20,-3.35,1.46,-0.49,0.61,-0.13,nan,nan,243.00,884.00,688.00,1013.00,1553.00,3118.00,0.00,64.00,,,,,,,,,,,,1,0,3,,-336,16048,1632,-293,291,-357
39.0,38.62,0.78,1.23,-2.79,0.60,-0.20,0.09,0.33,nan,nan,240.00,905.00,688.00,1040.00,1529.00,3143.00,0.00,64.00,,,,,,,,,,,,1,0,3,,-272,16204,1344,-515,611,-277
39.022,38.67,0.78,-0.17,-1.37,-0.19,0.61,0.61,-0.15,nan,nan,228.00,921.00,668.00,1050.00,1555.00,3120.00,0.00,46.00,,,,,,,,,,,,1,0,3,,-280,16316,1420,-38,21,-58
39.065,38.73,0.75,1.78,-3.73,1.24,-0.39,0.33,-0.24,nan,nan,250.00,908.00,687.00,1019.00,1570.00,3162.00,0.00,66.00,,,,,,,,,,,,1,0,3,,-224,16220,1404,530,-276,-4
39.106,38.78,0.71,1.63,-3.83,0.95,-0.72,-0.02,0.01,nan,nan,252.00,916.00,703.00,1040.00,1559.00,3184.00,0.00,83.00,,,,,,,,,,,,1,0,3,,-184,16180,1100,95,-445,-218
39.168,38.84,0.70,0.80,-2.65,0.28,-0.12,0.40,0.18,nan,nan,240.00,917.00,689.00,1051.00,1533.00,3118.00,0.00,59.00,,,,,,,,,,,,1,0,3,,-272,16124,1232,112,-875,-132
39.233,38.89,0.72,1.10,-2.52,0.64,0.36,1.03,-0.37,nan,nan,237.00,903.00,667.00,1023.00,1561.00,3086.00,0.00,53.00,,,,,,,,,,,,1,0,4,,-268,16188,1408,124,-1154,-141
39.273,38.95,0.71,2.66,-4.32,0.97,-0.75,0.65,0.08,nan,nan,254.00,891.00,704.00,1040.00,1534.00,3095.00,0.00,80.00,,,,,,,,,,,,1,0,4,,-444,16188,1644,-97,-931,-222
39.355,39.00,0.70,1.18,-3.00,0.29,0.03,0.51,0.61,nan,nan,243.00,912.00,683.00,1046.00,1495.00,3069.00,0.00,64.00,,,,,,,,,,,,1,0,4,,-308,16084,1576,23,-851,-77
39.375,39.06,0.72,1.63,-2.46,0.80,0.44,1.03,-0.06,nan,nan,234.00,883.00,662.00,1014.00,1535.00,3060.00,0.00,48.00,,,,,,,,,,,,1,0,4,,-164,16248,1456,302,-456,-103
39.437,39.11,0.72,2.37,-3.18,2.02,-0.66,0.77,0.03,nan,nan,240.00,874.00,687.00,995.00,1535.00,3085.00,0.00,64.00,,,,,,,,,,,,1,0,4,,-260,16020,1276,60,-175,-103
39.5,39.17,0.71,1.12,-1.97,1.18,-0.26,0.49,0.37,nan,nan,230.00,889.00,683.00,1018.00,1515.00,3091.00,0.00,64.00,,,,,,,,,,,,1,0,4,,-296,16140,1156,79,-104,-37
39.542,39.22,0.72,-0.05,-0.16,0.11,0.84,0.94,-0.03,nan,nan,213.00,887.00,656.00,1031.00,1535.00,3069.00,0.00,42.00,,,,,,,,,,,,1,0,4,,-156,16160,1292,133,63,-72
39.603,39.28,0.73,2.36,-2.94,1.77,-0.35,0.81,-0.20,nan,nan,237.00,869.00,679.00,997.00,1553.00,3099.00,0.00,61.00,,,,,,,,,,,,1,0,4,,-172,16332,972,667,28,-147
39.666,39.33,0.71,1.91,-3.17,1.50,-0.59,0.33,0.25,nan,nan,242.00,890.00,691.00,1014.00,1529.00,3120.00,0.00,80.00,,,,,,,,,,,,1,0,4,,-200,16404,1224,2612,-672,191
39.746,39.39,0.69,1.17,-1.66,0.45,-0.13,0.39,0.16,nan,nan,226.00,880.00,687.00,1044.00,1535.00,3121.00,0.00,70.00,,,,,,,,,,,,1,0,4,,-80,16324,888,2845,-662,95
39.767,39.44,0.69,0.85,-1.31,0.48,0.08,0.61,-0.51,nan,nan,223.00,883.00,679.00,1037.00,1585.00,3149.00,0.00,78.00,,,,,,,,,,,,1,0,4,,8,16028,388,1212,-500,-93
39.831,39.50,0.64,2.56,-4.50,2.64,-1.60,-0.19,-0.07,nan,nan,257.00,899.00,715.00,996.00,1571.00,3213.00,0.00,108.00,,,,,,,,,,,,1,0,4,,-116,16276,336,125,-26,-172
39.871,39.55,0.63,0.53,-2.09,-0.07,-0.03,0.46,-0.23,nan,nan,234.00,913.00,690.00,1063.00,1566.00,3145.00,0.00,79.00,,,,,,,,,,,,1,0,4,,-68,16064,220,-342,283,-285
39.934,39.61,0.65,0.84,-1.47,0.43,0.26,0.93,-0.40,nan,nan,225.00,887.00,673.00,1034.00,1567.00,3101.00,0.00,66.00,,,,,,,,,,,,1,0,4,,-176,16176,504,-314,427,-203
39.996,39.66,0.66,1.81,-2.99,1.71,-0.50,0.83,-0.30,nan,nan,240.00,889.00,685.00,1003.00,1561.00,3105.00,0.00,77.00,,,,,,,,,,,,1,0,4,,-116,16236,424,-155,328,-155
40.099,39.72,0.65,0.89,-2.29,1.52,-0.52,0.58,0.24,nan,nan,235.00,905.00,688.00,1011.00,1523.00,3091.00,0.00,81.00,,,,,,,,,,,,1,0,4,,-68,16356,364,-175,224,-204
40.12,39.77,0.67,-0.18,-0.88,0.40,0.74,0.92,-0.02,nan,nan,222.00,909.00,656.00,1022.00,1535.00,3071.00,0.00,58.00,,,,,,,,,,,,1,0,4,,-8,16380,444,-53,352,-223
40.182,39.83,0.69,1.96,-3.11,1.88,-0.25,1.05,-0.43,nan,nan,241.00,887.00,674.00,990.00,1566.00,3089.00,0.00,73.00,,,,,,,,,,,,1,0,4,,-100,16204,336,-68,270,-134
40.223,39.88,0.67,1.16,-2.77,1.76,-0.76,0.40,0.16,nan,nan,240.00,907.00,694.00,1008.00,1535.00,3120.00,0.00,84.00,,,,,,,,,,,,1,0,4,,-124,16344,424,-125,147,-155
40.285,39.94,0.66,0.48,-2.54,0.53,0.03,0.53,0.11,nan,nan,240.00,926.00,680.00,1036.00,1535.00,3107.00,0.00,72.00,,,,,,,,,,,,1,0,4,,-160,16176,548,-199,180,-230
40.326,39.99,0.68,1.01,-2.72,1.15,-0.04,0.97,-0.63,nan,nan,240.00,911.00,675.00,1013.00,1585.00,3115.00,0.00,67.00,,,,,,,,,,,,1,0,4,,-172,16160,516,-461,347,-146
40.389,40.05,0.66,2.16,-4.65,1.93,-1.08,0.20,-0.11,nan,nan,261.00,917.00,704.00,1010.00,1563.00,3167.00,0.00,92.00,,,,,,,,,,,,1,0,4,,-276,16260,628,-850,472,-132
40.471,40.10,0.62,-0.37,-2.64,0.20,0.07,0.03,0.28,nan,nan,245.00,960.00,683.00,1049.00,1535.00,3155.00,0.00,73.00,,,,,,,,,,,,1,0,4,,-44,16260,748,-1000,723,-302
40.492,40.16,0.62,-0.77,-3.46,0.35,0.34,0.55,-0.45,nan,nan,258.00,997.00,671.00,1035.00,1582.00,3152.00,0.00,55.00,,,,,,,,,,,,1,0,4,,-80,16160,696,-618,510,-71
40.533,40.21,0.59,0.60,-5.36,1.51,-0.35,0.10,-0.31,nan,nan,279.00,994.00,682.00,1007.00,1583.00,3197.00,0.00,74.00,,,,,,,,,,,,1,0,4,,-212,16424,924,-378,412,11
40.596,40.27,0.55,-0.17,-4.57,0.76,-0.26,-0.22,0.36,nan,nan,271.00,1003.00,688.00,1035.00,1535.00,3179.00,0.00,76.00,,,,,,,,,,,,1,0,4,,16,16380,752,-368,553,-264
40.659,40.32,0.56,-0.33,-3.53,0.06,0.77,0.73,-0.18,nan,nan,257.00,982.00,659.00,1035.00,1554.00,3107.00,0.00,53.00,,,,,,,,,,,,1,0,4,,-96,16280,884,-188,157,-218
40.7,40.38,0.57,1.13,-4.38,1.71,-0.11,0.68,-0.20,nan,nan,262.00,948.00,671.00,993.00,1557.00,3115.00,0.00,67.00,,,,,,,,,,,,1,0,4,,-144,15976,1080,-151,363,-82
40.762,40.43,0.56,2.01,-5.43,1.69,-0.65,0.43,0.15,nan,nan,273.00,942.00,691.00,1008.00,1535.00,3117.00,0.00,79.00,,,,,,,,,,,,1,0,4,,-300,16252,1672,-557,1508,-294
40.823,40.49,0.55,1.01,-2.79,0.76,0.18,0.35,0.17,nan,nan,241.00,913.00,672.00,1023.00,1535.00,3125.00,0.00,79.00,,,,,,,,,,,,1,0,4,,-680,16524,4124,-1480,5947,-315
40.885,40.54,0.57,1.03,-1.45,1.17,0.12,1.00,-0.52,nan,nan,224.00,880.00,669.00,1008.00,1575.00,3102.00,0.00,63.00,,,,,,,,,,,,1,0,4,,-412,15920,1184,-2332,8921,-643
40.948,40.60,0.56,1.97,-4.38,2.17,-1.03,0.24,0.21,nan,nan,258.00,917.00,699.00,999.00,1535.00,3135.00,0.00,87.00,,,,,,,,,,,,1,0,4,,-12,16152,-208,-1310,6746,-299
40.989,40.65,0.54,0.41,-3.78,0.30,0.28,0.22,0.29,nan,nan,257.00,960.00,674.00,1039.00,1529.00,3131.00,0.00,64.00,,,,,,,,,,,,1,0,4,,-312,16668,-72,-137,3367,-402
41.03,40.71,0.55,0.15,-3.48,0.41,0.68,0.69,-0.28,nan,nan,254.00,962.00,658.00,1023.00,1563.00,3120.00,0.00,48.00,,,,,,,,,,,,1,0,4,,-120,15688,-140,245,-293,257
41.09,40.76,0.54,1.14,-5.21,1.75,-0.40,0.35,-0.17,nan,nan,274.00,969.00,681.00,999.00,1564.00,3154.00,0.00,65.00,,,,,,,,,,,,1,0,4,,-200,16700,364,984,-2219,119
41.215,40.82,0.50,0.20,-4.96,0.55,-0.13,-0.25,0.37,nan,nan,275.00,999.00,686.00,1040.00,1535.00,3182.00,0.00,72.00,,,,,,,,,,,,1,0,4,,-408,15788,616,-257,-3210,-415
41.234,40.87,0.48,-0.87,-4.80,-0.27,0.97,0.15,-0.13,nan,nan,278.00,1038.00,656.00,1043.00,1566.00,3175.00,0.00,51.00,,,,,,,,,,,,1,0,4,,-648,16416,1740,-898,-3191,423
41.276,40.93,0.46,1.04,-5.96,1.48,-0.34,0.12,-0.34,nan,nan,286.00,993.00,682.00,1008.00,1585.00,3197.00,0.00,66.00,,,,,,,,,,,,1,0,4,,-640,15940,1692,368,-1599,-365
41.338,40.98,0.44,-0.29,-7.99,0.83,-0.36,0.10,-0.05,nan,nan,327.00,1105.00,691.00,1035.00,1561.00,3175.00,0.00,74.00,,,,,,,,,,,,1,0,4,,-520,15332,1200,169,-1262,1668
41.358,41.04,0.44,-0.61,-8.05,0.41,0.30,0.36,0.17,nan,nan,330.00,1121.00,672.00,1034.00,1535.00,3124.00,0.00,59.00,,,,,,,,,,,,1,0,4,,-340,16900,896,-1845,-354,-410
41.421,41.09,0.48,0.12,-8.63,1.30,0.30,1.23,-0.43,nan,nan,336.00,1106.00,661.00,998.00,1561.00,3067.00,0.00,54.00,,,,,,,,,,,,1,0,4,,-292,16008,1588,-2136,18,-596
41.484,41.15,0.49,1.78,-10.15,2.67,-0.93,0.63,0.17,nan,nan,354.00,1079.00,689.00,977.00,1527.00,3090.00,0.00,80.00,,,,,,,,,,,,1,0,4,,-516,16456,1856,-2816,209,-1235
41.566,41.20,0.50,-0.52,-7.69,1.07,0.27,0.78,0.36,nan,nan,323.00,1106.00,665.00,1008.00,1508.00,3057.00,0.00,64.00,,,,,,,,,,,,1,0,4,,-652,15932,2764,-2421,300,-977
41.607,41.26,0.54,-0.71,-8.41,1.28,0.59,1.17,-0.10,nan,nan,337.00,1136.00,651.00,991.00,1535.00,3047.00,0.00,49.00,,,,,,,,,,,,1,0,4,,-768,16008,3252,684,-108,113
41.647,41.31,0.55,0.30,-10.12,2.18,-0.25,0.76,0.04,nan,nan,363.00,1143.00,670.00,978.00,1535.00,3086.00,0.00,64.00,,,,,,,,,,,,1,0,4,,-408,16056,2280,2052,-715,371
41.688,41.37,0.53,-0.29,-9.25,1.33,-0.15,0.20,0.37,nan,nan,350.00,1143.00,677.00,1009.00,1523.00,3127.00,0.00,64.00,,,,,,,,,,,,1,0,4,,-440,15968,1648,1766,-1525,125
41.75,41.42,0.53,-1.16,-8.20,0.34,0.79,0.58,-0.13,nan,nan,336.00,1150.00,655.00,1023.00,1554.00,3122.00,0.00,45.00,,,,,,,,,,,,1,0,4,,-560,15880,2140,1818,-1478,643
41.814,41.48,0.49,0.22,-9.83,1.39,-0.06,-0.23,-0.03,nan,nan,358.00,1138.00,673.00,1004.00,1568.00,3214.00,0.00,67.00,,,,,,,,,,,,1,0,4,,-428,15904,1984,1303,-745,250
41.873,41.53,0.45,-0.17,-10.26,1.14,-0.39,-0.32,0.16,nan,nan,369.00,1169.00,688.00,1023.00,1555.00,3210.00,0.00,80.00,,,,,,,,,,,,1,0,5,,-92,15968,1564,825,-98,236
41.936,41.59,0.41,-1.07,-9.91,-0.30,0.21,-0.35,0.02,nan,nan,368.00,1200.00,684.00,1066.00,1568.00,3226.00,0.00,65.00,,,,,,,,,,,,1,0,5,,-68,16028,1364,-1909,280,28
41.978,41.64,0.38,-0.50,-10.35,0.20,0.17,-0.15,-0.44,nan,nan,373.00,1187.00,679.00,1046.00,1601.00,3239.00,0.00,65.00,,,,,,,,,,,,1,0,5,,96,16068,1484,-2079,164,76
42.039,41.70,0.32,0.49,-11.55,1.13,-1.09,-0.88,-0.01,nan,nan,391.00,1179.00,715.00,1043.00,1585.00,3296.00,0.00,90.00,,,,,,,,,,,,1,0,5,,36,16548,1860,-743,153,-19
