Time_Host,Time_Arduino,easingdata,CH1_Oxy,CH1_Deoxy,CH2_Oxy,CH2_Deoxy,CH3_Oxy,CH3_Deoxy,CH4_Oxy,CH4_Deoxy,CH1_PD730,CH1_PD850,CH2_PD730,CH2_PD850,CH3_PD730,CH3_PD850,CH4_PD730,CH4_PD850,Answers,airplane_playstate,trail_times,frameRate,Airplane X,Airplane Y,Correct,Wrong,Slow,AnswerRate,CorrectRate,VFTstates,VFTchoose,VFTCount,Culfstates,ax,ay,az,gx,gy,gz
1.163,0.04,0.00,0.00,0.00,0.00,0.00,0.00,0.00,0.00,0.00,383.00,672.00,182.00,210.00,573.00,1329.00,550.00,851.00,,,,,,,,,,,,0,0,0,,-2168,16076,128,-134,112,-93
1.184,0.10,0.00,0.00,0.00,0.00,0.00,0.00,0.00,0.00,0.00,306.00,715.00,114.00,246.00,602.00,1288.00,586.00,806.00,,,,,,,,,,,,0,0,0,,-2096,16312,148,-177,117,-187
1.205,0.15,0.00,0.00,0.00,0.00,0.00,0.00,0.00,0.00,0.00,366.00,658.00,146.00,207.00,638.00,1279.00,592.00,837.00,,,,,,,,,,,,0,0,0,,-2084,16060,188,-195,38,-227
1.227,0.21,0.00,0.00,0.00,0.00,0.00,0.00,0.00,0.00,0.00,398.00,692.00,199.00,193.00,601.00,1329.00,566.00,870.00,,,,,,,,,,,,0,0,0,,-2180,16196,140,-121,-55,-177
1.246,0.26,0.00,0.00,0.00,0.00,0.00,0.00,0.00,0.00,0.00,329.00,704.00,181.00,250.00,576.00,1275.00,570.00,821.00,,,,,,,,,,,,0,0,0,,-2256,16132,220,-135,59,-113
1.266,1.05,0.00,0.00,0.00,0.00,0.00,0.00,0.00,0.00,0.00,353.00,638.00,131.00,208.00,656.00,1263.00,608.00,826.00,,,,,,,,,,,,0,0,0,,-2256,15996,428,-311,79,-139
1.306,1.11,0.00,0.00,0.00,0.00,0.00,0.00,0.00,0.00,0.00,401.00,656.00,210.00,177.00,613.00,1339.00,565.00,880.00,,,,,,,,,,,,0,0,0,,-2244,16112,164,-324,119,-130
1.369,1.16,0.00,0.00,0.00,0.00,0.00,0.00,0.00,0.00,0.00,336.00,709.00,161.00,259.00,565.00,1298.00,560.00,837.00,,,,,,,,,,,,0,0,0,,-2256,16084,212,-283,143,-55
1.472,1.22,0.00,0.00,0.00,0.00,0.00,0.00,0.00,0.00,0.00,338.00,656.00,107.00,224.00,637.00,1243.00,615.00,803.00,,,,,,,,,,,,0,0,0,,-2156,16200,280,-283,111,-56
1.494,1.27,0.00,0.00,0.00,0.00,0.00,0.00,0.00,0.00,0.00,355.00,638.00,151.00,146.00,626.00,1291.00,578.00,848.00,,,,,,,,,,,,0,0,0,,-2188,16260,400,-303,95,-113
1.513,1.33,-0.11,1.12,-0.66,3.05,-3.62,-2.15,2.49,-1.67,2.02,362.00,656.00,182.00,207.00,553.00,1317.00,535.00,848.00,,,,,,,,,,,,0,0,0,,-2176,16252,264,-181,53,-227
1.554,1.38,-0.04,-3.17,4.01,-12.19,13.52,1.15,-0.27,1.86,-0.59,304.00,686.00,95.00,239.00,605.00,1245.00,578.00,791.00,,,,,,,,,,,,0,0,0,,-2168,16068,404,-130,15,-239
1.616,1.44,0.01,2.32,0.04,7.08,-0.64,1.00,-1.29,0.06,-0.40,341.00,614.00,144.00,163.00,641.00,1287.00,591.00,845.00,,,,,,,,,,,,0,0,0,,-2200,16104,352,-64,29,-213
1.678,1.49,-0.08,1.75,-2.20,5.46,-5.51,-1.84,1.19,-1.87,1.75,389.00,667.00,193.00,198.00,590.00,1347.00,545.00,861.00,,,,,,,,,,,,0,0,0,,-2108,15964,284,-35,127,-168
1.739,1.55,-0.13,-2.21,1.84,-6.66,2.50,-0.98,0.94,-0.05,0.11,336.00,700.00,156.00,258.00,589.00,1311.00,576.00,837.00,,,,,,,,,,,,0,0,0,,-2300,16172,228,-85,129,-137
1.822,1.60,-0.05,0.76,-0.13,-2.56,3.25,1.45,-2.06,1.05,-1.74,354.00,656.00,139.00,215.00,663.00,1291.00,624.00,842.00,,,,,,,,,,,,0,0,0,,-2164,16188,364,2,103,-122
1.843,1.66,-0.13,1.65,-3.05,9.33,-8.28,-1.73,0.30,-2.27,0.89,408.00,685.00,209.00,183.00,618.00,1374.00,575.00,895.00,,,,,,,,,,,,0,0,0,,-2244,16372,280,-127,89,-213
1.883,1.71,-0.23,-3.85,2.95,-7.74,1.71,-2.02,1.99,-1.26,1.40,326.00,725.00,166.00,275.00,567.00,1328.00,549.00,848.00,,,,,,,,,,,,0,0,0,,-2168,15964,248,-296,68,-211
1.944,1.77,-0.15,-0.63,1.36,-10.34,12.70,1.31,-0.54,1.79,-1.01,335.00,666.00,96.00,227.00,612.00,1246.00,592.00,802.00,,,,,,,,,,,,0,0,0,,-2272,16056,356,-270,7,-224
2.006,1.82,-0.12,1.30,0.11,8.64,-1.55,0.44,-0.61,-0.03,-0.40,346.00,638.00,147.00,157.00,624.00,1292.00,592.00,848.00,,,,,,,,,,,,0,0,0,,-2316,16068,404,-295,8,-145
2.09,1.88,-0.24,1.26,-0.86,2.26,-2.62,-2.45,2.80,-1.57,1.92,365.00,656.00,175.00,208.00,547.00,1322.00,537.00,847.00,,,,,,,,,,,,0,0,0,,-2200,16004,352,-179,64,-95
2.112,1.93,-0.19,-3.31,4.06,-11.29,11.72,0.75,0.14,1.54,-0.45,304.00,689.00,103.00,242.00,596.00,1251.00,577.00,798.00,,,,,,,,,,,,0,0,0,,-2228,16164,488,-62,120,-139
2.195,1.99,-0.13,3.10,-0.81,5.62,-0.28,0.97,-1.43,0.21,-0.76,352.00,609.00,145.00,171.00,646.00,1293.00,601.00,848.00,,,,,,,,,,,,0,0,0,,-2256,16120,288,-29,120,-113
2.216,2.04,-0.20,1.73,-1.96,5.96,-6.24,-1.49,0.80,-1.32,0.77,384.00,663.00,199.00,198.00,599.00,1343.00,569.00,865.00,,,,,,,,,,,,0,0,0,,-2236,16040,356,-117,94,-184
2.279,2.10,-0.23,-2.72,2.06,-7.33,2.49,-0.74,0.76,0.20,-0.04,335.00,710.00,158.00,265.00,592.00,1305.00,578.00,832.00,,,,,,,,,,,,0,0,0,,-2200,16288,248,-175,31,-185
2.342,2.15,-0.13,1.31,-0.83,-4.00,4.69,1.62,-2.32,0.86,-1.67,364.00,654.00,132.00,219.00,670.00,1291.00,624.00,847.00,,,,,,,,,,,,0,0,0,,-2168,16036,560,-220,40,-151
2.383,2.21,-0.19,1.43,-2.88,6.67,-8.58,-1.27,-0.41,-2.39,0.90,406.00,688.00,223.00,205.00,637.00,1375.00,576.00,899.00,,,,,,,,,,,,0,0,0,,-2276,16016,512,-276,60,-137
2.446,2.26,-0.29,-2.69,1.04,-7.03,0.39,-2.16,1.78,-0.93,0.93,354.00,729.00,176.00,277.00,575.00,1343.00,560.00,848.00,,,,,,,,,,,,0,0,0,,-2164,16176,460,-280,117,-154
2.509,2.32,-0.23,-1.40,1.35,-11.04,10.59,0.95,-0.84,1.32,-1.01,340.00,687.00,109.00,247.00,626.00,1274.00,597.00,817.00,,,,,,,,,,,,0,0,0,,-2156,16216,456,-208,56,-160
2.572,2.37,-0.23,1.09,-0.95,7.64,-4.54,-0.37,-0.83,-1.11,0.28,368.00,662.00,176.00,177.00,641.00,1342.00,582.00,869.00,,,,,,,,,,,,0,0,0,,-2124,16052,524,-132,21,-138
2.656,2.43,-0.36,0.29,-1.47,-0.09,-3.54,-2.76,1.95,-2.13,2.04,384.00,693.00,192.00,234.00,576.00,1369.00,539.00,863.00,,,,,,,,,,,,0,0,0,,-2208,16412,460,-198,139,-264
2.677,2.48,-0.29,-3.98,3.51,-12.20,9.67,1.08,-0.79,1.43,-0.39,317.00,718.00,117.00,265.00,623.00,1266.00,576.00,800.00,,,,,,,,,,,,0,0,0,,-2172,15896,492,-193,89,-307
2.718,2.54,-0.20,2.85,-0.99,5.66,-1.41,1.40,-1.99,-0.00,-0.44,357.00,618.00,154.00,176.00,661.00,1291.00,593.00,848.00,,,,,,,,,,,,0,0,0,,-2208,16152,416,-151,-68,-259
2.781,2.59,-0.24,1.48,-1.92,5.54,-6.74,-0.97,0.14,-1.44,1.07,385.00,669.00,206.00,204.00,615.00,1339.00,561.00,862.00,,,,,,,,,,,,0,0,0,,-2232,16192,632,-137,9,-229
2.844,2.65,-0.25,-2.53,1.89,-10.56,4.29,-0.37,0.73,-0.30,0.49,337.00,708.00,152.00,287.00,589.00,1287.00,567.00,837.00,,,,,,,,,,,,0,0,0,,-2352,16168,536,-80,167,-247
2.928,2.70,-0.12,1.61,-0.57,-5.98,7.27,2.28,-2.07,1.45,-1.87,357.00,642.00,119.00,221.00,653.00,1249.00,624.00,832.00,,,,,,,,,,,,0,0,0,,-2212,16292,444,36,171,-166
2.949,2.76,-0.18,2.74,-3.05,11.47,-8.91,-1.20,0.33,-2.27,1.02,400.00,656.00,208.00,171.00,611.00,1344.00,571.00,892.00,,,,,,,,,,,,0,0,0,,-2252,16012,328,-54,125,-178
2.992,2.81,-0.24,-1.97,1.27,-4.35,0.58,-1.42,2.02,-0.93,1.50,345.00,704.00,166.00,248.00,560.00,1296.00,543.00,835.00,,,,,,,,,,,,0,0,0,,-2188,16132,360,-95,58,-223
3.053,2.87,-0.21,-0.97,2.15,-11.93,15.06,0.23,1.56,1.56,-0.90,323.00,661.00,87.00,227.00,557.00,1229.00,591.00,807.00,,,,,,,,,,,,0,0,0,,-2372,16152,432,-84,64,-257
3.095,2.92,-0.17,1.63,0.17,8.94,-1.27,0.69,-0.72,-0.16,-0.07,343.00,629.00,144.00,154.00,625.00,1283.00,583.00,845.00,,,,,,,,,,,,0,0,0,,-2316,16104,480,-180,44,-251
3.159,2.98,-0.27,1.39,-1.05,3.24,-3.16,-2.20,2.31,-1.86,2.29,368.00,656.00,177.00,203.00,559.00,1326.00,529.00,848.00,,,,,,,,,,,,0,0,0,,-2280,16124,572,-230,103,-188
3.221,3.03,-0.22,-4.02,4.29,-12.88,12.26,0.69,0.28,1.90,-0.51,304.00,704.00,103.00,254.00,592.00,1249.00,575.00,788.00,,,,,,,,,,,,0,0,0,,-2324,16072,528,-234,125,-149
3.284,3.09,-0.15,2.10,-0.42,2.71,1.08,1.30,-1.57,0.12,-0.45,351.00,627.00,142.00,185.00,647.00,1281.00,592.00,844.00,,,,,,,,,,,,0,0,0,,-2276,16148,580,-172,101,-144
3.327,3.14,-0.22,1.09,-1.79,6.45,-6.77,-1.69,0.62,-1.73,0.81,385.00,677.00,203.00,197.00,607.00,1360.00,572.00,878.00,,,,,,,,,,,,0,0,0,,-2368,16112,508,-87,88,-82
3.368,3.20,-0.27,-3.81,2.49,-8.66,2.14,-1.24,1.25,-0.34,0.50,334.00,733.00,165.00,282.00,582.00,1314.00,567.00,838.00,,,,,,,,,,,,0,0,0,,-2228,16316,648,-76,177,-96
3.43,3.25,-0.16,0.88,-0.58,-6.36,6.34,2.01,-2.20,1.45,-1.87,362.00,661.00,126.00,230.00,661.00,1267.00,624.00,832.00,,,,,,,,,,,,0,0,0,,-2232,16052,564,-114,122,-290
3.494,3.31,-0.18,2.74,-3.05,13.52,-9.69,-0.49,-0.11,-4.18,4.34,400.00,656.00,209.00,161.00,618.00,1323.00,494.00,880.00,,,,,,,,,,,,0,0,0,,-2272,16080,568,-39,-41,-190
3.555,3.36,-0.26,-0.45,0.54,-1.45,-0.73,-1.85,2.80,-0.81,1.46,349.00,676.00,169.00,229.00,541.00,1291.00,543.00,832.00,,,,,,,,,,,,0,0,0,,-2232,16036,592,-143,78,-156
3.596,3.42,-0.15,-1.18,2.56,-9.37,11.44,1.98,-0.34,2.13,-0.72,317.00,659.00,101.00,226.00,598.00,1207.00,579.00,785.00,,,,,,,,,,,,0,0,0,,-2384,16240,404,-175,149,-156
3.658,3.47,-0.08,1.86,0.31,9.81,-2.32,1.23,-1.02,-0.17,0.03,339.00,621.00,150.00,153.00,629.00,1266.00,580.00,843.00,,,,,,,,,,,,0,0,0,,-2228,16024,492,-74,125,-38
3.72,3.53,-0.17,1.58,-1.22,3.35,-4.41,-1.99,2.34,-1.85,2.32,370.00,654.00,189.00,209.00,556.00,1314.00,528.00,847.00,,,,,,,,,,,,0,0,0,,-2200,16068,652,23,124,-159
3.782,3.58,-0.10,-2.50,3.78,-12.87,11.38,1.41,0.04,2.01,-0.48,304.00,672.00,108.00,260.00,592.00,1222.00,573.00,784.00,,,,,,,,,,,,0,0,0,,-2288,16148,464,60,137,-153
3.843,3.64,0.01,1.83,-0.43,0.60,1.66,2.08,-1.71,0.94,-0.94,353.00,634.00,143.00,198.00,643.00,1247.00,599.00,828.00,,,,,,,,,,,,0,0,0,,-2200,16052,392,51,178,-231
3.864,3.69,-0.04,2.45,-2.91,8.07,-8.21,-0.99,0.48,-1.64,0.81,399.00,661.00,213.00,192.00,604.00,1328.00,571.00,875.00,,,,,,,,,,,,0,0,0,,-2324,16020,328,-70,49,-273
3.947,3.75,-0.06,-3.09,2.13,-7.85,2.43,-0.55,1.21,0.17,0.56,336.00,719.00,160.00,271.00,576.00,1280.00,560.00,820.00,,,,,,,,,,,,0,0,0,,-2440,16068,412,-140,36,-173
4.05,3.80,0.07,1.38,-0.75,-2.90,4.46,2.67,-2.28,1.82,-1.61,362.00,651.00,131.00,211.00,656.00,1237.00,611.00,814.00,,,,,,,,,,,,0,0,0,,-2328,16156,648,-89,126,-153
4.07,3.86,0.06,2.64,-3.02,10.53,-8.60,-0.17,-0.37,-0.68,0.42,400.00,658.00,208.00,176.00,623.00,1315.00,573.00,851.00,,,,,,,,,,,,0,0,0,,-2340,16060,504,-11,230,-172
4.111,3.91,-0.05,0.08,0.21,-0.51,-1.80,-2.23,2.59,-0.95,1.57,352.00,668.00,176.00,227.00,551.00,1318.00,541.00,834.00,,,,,,,,,,,,0,0,0,,-2280,16080,496,-24,114,-145
4.172,3.97,0.01,-1.36,1.55,-9.77,9.18,1.23,-0.69,1.74,-0.84,336.00,682.00,115.00,244.00,618.00,1255.00,587.00,800.00,,,,,,,,,,,,0,0,0,,-2292,16200,420,38,62,-136
4.233,4.02,0.04,1.47,-0.31,8.10,-3.05,0.62,-1.11,-0.16,0.05,353.00,641.00,161.00,167.00,639.00,1300.00,579.00,842.00,,,,,,,,,,,,0,0,0,,-2280,16280,364,-47,164,-210
4.274,4.08,-0.08,1.10,-1.74,2.46,-4.50,-2.38,2.11,-2.09,2.37,384.00,676.00,193.00,217.00,567.00,1343.00,529.00,854.00,,,,,,,,,,,,0,0,0,,-2356,15916,300,-217,68,-264
4.336,4.13,-0.03,-5.29,6.71,-11.77,10.34,0.82,0.24,1.73,-0.26,273.00,694.00,112.00,256.00,592.00,1244.00,569.00,788.00,,,,,,,,,,,,0,0,0,,-2256,16160,440,-116,-29,-206
4.399,4.19,0.08,1.62,-0.47,-0.93,2.44,2.16,-1.94,1.24,-0.89,355.00,640.00,141.00,206.00,650.00,1251.00,594.00,817.00,,,,,,,,,,,,0,0,0,,-2340,16092,648,-86,107,-190
4.42,4.24,0.04,2.74,-3.05,7.93,-7.81,-0.60,0.37,-3.59,4.06,400.00,656.00,209.00,191.00,603.00,1311.00,496.00,866.00,,,,,,,,,,,,0,0,0,,-2304,16152,472,-63,156,-224
4.483,4.30,0.01,-2.49,2.04,-7.14,2.08,-0.51,1.32,3.42,-0.76,334.00,704.00,161.00,266.00,572.00,1274.00,567.00,747.00,,,,,,,,,,,,0,0,0,,-2276,16248,208,73,144,-157
4.525,4.35,0.17,1.68,-0.85,-4.84,6.28,3.13,-2.38,2.62,-1.90,362.00,645.00,123.00,217.00,654.00,1218.00,612.00,795.00,,,,,,,,,,,,0,0,0,,-2088,16052,444,-25,123,-150
4.585,4.41,0.20,2.50,-2.40,12.39,-7.55,0.76,-0.45,-0.14,0.47,388.00,651.00,190.00,159.00,615.00,1270.00,566.00,832.00,,,,,,,,,,,,0,0,0,,-2308,16280,472,-70,120,-251
4.647,4.46,0.11,0.85,-0.26,1.33,-2.31,-1.65,2.77,-0.57,1.51,356.00,656.00,175.00,214.00,540.00,1282.00,539.00,823.00,,,,,,,,,,,,0,0,0,,-2376,16072,524,-10,105,-287
4.709,4.52,0.20,-1.26,2.02,-11.66,12.58,2.06,-0.40,2.13,-0.62,327.00,671.00,99.00,240.00,599.00,1205.00,576.00,783.00,,,,,,,,,,,,0,0,0,,-2332,15976,332,-39,8,-311
4.77,4.57,0.25,2.26,-0.47,10.35,-3.10,1.21,-1.13,-0.00,0.00,351.00,624.00,155.00,153.00,633.00,1271.00,579.00,838.00,,,,,,,,,,,,0,0,0,,-2316,16116,564,9,29,-253
4.81,4.63,0.15,1.66,-2.08,4.75,-6.47,-1.90,2.21,-1.86,2.29,387.00,667.00,206.00,209.00,559.00,1314.00,529.00,848.00,,,,,,,,,,,,0,0,0,,-2300,16032,500,-11,151,-232
4.873,4.68,0.15,-4.16,4.40,-12.20,9.67,0.16,0.18,0.92,-0.05,303.00,706.00,117.00,265.00,601.00,1279.00,571.00,809.00,,,,,,,,,,,,0,0,0,,-2416,16068,300,-31,163,-154
4.934,4.74,0.22,1.71,-1.01,-0.91,1.17,1.53,-1.87,0.94,-1.04,365.00,647.00,151.00,213.00,655.00,1280.00,602.00,830.00,,,,,,,,,,,,0,0,0,,-2224,16064,428,34,92,-212
4.995,4.79,0.14,1.16,-2.66,5.97,-8.10,-1.40,0.58,-1.76,0.85,403.00,691.00,220.00,208.00,605.00,1346.00,571.00,878.00,,,,,,,,,,,,0,0,0,,-2348,16060,328,58,128,-188
5.036,4.85,0.09,-2.80,1.65,-7.87,2.32,-0.87,1.09,0.23,0.02,343.00,720.00,161.00,272.00,583.00,1300.00,576.00,830.00,,,,,,,,,,,,0,0,0,,-2508,16080,328,-134,96,-251
5.139,4.90,0.21,1.02,-0.68,-5.38,5.72,2.58,-1.97,2.09,-1.64,363.00,659.00,128.00,225.00,646.00,1231.00,609.00,806.00,,,,,,,,,,,,0,0,0,,-2388,16108,348,-5,93,-189
5.159,4.96,0.24,1.90,-1.18,8.37,-5.20,0.71,-0.31,-0.03,0.53,367.00,645.00,180.00,175.00,611.00,1268.00,563.00,827.00,,,,,,,,,,,,0,0,0,,-2540,16004,248,-109,79,-227
5.199,5.01,0.18,0.79,-0.44,0.32,-2.70,-0.94,1.92,-0.21,1.26,360.00,661.00,182.00,225.00,558.00,1275.00,543.00,817.00,,,,,,,,,,,,0,0,0,,-2376,16152,392,-137,93,-180
5.282,5.07,0.26,-1.07,2.07,-8.85,9.86,1.84,-0.41,2.12,-0.75,325.00,665.00,109.00,231.00,602.00,1216.00,580.00,786.00,,,,,,,,,,,,0,0,0,,-2404,16152,352,-30,185,-102
5.302,5.12,0.30,2.46,-0.64,7.89,-2.75,1.16,-0.94,0.03,0.21,353.00,622.00,159.00,167.00,627.00,1267.00,572.00,832.00,,,,,,,,,,,,0,0,0,,-2396,16012,392,-84,189,-153
5.365,5.18,0.22,1.93,-2.02,3.35,-4.41,-1.44,1.96,-1.50,2.21,384.00,659.00,189.00,209.00,562.00,1299.00,528.00,838.00,,,,,,,,,,,,0,0,0,,-2332,16092,248,-106,136,-210
5.407,5.23,0.23,-2.40,3.09,-7.78,6.38,0.46,0.33,-0.95,0.38,315.00,682.00,129.00,243.00,593.00,1259.00,577.00,861.00,,,,,,,,,,,,0,0,0,,-2304,16100,336,-54,129,-220
5.488,5.29,0.32,2.20,-1.33,-0.90,2.04,1.95,-1.90,1.15,-0.98,368.00,640.00,144.00,208.00,651.00,1260.00,598.00,822.00,,,,,,,,,,,,0,0,0,,-2556,16072,424,-132,47,-214
5.529,5.34,0.24,0.93,-1.44,5.86,-6.85,-1.21,0.86,-1.32,1.06,379.00,675.00,206.00,202.00,594.00,1326.00,560.00,858.00,,,,,,,,,,,,0,0,0,,-2420,16136,436,-122,88,-142
5.57,5.40,0.20,-1.87,1.13,-8.20,2.66,-0.60,1.19,0.34,0.43,347.00,704.00,159.00,273.00,577.00,1283.00,562.00,817.00,,,,,,,,,,,,0,0,0,,-2312,16072,316,-77,205,-163
5.633,5.45,0.30,1.02,-0.68,-6.03,6.68,2.27,-1.86,1.70,-1.47,363.00,659.00,123.00,225.00,646.00,1243.00,608.00,815.00,,,,,,,,,,,,0,0,0,,-2392,16080,460,-165,159,-134
5.695,5.51,0.28,1.15,-0.92,7.36,-4.13,-0.03,-0.12,-0.30,0.39,367.00,660.00,173.00,177.00,613.00,1299.00,570.00,839.00,,,,,,,,,,,,0,0,0,,-2332,16140,300,-100,57,-116
5.758,5.56,0.19,0.17,-0.64,-1.55,-0.92,-1.69,2.11,-0.56,1.27,368.00,681.00,171.00,231.00,560.00,1307.00,546.00,828.00,,,,,,,,,,,,0,0,0,,-2292,16160,296,-158,116,-125
5.8,5.62,0.24,-2.26,1.96,-10.51,10.41,1.28,-0.62,1.98,-0.92,334.00,699.00,109.00,243.00,615.00,1250.00,587.00,794.00,,,,,,,,,,,,0,0,0,,-2372,16072,432,-344,92,-232
5.862,5.67,0.29,2.48,-0.86,6.28,-2.32,1.18,-1.00,0.27,0.01,357.00,625.00,160.00,176.00,629.00,1268.00,576.00,829.00,,,,,,,,,,,,0,0,0,,-2368,16132,592,-238,-2,-152
5.922,5.73,0.21,1.85,-1.90,3.85,-4.97,-1.30,2.01,-0.91,1.84,382.00,659.00,193.00,208.00,559.00,1290.00,533.00,827.00,,,,,,,,,,,,0,0,0,,-2408,15996,516,-171,66,-171
5.985,5.78,0.23,-1.69,1.72,-4.87,2.26,0.69,0.28,1.06,-0.07,335.00,688.00,153.00,242.00,592.00,1249.00,570.00,805.00,,,,,,,,,,,,0,0,0,,-2428,16188,344,-193,123,-157
6.047,5.84,0.34,2.26,-1.30,-0.90,2.04,2.30,-1.76,1.42,-1.10,367.00,638.00,144.00,208.00,642.00,1238.00,599.00,816.00,,,,,,,,,,,,0,0,0,,-2408,16084,332,-87,165,-53
6.087,5.89,0.30,1.52,-2.36,2.24,1.77,-0.34,0.29,-1.07,0.91,394.00,676.00,138.00,185.00,603.00,1301.00,562.00,853.00,,,,,,,,,,,,0,0,0,,-2416,16032,308,-114,139,-138
6.148,5.95,0.28,-2.40,2.01,-6.43,2.30,-0.17,1.43,0.67,0.46,334.00,702.00,157.00,257.00,565.00,1253.00,558.00,806.00,,,,,,,,,,,,0,0,0,,-2416,16216,344,-216,96,-113
6.25,6.00,0.38,0.71,0.53,-4.77,6.86,2.32,-1.09,1.93,-0.65,342.00,646.00,119.00,213.00,619.00,1215.00,579.00,790.00,,,,,,,,,,,,0,0,0,,-2372,16112,496,-194,137,-127
6.27,6.06,0.39,0.27,0.09,8.59,-3.33,0.55,-0.10,-0.11,0.65,353.00,665.00,162.00,165.00,606.00,1269.00,560.00,827.00,,,,,,,,,,,,0,0,0,,-2464,16216,428,-184,120,-192
6.291,6.11,0.31,1.30,-0.92,-0.84,-1.48,-1.23,2.29,-0.18,1.21,366.00,656.00,174.00,228.00,550.00,1277.00,544.00,817.00,,,,,,,,,,,,0,0,0,,-2464,15944,544,-158,84,-136
6.353,6.17,0.38,-2.09,2.41,-4.22,3.03,1.65,-0.47,2.23,-0.81,325.00,686.00,145.00,231.00,606.00,1227.00,581.00,784.00,,,,,,,,,,,,0,0,0,,-2260,16176,504,-151,125,-155
6.413,6.22,0.42,5.13,-4.71,7.82,-3.52,1.36,-1.35,0.38,-0.16,419.00,624.00,166.00,171.00,639.00,1271.00,580.00,829.00,,,,,,,,,,,,0,0,0,,-2392,16136,436,-135,163,-153
6.475,6.28,0.35,1.13,-1.85,2.23,-4.32,-1.08,1.35,-1.54,1.88,386.00,677.00,192.00,218.00,577.00,1302.00,538.00,847.00,,,,,,,,,,,,0,0,0,,-2308,16024,432,-132,99,-172
6.616,6.33,0.33,-2.43,1.59,-7.92,2.80,0.00,0.30,0.74,-0.15,342.00,711.00,157.00,269.00,599.00,1283.00,576.00,817.00,,,,,,,,,,,,0,0,0,,-2300,16120,440,-31,119,-70
6.638,6.39,0.41,1.04,-0.99,-3.91,3.05,1.89,-2.02,1.00,-1.21,369.00,664.00,144.00,228.00,656.00,1267.00,607.00,832.00,,,,,,,,,,,,0,0,0,,-2352,16136,528,-186,149,-349
6.658,6.44,0.37,1.74,-2.80,7.42,-7.64,-0.46,0.15,-1.29,1.02,402.00,678.00,209.00,194.00,609.00,1312.00,561.00,858.00,,,,,,,,,,,,0,0,0,,-2372,16060,544,-108,11,-171
6.679,6.50,0.32,-1.97,1.37,-5.29,0.34,-0.62,1.91,0.54,0.83,343.00,702.00,171.00,259.00,555.00,1259.00,548.00,802.00,,,,,,,,,,,,0,0,0,,-2412,15940,428,-154,5,-179
6.741,6.55,0.44,0.11,0.84,-7.40,8.87,2.82,-0.90,2.18,-0.73,340.00,656.00,112.00,224.00,607.00,1185.00,579.00,784.00,,,,,,,,,,,,0,0,0,,-2476,16204,348,-192,127,-135
6.802,6.61,0.49,2.05,-0.45,10.12,-3.73,1.47,-0.56,0.62,0.11,352.00,629.00,161.00,157.00,611.00,1239.00,569.00,815.00,,,,,,,,,,,,0,0,0,,-2384,16024,632,-73,150,-104
6.842,6.66,0.41,2.05,-1.27,2.81,-3.43,-1.10,2.48,-0.68,2.04,368.00,643.00,181.00,208.00,543.00,1264.00,525.00,815.00,,,,,,,,,,,,0,0,0,,-2376,16152,344,-73,138,-180
6.904,6.72,0.51,-2.21,3.09,-10.55,10.94,2.39,-0.13,3.10,-0.88,314.00,677.00,106.00,240.00,587.00,1181.00,574.00,759.00,,,,,,,,,,,,0,0,0,,-2476,16156,352,-114,76,-120
6.965,6.77,0.60,3.67,-1.16,9.60,-2.25,2.23,-1.39,1.43,-0.89,355.00,601.00,150.00,154.00,630.00,1229.00,592.00,811.00,,,,,,,,,,,,0,0,0,,-2340,16156,604,-21,94,-217
7.046,6.83,0.55,1.99,-1.99,7.13,-6.82,-0.40,0.77,-0.42,0.92,383.00,657.00,201.00,192.00,588.00,1287.00,555.00,831.00,,,,,,,,,,,,0,0,0,,-2440,16056,436,-76,107,-228
7.066,6.88,0.54,-2.26,1.85,-9.23,4.46,0.33,0.88,1.06,0.26,336.00,701.00,147.00,271.00,577.00,1247.00,560.00,798.00,,,,,,,,,,,,0,0,0,,-2468,15952,448,-126,58,-127
7.128,6.94,0.65,2.10,-1.24,-4.20,5.32,2.80,-2.04,2.26,-1.85,367.00,641.00,128.00,217.00,646.00,1223.00,614.00,805.00,,,,,,,,,,,,0,0,0,,-2336,16144,576,-115,144,-79
7.211,6.99,0.61,2.05,-2.82,9.79,-8.35,-0.14,0.13,-1.42,1.13,400.00,670.00,208.00,180.00,606.00,1296.00,559.00,860.00,,,,,,,,,,,,0,0,0,,-2416,16116,436,-101,188,-162
7.231,7.05,0.55,-1.97,1.16,-5.23,0.98,-0.51,1.61,0.43,0.67,347.00,706.00,165.00,254.00,563.00,1264.00,554.00,809.00,,,,,,,,,,,,0,0,0,,-2352,16112,368,-130,139,-115
7.273,7.10,0.62,-0.44,0.91,-8.98,9.73,1.95,-0.45,2.26,-0.76,342.00,669.00,110.00,233.00,602.00,1212.00,579.00,782.00,,,,,,,,,,,,0,0,0,,-2324,16128,480,2,90,-113
7.333,7.16,0.63,0.86,-0.21,8.20,-3.20,0.82,-0.67,0.10,0.16,355.00,655.00,162.00,167.00,622.00,1275.00,573.00,831.00,,,,,,,,,,,,0,0,0,,-2368,16272,328,-66,171,-188
7.395,7.21,0.52,1.54,-1.84,1.45,-3.18,-1.59,2.44,-0.64,1.88,383.00,666.00,183.00,218.00,549.00,1290.00,529.00,817.00,,,,,,,,,,,,0,0,0,,-2472,15916,380,-197,89,-277
7.456,7.27,0.61,-2.70,3.37,-10.40,10.72,2.28,-0.16,3.13,-0.92,312.00,685.00,107.00,240.00,589.00,1187.00,575.00,759.00,,,,,,,,,,,,0,0,0,,-2448,16108,372,-125,-57,-160
7.518,7.32,0.71,4.12,-1.26,7.69,-0.85,2.68,-1.65,1.68,-0.76,354.00,592.00,144.00,160.00,634.00,1216.00,585.00,800.00,,,,,,,,,,,,0,0,0,,-2396,16068,588,-145,145,-108
7.558,7.38,0.68,2.68,-2.32,7.25,-6.01,-0.04,0.72,1.32,0.21,385.00,645.00,192.00,187.00,586.00,1271.00,559.00,791.00,,,,,,,,,,,,0,0,0,,-2384,16156,384,-176,174,-132
7.621,7.43,0.69,-1.92,1.47,-6.80,3.15,0.94,0.74,1.51,0.11,341.00,699.00,151.00,255.00,575.00,1222.00,560.00,787.00,,,,,,,,,,,,0,0,0,,-2396,16248,448,19,185,-59
7.723,7.49,0.83,0.95,1.16,-2.69,4.67,3.40,-2.07,2.80,-1.94,329.00,629.00,129.00,208.00,640.00,1195.00,611.00,790.00,,,,,,,,,,,,0,0,0,,-2388,16052,324,-26,133,-186
7.743,7.54,0.81,2.84,-2.85,12.73,-8.52,0.44,0.27,-0.42,0.66,395.00,650.00,199.00,161.00,595.00,1262.00,563.00,837.00,,,,,,,,,,,,0,0,0,,-2460,16200,432,-70,47,-224
7.784,7.60,0.74,-0.50,0.51,-2.59,-0.02,-0.53,2.32,0.49,1.06,350.00,678.00,166.00,235.00,542.00,1241.00,542.00,799.00,,,,,,,,,,,,0,0,0,,-2424,16172,380,-37,97,-204
7.846,7.65,0.85,-1.02,1.99,-9.88,13.54,2.89,-0.46,3.20,-0.98,326.00,665.00,91.00,218.00,592.00,1168.00,576.00,758.00,,,,,,,,,,,,0,0,0,,-2496,16044,400,-143,79,-196
7.908,7.71,0.89,0.91,1.51,10.57,-2.45,1.79,-0.79,0.82,-0.08,323.00,624.00,149.00,149.00,615.00,1231.00,573.00,813.00,,,,,,,,,,,,0,0,0,,-2484,16000,564,-171,84,-106
7.971,7.76,0.82,1.52,-1.25,2.85,-3.14,-0.55,1.76,-0.47,1.86,371.00,656.00,178.00,206.00,559.00,1261.00,528.00,812.00,,,,,,,,,,,,0,0,0,,-2300,16104,492,-116,150,-118
8.052,7.82,0.88,-3.69,4.12,-11.13,11.49,2.03,-0.04,3.20,-0.98,305.00,698.00,104.00,242.00,588.00,1195.00,576.00,758.00,,,,,,,,,,,,0,0,0,,-2344,16224,576,-99,168,-132
8.072,7.87,0.96,3.15,-0.88,5.40,0.05,2.41,-1.74,1.63,-0.67,353.00,609.00,143.00,171.00,640.00,1232.00,583.00,800.00,,,,,,,,,,,,0,0,0,,-2340,16264,336,-41,96,-151
8.134,7.93,0.88,1.37,-1.98,7.64,-6.99,-0.53,0.51,-0.90,0.89,387.00,673.00,201.00,189.00,598.00,1303.00,561.00,848.00,,,,,,,,,,,,0,0,0,,-2348,16036,488,-7,96,-197
8.175,7.98,0.83,-3.13,2.09,-7.17,1.97,-0.09,1.05,1.22,-0.02,337.00,721.00,162.00,267.00,576.00,1262.00,567.00,799.00,,,,,,,,,,,,0,0,0,,-2296,16236,484,-181,140,-325
8.238,8.04,0.95,1.80,-1.14,-3.43,5.07,3.17,-2.19,2.45,-1.69,367.00,647.00,128.00,212.00,647.00,1210.00,607.00,796.00,,,,,,,,,,,,0,0,0,,-2316,15948,276,-139,-4,-164
8.299,8.09,0.89,3.04,-2.92,13.57,-9.53,-0.21,0.55,-0.61,0.72,395.00,646.00,207.00,160.00,593.00,1285.00,563.00,842.00,,,,,,,,,,,,0,0,0,,-2372,16040,764,-137,8,-162
8.34,8.15,0.83,0.45,0.61,1.01,-0.78,-0.37,2.54,0.48,1.30,342.00,651.00,162.00,208.00,534.00,1226.00,535.00,794.00,,,,,,,,,,,,0,0,0,,-2360,16148,508,-111,201,-135
8.443,8.20,0.93,-0.88,2.29,-9.76,12.51,2.83,-0.28,2.90,-0.69,320.00,656.00,96.00,223.00,587.00,1165.00,570.00,761.00,,,,,,,,,,,,0,0,0,,-2452,16024,432,64,179,-105
8.464,8.26,0.99,2.71,-0.41,11.91,-3.15,2.19,-0.87,1.10,-0.08,347.00,612.00,151.00,144.00,613.00,1214.00,570.00,804.00,,,,,,,,,,,,0,0,0,,-2352,16168,284,16,102,-245
8.485,8.31,0.90,1.74,-1.17,4.19,-4.20,-0.84,2.60,-0.88,2.60,368.00,649.00,184.00,201.00,537.00,1247.00,511.00,809.00,,,,,,,,,,,,0,0,0,,-2420,16056,300,-152,68,-191
8.547,8.37,0.98,-3.13,4.12,-11.83,12.82,2.44,0.20,3.40,-0.89,302.00,683.00,98.00,240.00,576.00,1168.00,571.00,750.00,,,,,,,,,,,,0,0,0,,-2388,16132,332,-104,52,-268
8.609,8.42,1.08,2.73,-1.05,4.34,0.53,3.02,-1.56,2.38,-1.18,359.00,622.00,142.00,176.00,627.00,1197.00,591.00,787.00,,,,,,,,,,,,0,0,0,,-2440,16152,504,-139,43,-230
8.672,8.48,1.03,2.49,-2.97,9.35,-8.11,-0.03,0.52,-0.55,0.90,400.00,661.00,207.00,182.00,592.00,1277.00,557.00,836.00,,,,,,,,,,,,0,0,0,,-2444,16024,456,-115,40,-196
8.712,8.53,0.99,-2.58,1.96,-6.12,1.85,0.32,1.43,1.33,0.13,336.00,708.00,160.00,257.00,560.00,1229.00,561.00,792.00,,,,,,,,,,,,0,0,0,,-2412,16112,596,-50,77,-143
8.813,8.59,1.11,1.74,-1.17,-3.28,5.01,3.49,-2.07,3.12,-1.98,368.00,649.00,128.00,211.00,639.00,1191.00,609.00,781.00,,,,,,,,,,,,0,0,0,,-2440,16092,544,-16,149,-176
8.834,8.64,1.08,3.02,-3.00,12.49,-8.62,0.52,0.12,-0.11,0.42,397.00,648.00,201.00,163.00,599.00,1263.00,567.00,832.00,,,,,,,,,,,,0,0,0,,-2424,16088,492,-32,176,-145
8.874,8.70,0.98,0.35,-0.20,1.79,-1.93,-0.92,2.25,-0.05,1.34,358.00,668.00,170.00,208.00,548.00,1263.00,539.00,810.00,,,,,,,,,,,,0,0,0,,-2372,16096,492,-14,73,-157
8.934,8.75,1.04,-1.12,1.47,-8.69,9.30,2.08,-0.28,3.09,-1.17,336.00,677.00,112.00,233.00,595.00,1200.00,583.00,765.00,,,,,,,,,,,,0,0,0,,-2348,16264,432,-23,92,-231
8.996,8.81,1.08,2.32,-0.86,8.87,-2.12,1.86,-1.23,0.81,-0.21,358.00,629.00,151.00,158.00,629.00,1242.00,577.00,816.00,,,,,,,,,,,,0,0,0,,-2404,16044,440,-140,56,-277
9.037,8.86,0.98,1.61,-1.72,4.88,-5.22,-0.98,2.30,-0.66,2.10,380.00,662.00,192.00,201.00,547.00,1264.00,523.00,813.00,,,,,,,,,,,,0,0,0,,-2460,15944,568,-57,6,-197
9.181,8.92,1.03,-3.43,4.28,-11.11,11.31,2.08,0.26,3.04,-0.80,301.00,688.00,105.00,243.00,578.00,1183.00,572.00,759.00,,,,,,,,,,,,0,0,0,,-2528,16076,380,-69,110,-157
9.202,8.97,1.14,1.88,-0.45,-0.41,3.34,3.25,-1.82,2.11,-0.96,353.00,633.00,133.00,197.00,633.00,1194.00,587.00,791.00,,,,,,,,,,,,0,0,0,,-2372,16160,464,-123,128,-140
9.221,9.03,1.09,2.40,-2.93,10.92,-9.16,0.17,0.55,-0.36,0.84,400.00,663.00,213.00,176.00,589.00,1266.00,557.00,831.00,,,,,,,,,,,,0,0,0,,-2372,16248,400,13,134,-75
9.262,9.08,1.08,-2.54,2.06,-6.04,2.17,0.75,1.22,2.04,-0.52,334.00,705.00,157.00,254.00,562.00,1215.00,574.00,784.00,,,,,,,,,,,,0,0,0,,-2336,16012,364,-82,107,-181
9.323,9.14,1.21,1.77,-0.93,-4.98,8.05,3.77,-1.76,3.76,-2.20,363.00,644.00,112.00,208.00,625.00,1168.00,609.00,766.00,,,,,,,,,,,,0,0,0,,-2448,16164,404,-171,92,-212
9.365,9.19,1.24,3.27,-2.90,13.73,-8.10,1.71,-0.37,0.85,0.33,393.00,640.00,191.00,153.00,602.00,1221.00,560.00,803.00,,,,,,,,,,,,0,0,0,,-2468,16116,444,-66,73,-228
9.426,9.25,1.16,1.06,-0.28,2.87,-2.62,-0.40,2.31,0.21,1.46,355.00,651.00,173.00,203.00,541.00,1235.00,533.00,799.00,,,,,,,,,,,,0,0,0,,-2436,16040,432,-113,45,-209
9.488,9.30,1.24,-1.36,2.11,-8.43,9.88,2.86,-0.42,3.45,-1.16,326.00,672.00,108.00,227.00,591.00,1168.00,579.00,754.00,,,,,,,,,,,,0,0,0,,-2444,16072,476,-127,63,-112
9.55,9.36,1.29,2.34,-0.29,10.99,-3.32,2.21,-1.11,1.09,-0.21,347.00,619.00,155.00,150.00,621.00,1221.00,574.00,807.00,,,,,,,,,,,,0,0,0,,-2404,16048,372,-70,169,-131
9.59,9.41,1.16,2.01,-2.19,5.79,-6.00,-1.34,2.39,-0.60,1.87,387.00,660.00,197.00,198.00,548.00,1279.00,529.00,816.00,,,,,,,,,,,,0,0,0,,-2452,16096,360,-103,155,-76
9.651,9.47,1.15,-4.27,4.56,-9.76,8.70,1.00,0.36,1.69,-0.25,301.00,706.00,118.00,247.00,586.00,1231.00,569.00,789.00,,,,,,,,,,,,0,0,0,,-2412,16128,324,-46,107,-140
9.712,9.52,1.22,1.62,-0.93,-0.90,2.04,2.58,-1.94,2.01,-1.43,364.00,648.00,144.00,208.00,645.00,1230.00,603.00,804.00,,,,,,,,,,,,0,0,0,,-2316,16124,344,0,157,-160
9.753,9.58,1.14,2.03,-3.67,10.00,-11.06,-0.43,0.47,-0.50,0.55,419.00,686.00,240.00,192.00,598.00,1299.00,567.00,842.00,,,,,,,,,,,,0,0,0,,-2432,16056,248,-235,104,-219
9.814,9.63,1.10,-2.80,1.82,-6.30,2.26,0.30,1.37,1.34,0.16,340.00,717.00,157.00,256.00,562.00,1232.00,560.00,791.00,,,,,,,,,,,,0,0,0,,-2444,16148,404,-153,56,-139
9.918,9.69,1.24,1.17,-0.16,-5.27,8.48,3.96,-1.88,3.49,-1.80,352.00,646.00,110.00,208.00,627.00,1163.00,599.00,766.00,,,,,,,,,,,,0,0,0,,-2444,16132,224,-150,89,-182
9.938,9.74,1.27,1.65,-0.16,11.97,-4.00,1.87,-0.42,1.30,-0.15,349.00,634.00,158.00,147.00,602.00,1215.00,570.00,799.00,,,,,,,,,,,,0,0,0,,-2456,16144,524,-165,152,-157
9.978,9.80,1.19,1.42,-0.81,2.58,-2.73,-0.41,2.42,0.34,1.55,363.00,651.00,175.00,206.00,538.00,1232.00,529.00,793.00,,,,,,,,,,,,0,0,0,,-2432,16164,460,-55,161,-85
10.04,9.85,1.28,-1.52,2.45,-10.10,13.01,3.00,-0.34,3.53,-1.03,321.00,670.00,94.00,223.00,587.00,1159.00,574.00,749.00,,,,,,,,,,,,0,0,0,,-2356,15940,424,-90,149,-174
10.082,9.91,1.35,3.30,-1.03,11.02,-2.60,2.64,-1.20,1.51,-0.41,355.00,608.00,149.00,147.00,619.00,1203.00,576.00,798.00,,,,,,,,,,,,0,0,0,,-2544,16216,336,-156,118,-189
10.144,9.96,1.25,2.27,-2.19,6.47,-5.85,-0.66,2.13,-0.78,2.14,385.00,653.00,193.00,192.00,549.00,1254.00,523.00,816.00,,,,,,,,,,,,0,0,0,,-2384,16136,228,-52,114,-202
10.207,10.02,1.25,-2.69,3.19,-8.01,7.19,1.42,0.54,1.98,-0.34,315.00,688.00,124.00,240.00,576.00,1205.00,569.00,782.00,,,,,,,,,,,,0,0,0,,-2528,16064,352,-131,49,-216
10.269,10.07,1.36,1.75,-0.67,-0.77,2.38,3.30,-2.01,2.62,-1.90,358.00,640.00,141.00,205.00,639.00,1198.00,612.00,795.00,,,,,,,,,,,,0,0,0,,-2476,16100,368,-94,53,-143
10.33,10.13,1.30,2.20,-2.87,10.84,-9.05,0.21,0.23,-0.26,0.61,400.00,667.00,212.00,176.00,599.00,1275.00,563.00,833.00,,,,,,,,,,,,0,0,0,,-2392,16092,324,-93,143,-142
10.371,10.18,1.24,-2.57,1.58,-6.22,2.00,0.03,1.53,1.30,0.28,343.00,715.00,159.00,257.00,560.00,1240.00,557.00,790.00,,,,,,,,,,,,0,0,0,,-2368,16064,116,-121,176,-101
10.452,10.24,1.34,0.15,0.56,-5.91,8.36,3.22,-1.39,3.25,-1.69,345.00,660.00,112.00,214.00,619.00,1182.00,598.00,771.00,,,,,,,,,,,,0,0,0,,-2412,16048,436,-130,93,-131
10.473,10.29,1.33,1.30,-0.46,12.86,-6.81,1.26,-0.49,0.71,0.08,357.00,648.00,181.00,153.00,611.00,1247.00,569.00,813.00,,,,,,,,,,,,0,0,0,,-2424,16028,452,-78,90,-87
10.534,10.35,1.21,0.85,-0.87,2.35,-2.76,-1.02,2.22,-0.24,1.58,368.00,667.00,176.00,208.00,550.00,1269.00,534.00,811.00,,,,,,,,,,,,0,0,0,,-2416,16212,400,-240,123,-286
10.576,10.40,1.30,-1.90,2.35,-10.19,11.35,2.94,-0.48,3.37,-0.94,325.00,682.00,103.00,234.00,592.00,1166.00,573.00,752.00,,,,,,,,,,,,0,0,0,,-2480,15952,404,-195,70,-151
10.637,10.46,1.31,3.12,-0.34,10.03,-2.14,1.57,-0.96,1.64,-0.55,343.00,601.00,148.00,151.00,623.00,1247.00,579.00,797.00,,,,,,,,,,,,0,0,0,,-2492,15968,556,-192,35,-176
10.697,10.51,1.26,2.71,-2.43,9.32,-6.81,0.16,1.82,-0.64,2.02,387.00,646.00,193.00,176.00,550.00,1224.00,525.00,814.00,,,,,,,,,,,,0,0,0,,-2432,16116,544,-208,133,-107
10.759,10.57,1.26,-1.26,1.41,-5.36,3.29,1.27,0.91,2.33,-0.53,338.00,682.00,146.00,240.00,566.00,1200.00,571.00,775.00,,,,,,,,,,,,0,0,0,,-2328,16040,600,-106,226,-47
10.802,10.62,1.39,2.75,-1.26,-0.46,3.22,4.01,-2.28,2.84,-1.70,363.00,625.00,134.00,198.00,640.00,1173.00,603.00,784.00,,,,,,,,,,,,0,0,0,,-2356,16072,384,-72,166,-187
10.863,10.68,1.36,2.68,-2.84,11.67,-8.98,0.77,0.41,0.08,0.56,396.00,654.00,208.00,170.00,587.00,1241.00,561.00,823.00,,,,,,,,,,,,0,0,0,,-2256,16132,384,-82,103,-114
10.926,10.73,1.32,-1.64,1.48,-5.65,2.04,0.42,2.17,1.78,0.38,339.00,691.00,157.00,251.00,537.00,1200.00,549.00,773.00,,,,,,,,,,,,0,0,0,,-2304,16196,396,-54,94,-213
11.009,10.79,1.39,0.86,0.48,-6.03,9.42,2.75,-0.41,3.57,-1.14,342.00,643.00,106.00,209.00,592.00,1173.00,577.00,750.00,,,,,,,,,,,,0,0,0,,-2464,16116,276,-81,80,-237
11.05,10.84,1.41,1.85,-0.28,13.28,-3.85,1.79,-0.43,1.16,0.06,350.00,631.00,153.00,139.00,603.00,1219.00,565.00,799.00,,,,,,,,,,,,0,0,0,,-2536,16008,532,-158,81,-126
11.071,10.90,1.31,1.41,-0.91,3.95,-3.09,-0.53,2.60,0.44,1.59,365.00,653.00,174.00,197.00,534.00,1232.00,527.00,789.00,,,,,,,,,,,,0,0,0,,-2440,16040,648,-185,161,-123
11.132,10.95,1.39,-2.55,3.26,-8.57,9.76,2.89,-0.30,3.72,-1.16,313.00,683.00,109.00,229.00,587.00,1163.00,576.00,746.00,,,,,,,,,,,,0,0,0,,-2496,16064,348,-143,168,-177
11.194,11.01,1.45,3.33,-1.15,11.22,-3.16,2.53,-1.37,2.04,-1.00,357.00,609.00,153.00,148.00,626.00,1214.00,589.00,794.00,,,,,,,,,,,,0,0,0,,-2436,16140,528,-136,67,-63
11.235,11.06,1.34,2.00,-2.56,5.71,-5.69,-0.60,1.45,0.23,1.11,395.00,667.00,194.00,197.00,569.00,1274.00,543.00,806.00,,,,,,,,,,,,0,0,0,,-2308,16080,552,-31,139,-94
11.296,11.12,1.31,-2.25,1.69,-6.78,3.26,0.70,0.79,2.04,-0.52,339.00,704.00,150.00,254.00,576.00,1232.00,574.00,784.00,,,,,,,,,,,,0,0,0,,-2436,16284,416,-129,252,-303
11.378,11.17,1.44,2.20,-1.33,-1.47,2.89,3.78,-2.31,2.93,-1.80,368.00,640.00,139.00,208.00,644.00,1185.00,605.00,783.00,,,,,,,,,,,,0,0,0,,-2464,15996,328,-124,59,-222
11.399,11.23,1.40,2.54,-2.75,13.21,-9.23,0.72,0.37,0.38,0.42,395.00,656.00,205.00,161.00,589.00,1245.00,562.00,816.00,,,,,,,,,,,,0,0,0,,-2528,16088,512,-80,-46,-192
11.46,11.28,1.34,-1.21,1.34,-4.32,1.13,0.30,2.39,1.87,0.49,339.00,682.00,161.00,244.00,532.00,1199.00,545.00,768.00,,,,,,,,,,,,0,0,0,,-2512,16104,552,-174,164,-148
11.521,11.34,1.48,0.83,0.82,-6.34,10.24,4.04,-0.69,3.79,-1.12,336.00,638.00,102.00,207.00,587.00,1123.00,574.00,743.00,,,,,,,,,,,,0,0,0,,-2356,16000,520,-131,216,-135
11.583,11.39,1.54,2.34,-0.29,13.15,-3.93,2.61,-0.55,1.89,-0.22,347.00,619.00,154.00,140.00,598.00,1184.00,566.00,782.00,,,,,,,,,,,,0,0,0,,-2396,16204,236,-17,178,-130
11.624,11.45,1.45,2.43,-1.25,7.45,-4.48,-0.19,2.76,0.61,1.67,365.00,633.00,176.00,178.00,526.00,1210.00,523.00,782.00,,,,,,,,,,,,0,0,0,,-2416,16176,464,-74,115,-148
11.684,11.50,1.55,-1.23,2.82,-9.29,12.16,3.38,-0.12,4.55,-1.37,313.00,656.00,97.00,221.00,576.00,1135.00,574.00,726.00,,,,,,,,,,,,0,0,0,,-2364,16168,488,-80,37,-266
11.746,11.56,1.66,4.11,-0.99,11.95,-1.90,3.77,-1.73,2.78,-1.19,349.00,588.00,141.00,139.00,624.00,1167.00,587.00,775.00,,,,,,,,,,,,0,0,0,,-2436,16140,524,-103,81,-267
11.787,11.61,1.61,2.96,-2.56,7.97,-6.06,0.77,0.82,1.25,0.50,388.00,642.00,190.00,182.00,574.00,1227.00,551.00,787.00,,,,,,,,,,,,0,0,0,,-2420,15892,460,-147,30,-189
11.849,11.67,1.59,-1.64,1.65,-4.50,2.01,1.24,1.12,2.61,-0.36,336.00,688.00,154.00,240.00,560.00,1195.00,563.00,763.00,,,,,,,,,,,,0,0,0,,-2396,16128,488,-141,102,-84
11.91,11.72,1.72,1.26,0.95,-0.36,4.03,4.13,-2.26,3.63,-2.15,331.00,625.00,128.00,193.00,638.00,1167.00,609.00,769.00,,,,,,,,,,,,0,0,0,,-2440,16064,400,-94,236,-97
11.971,11.78,1.68,2.78,-3.11,12.41,-8.50,0.83,0.17,0.33,0.28,401.00,656.00,200.00,163.00,594.00,1246.00,567.00,821.00,,,,,,,,,,,,0,0,0,,-2352,16140,500,-99,138,-100
12.013,11.83,1.60,-1.55,0.91,-2.73,0.03,0.09,2.08,1.23,0.81,349.00,699.00,166.00,236.00,543.00,1219.00,542.00,781.00,,,,,,,,,,,,0,0,0,,-2364,16156,448,9,97,-129
12.116,11.89,1.67,-0.23,1.17,-8.90,12.61,2.97,-0.49,3.16,-0.87,336.00,659.00,94.00,215.00,592.00,1165.00,573.00,757.00,,,,,,,,,,,,0,0,0,,-2432,16204,508,8,170,-162
12.136,11.94,1.70,1.63,-0.31,12.43,-3.92,2.43,-0.98,1.71,-0.29,352.00,637.00,156.00,144.00,614.00,1206.00,570.00,789.00,,,,,,,,,,,,0,0,0,,-2352,15988,464,-157,88,-316
12.178,12.00,1.61,2.05,-1.27,-2.47,-1.14,-0.12,2.67,0.81,1.43,368.00,643.00,176.00,241.00,528.00,1210.00,528.00,781.00,,,,,,,,,,,,0,0,0,,-2388,16056,404,-130,-43,-175
12.26,12.05,1.72,-2.20,3.68,-8.63,11.01,3.73,-0.17,4.57,-1.08,304.00,666.00,102.00,222.00,574.00,1121.00,565.00,720.00,,,,,,,,,,,,0,0,0,,-2428,16012,592,-145,148,-96
12.281,12.11,1.83,4.78,-1.27,9.83,0.18,3.93,-1.51,3.01,-1.14,350.00,577.00,131.00,143.00,615.00,1153.00,583.00,767.00,,,,,,,,,,,,0,0,0,,-2432,16168,444,-154,179,-126
12.344,12.16,1.79,3.01,-2.29,9.14,-5.25,1.12,0.64,1.16,0.52,382.00,636.00,178.00,170.00,576.00,1216.00,551.00,789.00,,,,,,,,,,,,0,0,0,,-2332,16204,384,53,159,-62
12.406,12.22,1.79,-1.74,1.79,-4.79,2.59,1.78,1.14,2.74,-0.31,334.00,688.00,150.00,239.00,554.00,1169.00,560.00,758.00,,,,,,,,,,,,0,0,0,,-2328,16008,396,9,71,-242
12.469,12.27,1.93,2.94,-1.12,0.32,3.80,4.62,-1.98,4.15,-2.08,359.00,618.00,128.00,189.00,623.00,1136.00,601.00,752.00,,,,,,,,,,,,0,0,0,,-2440,16132,388,-63,38,-252
12.509,12.33,1.91,3.37,-2.70,16.38,-9.75,1.35,0.38,0.70,0.41,388.00,634.00,199.00,144.00,582.00,1214.00,559.00,806.00,,,,,,,,,,,,0,0,0,,-2368,16020,300,-50,100,-272
12.572,12.38,1.84,-0.06,0.36,0.12,-0.71,0.51,2.42,1.76,0.80,350.00,669.00,164.00,215.00,529.00,1188.00,537.00,765.00,,,,,,,,,,,,0,0,0,,-2424,16028,396,-142,38,-210
12.613,12.44,1.92,-0.07,1.51,-8.50,13.07,3.55,-0.21,4.12,-1.19,329.00,649.00,91.00,209.00,577.00,1130.00,573.00,735.00,,,,,,,,,,,,0,0,0,,-2448,16016,532,-124,96,-116
12.673,12.49,1.97,2.61,-0.33,15.44,-3.96,2.85,-0.79,1.99,-0.41,346.00,613.00,148.00,128.00,603.00,1180.00,571.00,783.00,,,,,,,,,,,,0,0,0,,-2460,16112,404,-51,130,-127
12.735,12.55,1.87,2.48,-1.62,6.54,-4.17,-0.04,2.33,0.68,1.47,372.00,638.00,176.00,183.00,537.00,1217.00,528.00,784.00,,,,,,,,,,,,0,0,0,,-2532,16084,328,-12,148,-123
12.797,12.60,1.92,-2.69,3.91,-11.64,13.33,2.89,0.05,4.42,-1.23,303.00,675.00,95.00,235.00,576.00,1152.00,571.00,727.00,,,,,,,,,,,,0,0,0,,-2332,16116,484,-43,42,-164
12.859,12.66,1.98,3.78,-1.50,6.14,0.06,3.16,-1.55,2.36,-0.86,361.00,604.00,141.00,166.00,625.00,1190.00,581.00,781.00,,,,,,,,,,,,0,0,0,,-2472,16140,356,16,106,-150
12.919,12.71,1.90,1.89,-2.29,8.04,-6.38,0.27,0.52,0.33,0.51,390.00,665.00,193.00,183.00,589.00,1262.00,560.00,816.00,,,,,,,,,,,,0,0,0,,-2512,16172,428,-190,124,-285
12.96,12.77,1.88,-2.26,1.85,-7.36,3.83,1.52,0.93,2.73,-0.53,336.00,701.00,147.00,256.00,563.00,1188.00,567.00,763.00,,,,,,,,,,,,0,0,0,,-2452,16036,368,-135,61,-148
13.045,12.82,2.02,2.45,-0.74,-1.88,5.89,4.69,-2.24,4.31,-2.32,355.00,624.00,119.00,195.00,631.00,1141.00,607.00,752.00,,,,,,,,,,,,0,0,0,,-2420,16124,488,-113,65,-189
13.065,12.88,2.01,3.74,-3.24,8.93,-6.87,1.81,-0.03,0.50,0.48,397.00,634.00,195.00,179.00,590.00,1205.00,559.00,811.00,,,,,,,,,,,,0,0,0,,-2404,16172,484,-145,134,-171
13.106,12.93,1.94,1.15,0.17,3.46,-1.60,0.61,2.46,1.46,1.14,346.00,641.00,162.00,193.00,527.00,1182.00,530.00,767.00,,,,,,,,,,,,0,0,0,,-2432,15880,492,-5,97,-100
13.209,12.99,2.03,0.32,1.10,-7.00,11.58,3.88,-0.28,5.72,-3.04,334.00,646.00,96.00,205.00,576.00,1118.00,615.00,725.00,,,,,,,,,,,,0,0,0,,-2500,16008,360,-104,114,-214
13.23,13.04,2.07,2.62,0.21,14.74,-3.22,2.72,-0.56,1.76,-0.08,336.00,604.00,144.00,129.00,597.00,1179.00,563.00,783.00,,,,,,,,,,,,0,0,0,,-2408,16208,288,-205,79,-142
13.271,13.10,1.95,2.80,-1.97,8.00,-5.08,-0.24,2.74,0.53,1.70,377.00,636.00,180.00,177.00,527.00,1213.00,523.00,784.00,,,,,,,,,,,,0,0,0,,-2496,16140,436,-148,88,-236
13.332,13.15,2.02,-2.45,3.83,-10.77,11.73,3.21,0.13,4.48,-1.22,303.00,670.00,102.00,237.00,570.00,1135.00,570.00,725.00,,,,,,,,,,,,0,0,0,,-2440,16072,300,-181,4,-247
13.394,13.21,2.10,2.46,-0.64,2.54,1.94,3.74,-1.69,3.02,-1.21,353.00,622.00,136.00,182.00,623.00,1167.00,585.00,768.00,,,,,,,,,,,,0,0,0,,-2524,16100,500,-189,1,-146
13.455,13.26,2.03,2.83,-2.66,9.71,-6.75,0.63,0.65,0.31,0.58,391.00,647.00,191.00,173.00,581.00,1240.00,558.00,815.00,,,,,,,,,,,,0,0,0,,-2524,16072,436,-102,175,-126
13.496,13.32,1.98,-2.02,1.66,-5.62,2.75,0.98,1.37,2.17,-0.25,338.00,698.00,151.00,246.00,555.00,1199.00,564.00,774.00,,,,,,,,,,,,0,0,0,,-2368,16108,440,-123,240,-136
13.622,13.37,2.10,1.75,-0.67,-2.08,5.05,4.37,-2.22,4.06,-2.30,358.00,640.00,125.00,201.00,634.00,1155.00,609.00,759.00,,,,,,,,,,,,0,0,0,,-2452,16120,408,-142,83,-123
13.643,13.43,2.06,3.55,-3.32,15.77,-9.35,1.30,-0.02,0.69,0.06,400.00,640.00,197.00,146.00,595.00,1229.00,570.00,814.00,,,,,,,,,,,,0,0,0,,-2348,16132,280,-84,78,-139
13.685,13.48,1.93,0.76,-0.13,2.36,-1.68,-0.47,2.54,0.90,1.16,354.00,656.00,166.00,202.00,535.00,1231.00,535.00,784.00,,,,,,,,,,,,0,0,0,,-2448,16212,408,-169,144,-279
13.746,13.54,2.01,-0.97,2.03,-6.18,9.65,3.60,-0.51,4.25,-1.33,325.00,663.00,105.00,209.00,586.00,1137.00,576.00,734.00,,,,,,,,,,,,0,0,0,,-2424,15908,516,-167,70,-187
13.787,13.59,2.07,3.41,-0.32,13.63,-2.72,3.11,-0.78,2.47,-0.74,341.00,594.00,143.00,133.00,600.00,1168.00,576.00,775.00,,,,,,,,,,,,0,0,0,,-2372,15968,504,-150,41,-191
13.848,13.65,1.96,2.50,-1.48,8.57,-5.06,-0.04,2.64,0.11,2.27,369.00,635.00,178.00,173.00,528.00,1207.00,511.00,785.00,,,,,,,,,,,,0,0,0,,-2408,16140,660,-168,142,-119
13.951,13.70,2.01,-2.88,4.91,-9.14,12.11,2.92,0.52,3.99,-1.05,288.00,662.00,97.00,220.00,561.00,1136.00,570.00,736.00,,,,,,,,,,,,0,0,0,,-2436,15972,508,-88,180,-134
13.971,13.76,2.12,2.64,-0.50,1.19,4.55,4.24,-1.70,3.07,-1.29,349.00,615.00,121.00,179.00,618.00,1145.00,587.00,768.00,,,,,,,,,,,,0,0,0,,-2440,16156,548,-62,121,-173
14.011,13.81,2.06,2.76,-2.44,11.83,-7.65,0.94,0.67,0.44,0.57,387.00,645.00,193.00,163.00,577.00,1224.00,557.00,811.00,,,,,,,,,,,,0,0,0,,-2468,16152,492,-92,124,-116
14.052,13.87,2.03,-1.74,1.79,-5.47,3.45,1.49,1.51,2.24,-0.00,334.00,688.00,145.00,240.00,546.00,1171.00,556.00,767.00,,,,,,,,,,,,0,0,0,,-2480,16080,496,-92,81,-200
14.114,13.92,2.18,1.80,0.27,-4.03,9.64,4.99,-2.20,4.17,-2.12,340.00,623.00,101.00,192.00,626.00,1126.00,602.00,752.00,,,,,,,,,,,,0,0,0,,-2440,16108,492,-60,82,-246
14.178,13.98,2.19,3.76,-2.69,15.26,-7.31,2.39,-0.29,1.88,-0.25,385.00,624.00,178.00,141.00,592.00,1186.00,567.00,783.00,,,,,,,,,,,,0,0,0,,-2440,16036,296,-153,55,-187
14.241,14.03,2.09,1.54,-0.23,4.31,-2.67,0.25,2.37,1.25,0.97,351.00,638.00,169.00,192.00,533.00,1202.00,537.00,777.00,,,,,,,,,,,,0,0,0,,-2444,16028,656,-126,91,-126
14.283,14.09,2.18,-0.88,2.29,-8.11,12.15,3.78,-0.44,4.27,-1.31,320.00,656.00,95.00,211.00,582.00,1127.00,575.00,733.00,,,,,,,,,,,,0,0,0,,-2412,16096,524,-123,162,-119
14.343,14.14,2.21,2.87,-0.04,12.52,-2.73,2.87,-1.04,1.94,-0.43,339.00,602.00,146.00,139.00,611.00,1187.00,572.00,785.00,,,,,,,,,,,,0,0,0,,-2428,16152,392,-91,161,-128
14.406,14.20,2.08,2.37,-2.22,6.73,-5.25,-0.51,2.35,-0.07,1.83,385.00,651.00,186.00,187.00,541.00,1239.00,525.00,800.00,,,,,,,,,,,,0,0,0,,-2408,16128,516,-64,85,-124
14.447,14.25,2.04,-3.59,4.52,-8.12,8.78,1.42,0.61,2.56,-0.57,298.00,688.00,114.00,231.00,574.00,1203.00,570.00,769.00,,,,,,,,,,,,0,0,0,,-2368,16024,528,-37,115,-179
14.508,14.31,2.12,1.80,-0.73,-0.95,3.38,3.47,-1.92,2.78,-1.62,359.00,640.00,134.00,201.00,634.00,1187.00,601.00,784.00,,,,,,,,,,,,0,0,0,,-2388,16256,344,-151,220,-306
14.57,14.36,2.04,1.80,-2.78,11.20,-8.73,0.66,0.45,0.33,0.51,401.00,676.00,207.00,172.00,587.00,1245.00,560.00,816.00,,,,,,,,,,,,0,0,0,,-2376,15868,284,-154,35,-165
14.611,14.42,2.01,-1.79,1.86,-5.52,3.21,1.39,1.41,2.59,-0.09,333.00,688.00,147.00,242.00,550.00,1179.00,555.00,758.00,,,,,,,,,,,,0,0,0,,-2508,16092,620,-134,8,-183
14.693,14.47,2.14,1.41,0.79,-3.91,8.88,4.61,-1.53,4.96,-2.48,333.00,624.00,105.00,195.00,608.00,1123.00,605.00,736.00,,,,,,,,,,,,0,0,0,,-2512,16148,616,-154,192,-109
14.714,14.53,2.18,3.10,-0.81,15.18,-3.88,2.97,-0.64,2.21,-0.16,352.00,609.00,148.00,129.00,597.00,1170.00,561.00,771.00,,,,,,,,,,,,0,0,0,,-2460,16016,404,-110,192,-143
14.755,14.58,2.09,2.33,-0.76,4.42,-2.04,0.37,2.71,1.22,1.40,356.00,627.00,163.00,188.00,522.00,1185.00,525.00,769.00,,,,,,,,,,,,0,0,0,,-2332,16200,520,-36,135,-165
14.838,14.64,2.19,-0.98,2.44,-9.64,13.86,4.02,-0.27,4.57,-1.25,318.00,656.00,89.00,214.00,574.00,1111.00,570.00,723.00,,,,,,,,,,,,0,0,0,,-2336,16052,428,-112,126,-175
14.88,14.69,2.28,3.83,-0.25,14.26,-2.80,3.95,-1.61,-1.31,0.57,337.00,583.00,142.00,130.00,618.00,1155.00,575.00,869.00,,,,,,,,,,,,0,0,0,,-2364,16028,440,-58,48,-262
14.942,14.75,2.19,2.68,-2.03,8.99,-6.11,0.58,1.78,0.11,2.27,379.00,640.00,187.00,175.00,547.00,1205.00,511.00,785.00,,,,,,,,,,,,0,0,0,,-2540,16036,456,-50,113,-242
15.003,14.80,2.18,-1.51,2.33,-5.60,5.23,2.04,0.79,3.07,-0.65,323.00,672.00,132.00,230.00,562.00,1168.00,567.00,755.00,,,,,,,,,,,,0,0,0,,-2460,16028,348,-117,76,-136
15.063,14.86,2.28,2.45,-0.74,0.06,3.60,4.13,-2.20,3.14,-1.87,355.00,624.00,130.00,192.00,636.00,1165.00,605.00,778.00,,,,,,,,,,,,0,0,0,,-2448,16036,700,-78,124,-99
15.083,14.91,2.22,2.60,-2.72,11.93,-8.71,1.09,0.21,0.33,0.51,394.00,654.00,204.00,167.00,590.00,1232.00,560.00,816.00,,,,,,,,,,,,0,0,0,,-2396,16180,492,-120,189,-96
15.145,14.97,2.14,-1.97,1.76,-4.59,1.69,0.57,1.92,1.98,0.28,336.00,695.00,157.00,243.00,543.00,1201.00,550.00,769.00,,,,,,,,,,,,0,0,0,,-2496,16148,344,-117,131,-138
15.206,15.02,2.22,0.40,0.63,-5.07,9.10,3.79,-0.98,4.21,-1.73,342.00,652.00,106.00,203.00,599.00,1143.00,589.00,743.00,,,,,,,,,,,,0,0,0,,-2428,16152,388,-76,49,-187
15.267,15.08,2.18,2.14,-0.59,12.68,-3.77,1.41,-0.27,1.74,-0.33,354.00,629.00,154.00,142.00,602.00,1232.00,571.00,789.00,,,,,,,,,,,,0,0,0,,-2452,16160,564,-64,138,-168
15.328,15.13,2.04,3.07,-1.67,3.89,-3.38,-0.56,2.61,0.44,1.73,369.00,624.00,177.00,199.00,534.00,1233.00,523.00,786.00,,,,,,,,,,,,0,0,0,,-2540,16256,372,-210,175,-326
15.41,15.19,2.11,-1.95,2.65,-10.46,12.55,3.38,-0.28,4.10,-1.06,320.00,678.00,97.00,229.00,581.00,1140.00,569.00,733.00,,,,,,,,,,,,0,0,0,,-2448,16108,396,-107,8,-117
15.43,15.24,2.19,3.68,-0.42,10.67,-1.07,3.67,-1.51,1.06,1.35,341.00,589.00,138.00,143.00,618.00,1165.00,528.00,775.00,,,,,,,,,,,,0,0,0,,-2464,16032,552,-109,81,-166
15.491,15.30,2.13,2.83,-2.08,8.37,-5.40,1.02,1.20,0.66,1.27,379.00,637.00,182.00,176.00,560.00,1203.00,534.00,789.00,,,,,,,,,,,,0,0,0,,-2492,16168,632,-147,227,-138
15.532,15.35,2.11,-1.89,2.17,-5.56,3.74,1.71,0.97,2.51,-0.26,328.00,685.00,143.00,239.00,560.00,1178.00,561.00,764.00,,,,,,,,,,,,0,0,0,,-2532,15980,604,20,162,-86
15.593,15.41,2.23,2.83,-0.77,-0.84,4.93,4.54,-2.28,3.51,-1.93,353.00,615.00,123.00,192.00,634.00,1149.00,603.00,768.00,,,,,,,,,,,,0,0,0,,-2204,16120,448,38,121,-216
15.633,15.46,2.18,3.03,-2.96,14.30,-9.41,1.13,0.42,0.06,0.89,396.00,647.00,203.00,155.00,583.00,1223.00,551.00,816.00,,,,,,,,,,,,0,0,0,,-2432,16104,292,-89,107,-200
15.694,15.52,2.11,-1.36,1.55,-2.91,0.77,0.82,2.21,1.92,0.71,336.00,682.00,160.00,233.00,532.00,1180.00,538.00,762.00,,,,,,,,,,,,0,0,0,,-2500,15968,368,-78,65,-254
15.797,15.57,2.20,0.70,1.42,-6.98,11.00,3.96,-0.41,4.30,-1.25,326.00,631.00,99.00,208.00,579.00,1118.00,573.00,731.00,,,,,,,,,,,,0,0,0,,-2592,16072,524,-91,42,-252
15.817,15.63,2.23,2.21,0.02,11.70,-2.58,2.83,-0.53,1.84,-0.23,342.00,617.00,147.00,143.00,595.00,1173.00,567.00,784.00,,,,,,,,,,,,0,0,0,,-2556,16084,484,-95,45,-160
15.858,15.68,2.11,0.58,1.01,8.45,-5.53,-0.12,2.63,0.67,1.58,334.00,641.00,183.00,176.00,529.00,1211.00,525.00,782.00,,,,,,,,,,,,0,0,0,,-2456,16124,580,-76,125,-113
15.918,15.74,2.16,-2.64,3.77,-8.44,10.23,3.07,-0.04,4.36,-1.34,305.00,676.00,106.00,225.00,577.00,1147.00,575.00,731.00,,,,,,,,,,,,0,0,0,,-2392,16040,508,-51,204,-85
15.978,15.79,2.22,3.89,-1.23,9.37,-1.41,3.30,-1.57,2.19,-0.70,355.00,597.00,144.00,152.00,624.00,1184.00,578.00,783.00,,,,,,,,,,,,0,0,0,,-2416,16052,368,-72,144,-128
16.019,15.85,2.13,2.19,-2.35,7.15,-6.27,0.50,0.53,1.67,-1.25,389.00,658.00,195.00,189.00,586.00,1250.00,601.00,811.00,,,,,,,,,,,,0,0,0,,-2468,16160,540,-32,48,-195
16.079,15.90,2.07,-2.81,2.10,-6.12,1.85,0.92,1.03,2.14,-0.20,335.00,712.00,160.00,257.00,566.00,1213.00,563.00,774.00,,,,,,,,,,,,0,0,0,,-2400,16188,336,55,96,-212
16.223,15.96,2.14,1.72,-0.91,-1.71,3.78,3.45,-2.15,3.08,-2.06,363.00,645.00,133.00,205.00,642.00,1195.00,612.00,784.00,,,,,,,,,,,,0,0,0,,-2440,16188,372,-171,104,-318
16.243,16.01,2.08,2.89,-3.10,16.38,-13.43,0.90,0.15,0.25,0.53,400.00,653.00,243.00,159.00,594.00,1243.00,560.00,818.00,,,,,,,,,,,,0,0,0,,-2448,15996,460,-57,37,-184
16.264,16.07,1.99,-0.14,0.98,0.08,-0.46,0.24,2.44,1.38,1.17,339.00,660.00,162.00,214.00,531.00,1200.00,530.00,769.00,,,,,,,,,,,,0,0,0,,-2572,15988,332,-76,97,-186
16.305,16.12,2.07,-0.12,2.03,-7.97,12.30,3.64,-0.33,4.02,-1.10,320.00,641.00,94.00,209.00,580.00,1130.00,571.00,736.00,,,,,,,,,,,,0,0,0,,-2488,16252,364,-129,169,-141
16.366,16.18,2.10,2.90,-0.26,13.10,-3.05,2.72,-0.65,1.75,-0.10,343.00,605.00,147.00,137.00,600.00,1182.00,564.00,784.00,,,,,,,,,,,,0,0,0,,-2440,16200,396,-19,150,-115
16.406,16.23,1.99,2.46,-1.41,5.34,-4.18,-0.23,2.70,0.66,1.55,368.00,635.00,180.00,192.00,528.00,1214.00,526.00,783.00,,,,,,,,,,,,0,0,0,,-2580,16100,316,-53,106,-194
16.49,16.29,2.05,-3.12,3.99,-10.02,10.94,3.18,-0.02,4.10,-1.06,304.00,685.00,105.00,235.00,575.00,1141.00,569.00,733.00,,,,,,,,,,,,0,0,0,,-2472,16168,496,-126,85,-212
16.532,16.34,2.13,2.82,-0.45,5.55,0.26,3.66,-1.60,2.55,-0.86,347.00,610.00,141.00,169.00,621.00,1168.00,579.00,775.00,,,,,,,,,,,,0,0,0,,-2464,16012,412,-87,99,-244
16.572,16.40,2.05,2.17,-2.20,10.57,-7.79,0.58,0.54,0.18,0.96,386.00,656.00,199.00,172.00,585.00,1246.00,548.00,811.00,,,,,,,,,,,,0,0,0,,-2536,16028,288,-136,27,-225
16.634,16.45,2.01,-2.72,2.85,-7.13,3.63,1.18,1.14,2.27,-0.15,321.00,695.00,148.00,255.00,560.00,1197.00,560.00,769.00,,,,,,,,,,,,0,0,0,,-2600,16060,240,-168,53,-138
16.696,16.51,2.12,1.78,-0.42,-1.34,5.10,4.37,-2.22,3.93,-2.25,353.00,635.00,123.00,195.00,634.00,1155.00,609.00,762.00,,,,,,,,,,,,0,0,0,,-2492,16100,468,-165,161,-142
16.757,16.56,2.08,2.31,-2.29,15.63,-9.40,1.17,0.09,0.82,0.24,387.00,654.00,198.00,147.00,593.00,1232.00,563.00,806.00,,,,,,,,,,,,0,0,0,,-2472,16084,504,-130,160,-88
16.819,16.62,1.94,0.69,-0.41,2.80,-2.70,-0.63,2.77,0.80,1.29,360.00,663.00,174.00,204.00,530.00,1231.00,532.00,784.00,,,,,,,,,,,,0,0,0,,-2512,16128,396,-122,110,-142
16.88,16.67,2.00,-1.26,1.79,-8.69,9.30,3.03,-0.47,3.36,-0.87,331.00,675.00,112.00,233.00,591.00,1162.00,571.00,751.00,,,,,,,,,,,,0,0,0,,-2432,16144,348,-28,82,-181
16.942,16.73,1.93,2.16,-0.39,9.28,-2.02,0.77,-0.57,1.60,-0.44,350.00,625.00,149.00,155.00,619.00,1274.00,576.00,796.00,,,,,,,,,,,,0,0,0,,-2496,16244,472,-211,97,-311
16.963,16.78,1.81,1.33,-1.13,5.27,-4.66,-0.61,2.59,-0.31,2.41,370.00,659.00,185.00,195.00,535.00,1236.00,511.00,795.00,,,,,,,,,,,,0,0,0,,-2508,16036,352,-240,55,-182
17.025,16.84,1.83,-4.02,5.10,-9.81,9.84,2.19,0.61,3.90,-1.12,291.00,689.00,111.00,240.00,566.00,1167.00,573.00,740.00,,,,,,,,,,,,0,0,0,,-2484,15876,520,-166,44,-202
17.066,16.89,1.93,2.35,-0.61,2.54,2.35,3.90,-1.89,3.21,-1.49,353.00,624.00,133.00,180.00,628.00,1166.00,592.00,768.00,,,,,,,,,,,,0,0,0,,-2644,16176,620,-175,127,-133
17.128,16.95,1.86,2.60,-2.72,12.48,-9.52,0.62,0.71,0.12,0.81,394.00,654.00,211.00,167.00,579.00,1238.00,553.00,816.00,,,,,,,,,,,,0,0,0,,-2496,16040,544,-111,177,-73
17.191,17.00,1.83,0.07,1.18,-4.53,1.90,1.20,1.37,2.08,0.08,334.00,651.00,155.00,241.00,553.00,1189.00,555.00,770.00,,,,,,,,,,,,0,0,0,,-2516,16032,576,-69,171,-164
17.254,17.06,1.97,1.65,-0.16,-4.75,8.99,4.57,-1.94,3.89,-2.00,349.00,634.00,106.00,201.00,622.00,1137.00,601.00,758.00,,,,,,,,,,,,0,0,0,,-2404,16212,308,-107,88,-119
17.315,17.11,1.99,2.87,-1.55,14.39,-6.81,2.33,-0.30,1.59,0.08,368.00,627.00,176.00,144.00,593.00,1189.00,560.00,785.00,,,,,,,,,,,,0,0,0,,-2520,16084,372,-97,123,-186
17.377,17.17,1.90,1.13,-0.04,4.04,-1.68,0.17,2.33,0.77,1.34,350.00,645.00,161.00,189.00,535.00,1207.00,531.00,784.00,,,,,,,,,,,,0,0,0,,-2472,16080,404,-132,87,-205
17.479,17.22,1.97,-1.37,2.51,-9.88,13.54,3.38,-0.18,3.96,-1.11,319.00,665.00,91.00,218.00,578.00,1137.00,572.00,738.00,,,,,,,,,,,,0,0,0,,-2492,15896,556,-162,88,-136
17.499,17.28,2.01,3.03,-0.52,11.14,-2.01,2.81,-1.17,1.52,-0.09,347.00,606.00,144.00,144.00,616.00,1194.00,566.00,791.00,,,,,,,,,,,,0,0,0,,-2536,16064,552,-152,94,-92
17.54,17.33,1.89,2.17,-2.20,7.08,-5.76,-0.48,2.14,-1.41,2.89,386.00,656.00,190.00,187.00,547.00,1245.00,508.00,820.00,,,,,,,,,,,,0,0,0,,-2480,16076,452,-118,187,-135
17.622,17.39,1.85,-3.00,3.65,-8.68,7.87,1.21,0.61,1.79,-0.12,309.00,688.00,121.00,242.00,576.00,1213.00,564.00,783.00,,,,,,,,,,,,0,0,0,,-2492,16032,484,-70,144,-145
17.642,17.44,1.93,0.97,-0.14,-0.49,3.65,3.37,-2.09,2.51,-1.41,353.00,651.00,131.00,196.00,641.00,1197.00,597.00,788.00,,,,,,,,,,,,0,0,0,,-2492,16080,432,4,78,-143
17.683,17.50,1.83,1.74,-2.85,10.45,-8.48,-0.11,0.55,-0.69,1.01,403.00,679.00,207.00,176.00,592.00,1280.00,555.00,838.00,,,,,,,,,,,,0,0,0,,-2460,16236,604,-42,193,-134
17.746,17.55,1.75,-2.94,1.86,-5.11,0.94,0.29,1.47,1.34,0.50,340.00,720.00,165.00,253.00,559.00,1229.00,550.00,784.00,,,,,,,,,,,,0,0,0,,-2456,15928,540,-174,135,-300
17.787,17.61,1.86,0.02,1.09,-5.54,9.79,3.89,-1.14,3.94,-1.74,336.00,654.00,103.00,203.00,603.00,1143.00,592.00,751.00,,,,,,,,,,,,0,0,0,,-2572,16080,400,-123,-59,-165
17.848,17.66,1.89,2.34,-0.29,13.36,-4.23,2.55,-0.44,1.19,0.25,347.00,619.00,156.00,140.00,595.00,1183.00,559.00,794.00,,,,,,,,,,,,0,0,0,,-2524,16120,528,-138,107,-144
17.909,17.72,1.80,1.65,-0.63,5.27,-3.10,0.09,2.63,0.44,2.16,358.00,642.00,170.00,187.00,527.00,1201.00,511.00,777.00,,,,,,,,,,,,0,0,0,,-2496,16120,564,-152,198,-138
17.992,17.77,1.89,-2.00,3.62,-8.58,12.30,3.56,-0.18,4.17,-1.02,304.00,662.00,95.00,214.00,576.00,1129.00,567.00,730.00,,,,,,,,,,,,0,0,0,,-2568,16044,400,-18,182,-50
18.012,17.83,1.96,3.71,-0.59,12.44,-1.53,3.30,-1.48,1.84,-0.33,344.00,591.00,137.00,135.00,621.00,1181.00,570.00,786.00,,,,,,,,,,,,0,0,0,,-2476,16120,504,-36,125,-197
18.075,17.88,1.87,2.28,-1.85,8.40,-6.50,0.24,1.86,-0.21,1.81,378.00,647.00,193.00,181.00,548.00,1219.00,527.00,805.00,,,,,,,,,,,,0,0,0,,-2468,16128,328,-90,50,-176
18.137,17.94,1.87,-1.80,2.20,-5.52,3.98,1.85,0.95,2.23,-0.13,327.00,682.00,141.00,237.00,559.00,1172.00,560.00,770.00,,,,,,,,,,,,0,0,0,,-2532,15976,456,-69,95,-202
18.178,17.99,1.98,2.09,-0.52,0.07,4.18,4.07,-1.92,3.08,-1.54,353.00,629.00,126.00,189.00,627.00,1159.00,595.00,773.00,,,,,,,,,,,,0,0,0,,-2560,16004,504,-120,92,-221
18.239,18.05,1.93,2.25,-2.32,12.89,-8.76,0.98,0.37,-0.10,0.82,388.00,656.00,201.00,161.00,586.00,1232.00,555.00,823.00,,,,,,,,,,,,0,0,0,,-2532,15960,528,-150,80,-121
18.279,18.10,1.85,-2.35,1.88,-3.48,0.50,0.33,2.31,0.73,1.35,336.00,703.00,164.00,240.00,534.00,1200.00,531.00,785.00,,,,,,,,,,,,0,0,0,,-2544,16076,512,-108,138,-105
18.363,18.16,1.95,-0.08,1.12,-6.02,9.60,3.71,-0.64,3.20,-0.69,336.00,656.00,105.00,208.00,589.00,1136.00,567.00,752.00,,,,,,,,,,,,0,0,0,,-2464,16048,448,-133,171,-119
18.383,18.21,1.92,1.62,0.06,12.28,-2.65,1.48,0.52,1.05,0.13,345.00,631.00,146.00,140.00,576.00,1203.00,564.00,801.00,,,,,,,,,,,,0,0,0,,-2536,16176,392,-67,90,-121
18.444,18.27,1.80,1.09,-1.00,4.48,-3.68,-0.53,2.60,0.17,1.61,369.00,663.00,178.00,196.00,534.00,1232.00,529.00,797.00,,,,,,,,,,,,0,0,0,,-2348,16060,528,-17,107,-157
18.507,18.32,1.84,-3.00,3.65,-9.33,10.88,2.58,-0.04,3.32,-0.86,309.00,688.00,104.00,229.00,582.00,1169.00,571.00,752.00,,,,,,,,,,,,0,0,0,,-2500,16300,460,-124,192,-304
18.568,18.38,1.91,2.89,-0.74,8.50,-0.86,3.35,-1.59,1.91,-0.58,352.00,613.00,142.00,155.00,624.00,1182.00,577.00,789.00,,,,,,,,,,,,0,0,0,,-2476,15932,308,-130,38,-199
18.61,18.43,1.86,2.13,-1.80,10.45,-7.19,0.86,0.73,0.40,0.71,378.00,650.00,193.00,170.00,576.00,1226.00,553.00,809.00,,,,,,,,,,,,0,0,0,,-2512,16084,548,-60,18,-166
18.671,18.49,1.85,-2.74,3.27,-6.20,4.21,1.67,1.28,2.04,0.10,314.00,688.00,141.00,242.00,551.00,1170.00,555.00,771.00,,,,,,,,,,,,0,0,0,,-2584,16080,532,-155,175,-146
18.774,18.54,2.00,2.31,-0.54,-0.20,5.17,4.73,-2.17,2.92,-1.30,352.00,624.00,120.00,186.00,628.00,1137.00,589.00,773.00,,,,,,,,,,,,0,0,0,,-2496,16076,308,-76,173,-139
18.794,18.60,1.94,3.14,-2.72,17.04,-9.40,0.91,0.68,-0.64,1.16,390.00,640.00,193.00,139.00,577.00,1225.00,550.00,833.00,,,,,,,,,,,,0,0,0,,-2412,16224,324,-14,109,-169
18.836,18.65,1.84,-0.77,1.52,-0.02,0.38,0.00,3.23,0.87,1.34,333.00,667.00,155.00,210.00,511.00,1186.00,530.00,781.00,,,,,,,,,,,,0,0,0,,-2512,16100,428,-104,116,-147
18.898,18.71,1.96,-0.37,2.12,-9.04,14.95,4.17,-0.41,3.17,-0.65,320.00,646.00,83.00,203.00,577.00,1109.00,566.00,752.00,,,,,,,,,,,,0,0,0,,-2476,16048,368,-92,28,-247
18.96,18.76,2.02,1.76,1.17,13.99,-2.97,3.11,-0.75,3.48,-2.70,324.00,609.00,144.00,132.00,599.00,1167.00,629.00,785.00,,,,,,,,,,,,0,0,0,,-2492,16108,476,-92,93,-238
19.0,18.82,1.92,1.71,-0.60,7.36,-4.13,0.13,2.51,-0.28,2.66,357.00,640.00,173.00,177.00,530.00,1203.00,504.00,789.00,,,,,,,,,,,,0,0,0,,-2596,16112,376,-119,70,-164
19.102,18.87,1.98,-3.54,4.94,-9.95,12.96,3.04,0.35,3.64,-0.64,291.00,679.00,94.00,222.00,565.00,1136.00,561.00,738.00,,,,,,,,,,,,0,0,0,,-2548,15960,532,-121,119,-63
19.123,18.93,2.04,2.97,-0.60,7.74,0.74,3.28,-1.35,1.50,-0.44,349.00,609.00,132.00,153.00,617.00,1178.00,577.00,799.00,,,,,,,,,,,,0,0,0,,-2540,16080,400,-67,176,-149
19.163,18.98,1.96,1.94,-1.98,9.65,-7.30,0.41,0.88,-0.22,0.86,383.00,658.00,197.00,176.00,576.00,1243.00,555.00,826.00,,,,,,,,,,,,0,0,0,,-2428,16084,512,-62,162,-169
19.226,19.04,1.93,-2.84,2.66,-5.97,3.12,1.29,1.10,1.34,0.26,325.00,702.00,149.00,247.00,560.00,1193.00,557.00,789.00,,,,,,,,,,,,0,0,0,,-2480,15976,424,-8,48,-175
19.266,19.09,2.03,1.64,-1.14,-2.88,5.32,3.98,-1.95,3.05,-2.02,368.00,651.00,125.00,206.00,629.00,1164.00,611.00,784.00,,,,,,,,,,,,0,0,0,,-2384,16080,460,-5,111,-192
19.35,19.15,1.98,2.74,-3.05,10.14,-8.01,1.09,0.12,-0.30,0.75,400.00,656.00,203.00,176.00,593.00,1235.00,559.00,831.00,,,,,,,,,,,,0,0,0,,-2536,16172,372,-164,124,-314
19.392,19.20,1.89,0.49,0.28,1.64,-0.05,0.13,2.79,0.15,2.26,348.00,656.00,154.00,199.00,522.00,1194.00,511.00,784.00,,,,,,,,,,,,0,0,0,,-2540,15956,504,-25,4,-148
19.451,19.26,2.01,-0.97,2.32,-7.95,11.90,4.26,-0.41,3.48,-0.65,320.00,658.00,96.00,211.00,576.00,1105.00,563.00,743.00,,,,,,,,,,,,0,0,0,,-2504,16068,448,-55,133,-141
19.533,19.31,2.06,3.09,-0.11,15.77,-3.57,3.00,-0.59,1.66,0.02,339.00,598.00,144.00,125.00,595.00,1167.00,561.00,784.00,,,,,,,,,,,,0,0,0,,-2384,16164,420,-120,192,-150
19.553,19.37,1.95,2.30,-1.36,7.35,-3.91,-0.22,2.80,-1.24,2.90,368.00,638.00,171.00,176.00,525.00,1210.00,506.00,814.00,,,,,,,,,,,,0,0,0,,-2592,16016,420,8,123,-72
19.594,19.42,2.00,-3.09,4.60,-10.85,13.46,3.04,0.52,3.29,-0.52,294.00,673.00,93.00,227.00,560.00,1131.00,561.00,746.00,,,,,,,,,,,,0,0,0,,-2444,16004,408,14,130,-217
19.656,19.48,2.10,2.12,-0.32,2.05,3.08,4.04,-1.55,2.30,-0.87,349.00,625.00,129.00,180.00,615.00,1149.00,582.00,783.00,,,,,,,,,,,,0,0,0,,-2484,16220,196,-76,120,-207
19.717,19.53,2.04,2.54,-2.75,11.97,-8.54,0.96,0.86,-0.18,1.21,395.00,656.00,202.00,166.00,571.00,1217.00,544.00,817.00,,,,,,,,,,,,0,0,0,,-2428,16096,316,-32,144,-246
19.777,19.59,2.02,-2.52,2.73,-5.25,3.12,1.55,1.42,1.31,0.64,322.00,692.00,147.00,240.00,548.00,1171.00,546.00,782.00,,,,,,,,,,,,0,0,0,,-2556,16028,356,-45,53,-217
19.839,19.64,2.15,1.49,-0.11,-2.65,7.60,4.69,-1.89,3.42,-1.65,349.00,637.00,110.00,192.00,619.00,1130.00,595.00,765.00,,,,,,,,,,,,0,0,0,,-2588,16016,316,-64,55,-133
19.88,19.70,2.18,3.41,-2.52,16.69,-7.79,2.58,-0.35,1.27,0.09,384.00,630.00,178.00,135.00,592.00,1179.00,563.00,795.00,,,,,,,,,,,,0,0,0,,-2588,16040,344,-76,171,-150
19.943,19.75,2.07,2.89,-0.74,3.83,-1.95,0.15,2.58,0.13,1.76,352.00,613.00,164.00,192.00,528.00,1200.00,525.00,795.00,,,,,,,,,,,,0,0,0,,-2452,16068,132,-117,187,-75
20.004,19.81,2.15,-1.92,2.93,-7.99,12.50,3.53,-0.17,3.41,-0.69,315.00,672.00,93.00,208.00,576.00,1130.00,565.00,746.00,,,,,,,,,,,,0,0,0,,-2424,16144,292,-103,120,-145
20.067,19.86,2.18,2.79,-0.65,12.07,-2.06,2.88,-0.89,1.06,-0.16,351.00,614.00,142.00,139.00,606.00,1182.00,573.00,807.00,,,,,,,,,,,,0,0,0,,-2476,16100,352,-2,103,-165
20.087,19.92,2.06,2.10,-2.27,7.17,-5.50,-0.37,2.27,-1.39,2.81,388.00,659.00,187.00,185.00,542.00,1235.00,510.00,821.00,,,,,,,,,,,,0,0,0,,-2400,16192,412,-157,85,-289
20.211,19.97,2.05,-3.63,3.98,-9.11,9.44,1.94,0.59,1.81,-0.19,307.00,699.00,112.00,236.00,569.00,1179.00,566.00,784.00,,,,,,,,,,,,0,0,0,,-2528,16056,292,-136,78,-180
20.23,20.03,2.17,2.31,-0.54,-0.02,5.11,4.39,-1.94,2.49,-1.34,352.00,624.00,120.00,185.00,624.00,1145.00,595.00,787.00,,,,,,,,,,,,0,0,0,,-2564,15992,296,-127,74,-262
20.272,20.08,2.12,2.83,-2.89,13.49,-9.41,1.15,0.63,-0.39,0.88,396.00,651.00,206.00,160.00,576.00,1215.00,556.00,831.00,,,,,,,,,,,,0,0,0,,-2508,16228,364,-186,85,-155
20.312,20.14,2.05,-1.74,1.79,-2.65,1.03,0.87,2.23,1.14,0.70,334.00,688.00,157.00,229.00,531.00,1177.00,546.00,786.00,,,,,,,,,,,,0,0,0,,-2412,15972,368,-77,82,-74
20.375,20.19,2.18,0.87,0.64,-11.16,12.79,4.64,-1.45,3.27,-1.48,339.00,640.00,97.00,234.00,605.00,1119.00,591.00,766.00,,,,,,,,,,,,0,0,0,,-2568,16056,488,-60,132,-229
20.434,20.25,2.21,2.13,-0.22,16.08,-4.91,2.69,-0.24,1.10,0.25,347.00,623.00,154.00,128.00,587.00,1170.00,560.00,797.00,,,,,,,,,,,,0,0,0,,-2456,16212,252,-162,115,-155
20.476,20.30,2.12,1.50,-0.53,5.18,-2.96,0.36,2.54,0.27,1.75,357.00,644.00,169.00,187.00,527.00,1191.00,524.00,791.00,,,,,,,,,,,,0,0,0,,-2528,16076,272,-113,68,-191
20.579,20.36,2.20,-2.09,3.40,-8.32,12.81,3.88,-0.25,3.14,-0.61,308.00,668.00,92.00,209.00,575.00,1117.00,565.00,752.00,,,,,,,,,,,,0,0,0,,-2448,16116,192,-170,60,-228
20.6,20.41,2.28,3.23,-0.32,14.56,-2.38,3.69,-1.64,1.43,-0.39,342.00,598.00,138.00,127.00,622.00,1168.00,576.00,800.00,,,,,,,,,,,,0,0,0,,-2576,15984,360,-198,41,-130
20.642,20.47,2.16,2.43,-2.19,9.54,-6.49,-0.06,1.96,-1.07,2.06,384.00,649.00,189.00,173.00,548.00,1230.00,528.00,827.00,,,,,,,,,,,,0,0,0,,-2544,16064,460,-149,150,-139
20.725,20.52,2.12,-1.98,1.81,-5.59,3.62,1.35,1.02,1.43,0.14,335.00,694.00,144.00,240.00,562.00,1193.00,560.00,789.00,,,,,,,,,,,,0,0,0,,-2552,16052,480,-156,190,-106
20.766,20.58,2.22,1.63,-0.78,-1.12,4.58,4.10,-2.30,2.21,-1.50,361.00,645.00,126.00,196.00,640.00,1170.00,603.00,799.00,,,,,,,,,,,,0,0,0,,-2536,16064,320,-166,113,-75
20.828,20.63,2.13,2.12,-3.02,13.01,-9.16,0.42,0.59,-0.74,0.86,404.00,672.00,205.00,162.00,585.00,1252.00,560.00,843.00,,,,,,,,,,,,0,0,0,,-2488,16020,444,-75,113,-50
20.869,20.69,2.01,-2.63,1.92,-3.88,1.10,-0.30,2.59,0.06,1.13,337.00,710.00,160.00,240.00,532.00,1221.00,544.00,811.00,,,,,,,,,,,,0,0,0,,-2468,16240,504,-127,227,-166
20.93,20.74,2.08,-0.28,1.30,-6.98,11.00,3.51,-0.54,3.07,-0.94,334.00,658.00,99.00,208.00,588.00,1142.00,576.00,761.00,,,,,,,,,,,,0,0,0,,-2488,15956,436,-183,111,-209
20.991,20.80,2.12,1.48,0.38,14.65,-3.94,2.89,-0.49,1.02,0.17,340.00,629.00,150.00,132.00,593.00,1169.00,563.00,801.00,,,,,,,,,,,,0,0,0,,-2540,16000,440,-120,-37,-197
21.052,20.85,2.03,1.99,-0.90,5.80,-3.28,0.28,2.57,0.03,1.73,361.00,638.00,170.00,184.00,527.00,1194.00,527.00,799.00,,,,,,,,,,,,0,0,0,,-2456,16172,596,-110,120,-137
21.094,20.91,2.12,-2.00,3.62,-10.50,15.67,3.74,0.09,3.22,-0.56,304.00,662.00,82.00,211.00,566.00,1113.00,563.00,749.00,,,,,,,,,,,,0,0,0,,-2588,16076,416,-123,227,-186
21.156,20.96,2.20,4.02,-0.53,11.60,-0.84,3.74,-1.27,2.00,-0.80,341.00,583.00,134.00,137.00,609.00,1154.00,583.00,791.00,,,,,,,,,,,,0,0,0,,-2464,16216,364,-18,184,-110
21.217,21.02,2.14,2.54,-1.89,9.54,-5.18,1.04,0.83,-0.08,1.01,377.00,641.00,176.00,167.00,571.00,1214.00,549.00,818.00,,,,,,,,,,,,0,0,0,,-2464,15968,444,-100,87,-185
21.343,21.07,2.13,-2.43,2.64,-5.01,3.55,2.01,0.93,1.68,0.05,323.00,691.00,143.00,235.00,558.00,1165.00,560.00,783.00,,,,,,,,,,,,0,0,0,,-2544,16128,364,-83,47,-244
21.364,21.13,2.27,2.17,-0.34,-0.51,5.43,4.83,-2.29,2.82,-1.64,349.00,624.00,119.00,187.00,631.00,1136.00,601.00,783.00,,,,,,,,,,,,0,0,0,,-2484,15996,524,-91,100,-276
21.385,21.18,2.23,3.10,-2.65,16.34,-9.17,1.48,0.30,-0.71,0.95,389.00,640.00,193.00,142.00,583.00,1210.00,557.00,840.00,,,,,,,,,,,,0,0,0,,-2556,16028,308,-145,76,-222
21.426,21.24,2.14,-1.16,1.49,-0.82,1.38,0.41,2.59,0.12,1.45,336.00,678.00,149.00,211.00,525.00,1187.00,534.00,802.00,,,,,,,,,,,,0,0,0,,-2528,15996,460,-137,66,-106
21.487,21.29,2.20,-0.82,2.21,-8.11,13.77,3.44,-0.23,2.94,-0.80,321.00,656.00,87.00,202.00,579.00,1136.00,573.00,762.00,,,,,,,,,,,,0,0,0,,-2592,16028,504,-82,147,-122
21.53,21.35,2.23,1.70,0.36,14.49,-3.14,2.72,-0.62,1.02,-0.05,339.00,624.00,144.00,130.00,599.00,1181.00,570.00,806.00,,,,,,,,,,,,0,0,0,,-2532,16072,388,-132,175,-119
21.591,21.40,2.11,1.84,-1.21,6.01,-3.99,-0.10,2.45,-0.92,2.62,368.00,647.00,176.00,186.00,534.00,1216.00,511.00,810.00,,,,,,,,,,,,0,0,0,,-2384,16172,524,-66,104,-134
21.654,21.46,2.16,-3.66,4.29,-11.83,12.82,3.01,0.04,2.84,-0.60,302.00,694.00,98.00,240.00,575.00,1147.00,568.00,761.00,,,,,,,,,,,,0,0,0,,-2580,16136,396,-6,129,-182
21.695,21.51,2.21,2.45,-0.69,4.70,1.07,3.21,-1.54,1.40,-0.56,354.00,623.00,137.00,171.00,624.00,1187.00,582.00,805.00,,,,,,,,,,,,0,0,0,,-2508,16128,268,-127,144,-275
21.757,21.57,2.14,2.11,-2.22,13.77,-8.40,0.78,0.76,-0.50,0.92,387.00,658.00,194.00,154.00,576.00,1229.00,556.00,834.00,,,,,,,,,,,,0,0,0,,-2564,15988,328,-123,27,-102
21.797,21.62,2.12,-2.38,2.62,-5.47,3.45,1.75,1.18,1.61,0.11,323.00,690.00,145.00,240.00,553.00,1169.00,559.00,784.00,,,,,,,,,,,,0,0,0,,-2476,16020,700,-160,105,-156
21.86,21.68,2.27,2.35,-0.61,-1.06,6.25,5.06,-2.16,4.39,-2.44,353.00,624.00,115.00,187.00,624.00,1122.00,610.00,752.00,,,,,,,,,,,,0,0,0,,-2528,16088,404,-211,205,-157
21.922,21.73,2.26,3.82,-3.13,18.17,-9.97,2.11,-0.01,0.12,0.54,394.00,630.00,195.00,135.00,586.00,1190.00,561.00,822.00,,,,,,,,,,,,0,0,0,,-2480,16000,488,-41,135,-72
21.984,21.79,2.16,0.82,0.71,3.46,-1.02,0.31,3.13,2.00,1.03,338.00,640.00,157.00,190.00,511.00,1175.00,528.00,753.00,,,,,,,,,,,,0,0,0,,-2400,16152,472,-9,136,-245
22.046,21.84,2.25,-0.67,1.99,-5.53,10.52,3.85,-0.15,3.29,-0.82,324.00,656.00,99.00,199.00,572.00,1115.00,570.00,752.00,,,,,,,,,,,,0,0,0,,-2524,16164,300,-105,89,-154
22.088,21.90,2.30,2.83,0.09,15.51,-3.48,3.36,-0.71,1.11,-0.05,337.00,601.00,144.00,126.00,595.00,1154.00,569.00,803.00,,,,,,,,,,,,0,0,0,,-2476,16008,460,-20,53,-268
22.15,21.95,2.19,2.11,-1.20,4.30,-3.41,0.12,2.62,-0.71,2.55,366.00,640.00,176.00,196.00,527.00,1200.00,511.00,805.00,,,,,,,,,,,,0,0,0,,-2644,16040,260,-59,85,-252
22.211,22.01,2.23,-4.37,6.00,-9.11,11.72,2.92,0.42,3.20,-0.69,279.00,682.00,99.00,222.00,564.00,1139.00,567.00,752.00,,,,,,,,,,,,0,0,0,,-2528,16016,448,-145,85,-177
22.251,22.06,2.30,2.26,-0.47,2.23,3.02,3.73,-1.50,1.75,-0.81,351.00,624.00,129.00,179.00,617.00,1162.00,586.00,799.00,,,,,,,,,,,,0,0,0,,-2560,16056,568,-75,125,-92
22.313,22.12,2.22,2.29,-2.66,11.00,-8.21,0.72,0.74,-0.52,0.99,395.00,661.00,202.00,171.00,577.00,1232.00,554.00,833.00,,,,,,,,,,,,0,0,0,,-2604,16032,408,-89,184,-122
22.415,22.17,2.18,-2.37,2.33,-5.45,3.57,1.29,1.17,1.20,0.28,328.00,695.00,144.00,239.00,558.00,1191.00,558.00,793.00,,,,,,,,,,,,0,0,0,,-2488,16092,388,-114,117,-137
22.436,22.23,2.29,1.08,-0.02,-4.62,8.43,4.36,-2.01,3.26,-2.00,350.00,646.00,109.00,203.00,627.00,1149.00,608.00,777.00,,,,,,,,,,,,0,0,0,,-2528,15996,616,0,81,-165
22.457,22.28,2.27,2.49,-2.16,15.02,-7.74,1.98,-0.15,0.42,0.28,383.00,647.00,183.00,144.00,592.00,1201.00,566.00,818.00,,,,,,,,,,,,0,0,0,,-2548,16096,540,-65,143,-148
22.518,22.34,2.15,1.02,-0.68,3.50,-2.61,-0.12,2.32,-0.04,1.51,363.00,659.00,171.00,198.00,538.00,1221.00,534.00,806.00,,,,,,,,,,,,0,0,0,,-2548,16136,472,-203,101,-313
22.58,22.39,2.23,-1.52,2.50,-10.19,14.68,3.64,-0.21,3.21,-0.86,320.00,669.00,86.00,214.00,576.00,1126.00,572.00,755.00,,,,,,,,,,,,0,0,0,,-2520,16060,344,-110,-51,-130
22.621,22.45,2.28,2.96,-0.23,14.23,-3.05,3.38,-1.02,1.29,-0.18,342.00,603.00,144.00,131.00,605.00,1163.00,571.00,800.00,,,,,,,,,,,,0,0,0,,-2576,15976,504,-144,132,-148
22.703,22.50,2.18,2.45,-1.81,8.62,-5.99,0.22,2.38,-1.25,2.84,376.00,642.00,187.00,177.00,533.00,1203.00,508.00,816.00,,,,,,,,,,,,0,0,0,,-2576,16100,368,-144,222,-117
22.763,22.56,2.18,-2.45,3.76,-8.00,9.91,2.21,0.76,1.86,-0.17,304.00,671.00,107.00,223.00,561.00,1161.00,565.00,782.00,,,,,,,,,,,,0,0,0,,-2556,16056,364,26,100,-80
22.783,22.61,2.30,2.05,-0.45,2.36,2.83,4.45,-2.25,2.26,-1.14,352.00,629.00,130.00,179.00,634.00,1152.00,591.00,790.00,,,,,,,,,,,,0,0,0,,-2552,16020,360,-2,49,-278
22.845,22.67,2.23,2.69,-2.80,13.34,-9.18,0.97,0.50,-0.87,1.27,395.00,653.00,204.00,160.00,582.00,1228.00,549.00,838.00,,,,,,,,,,,,0,0,0,,-2560,16068,252,-111,23,-232
22.908,22.72,2.18,-1.79,1.86,-4.50,2.01,1.27,1.55,1.01,0.71,333.00,688.00,154.00,240.00,547.00,1180.00,547.00,790.00,,,,,,,,,,,,0,0,0,,-2640,16004,436,-86,96,-233
22.97,22.78,2.31,0.98,0.76,-10.42,18.30,4.78,-1.89,3.41,-2.02,336.00,635.00,71.00,196.00,618.00,1126.00,607.00,773.00,,,,,,,,,,,,0,0,0,,-2620,16060,316,-136,67,-210
23.011,22.83,2.33,2.35,-0.61,15.65,-4.28,2.71,-0.71,1.09,-0.11,353.00,624.00,150.00,128.00,602.00,1184.00,571.00,805.00,,,,,,,,,,,,0,0,0,,-2644,16012,460,-60,48,-146
23.073,22.89,2.21,1.31,-0.36,5.69,-2.91,-0.12,2.67,-0.02,1.71,355.00,646.00,167.00,183.00,528.00,1210.00,528.00,801.00,,,,,,,,,,,,0,0,0,,-2576,16076,572,-11,107,-157
23.133,22.94,2.26,-2.03,3.20,-9.20,12.71,3.29,-0.15,3.08,-0.81,311.00,670.00,94.00,217.00,578.00,1140.00,572.00,758.00,,,,,,,,,,,,0,0,0,,-2576,16060,320,-25,191,-152
23.215,23.00,2.31,2.58,-0.15,11.36,-2.34,3.13,-1.48,1.25,-0.58,343.00,611.00,146.00,144.00,623.00,1189.00,584.00,810.00,,,,,,,,,,,,0,0,0,,-2680,16044,472,-47,115,-141
23.236,23.05,2.17,2.00,-2.24,7.60,-6.13,-0.35,1.82,-0.95,2.02,388.00,661.00,192.00,185.00,555.00,1249.00,528.00,824.00,,,,,,,,,,,,0,0,0,,-2484,16024,444,27,30,-161
23.297,23.11,2.11,-2.40,1.90,-6.15,3.68,0.93,0.90,1.65,-0.43,336.00,704.00,145.00,245.00,570.00,1217.00,575.00,794.00,,,,,,,,,,,,0,0,0,,-2484,16128,196,-12,167,-145
23.338,23.16,2.18,1.44,-1.07,-2.08,4.33,3.51,-2.11,1.70,-1.29,368.00,655.00,130.00,205.00,640.00,1191.00,602.00,811.00,,,,,,,,,,,,0,0,0,,-2504,15980,300,-170,109,-191
23.42,23.22,2.13,2.58,-3.04,11.94,-9.16,1.06,0.16,-0.50,0.82,401.00,660.00,209.00,169.00,592.00,1235.00,559.00,836.00,,,,,,,,,,,,0,0,0,,-2524,16016,468,-85,72,-165
23.504,23.27,2.06,-2.16,1.82,-4.28,1.23,0.80,1.81,0.72,1.08,336.00,699.00,160.00,243.00,544.00,1194.00,539.00,791.00,,,,,,,,,,,,0,0,0,,-2568,16088,492,-127,95,-190
23.525,23.33,2.15,0.92,0.62,-7.48,11.74,3.80,-0.61,2.82,-0.92,339.00,639.00,96.00,208.00,587.00,1131.00,578.00,768.00,,,,,,,,,,,,0,0,0,,-2564,16080,448,-132,90,-193
23.566,23.38,2.17,1.46,0.11,14.35,-3.22,2.66,-0.60,0.40,0.45,345.00,634.00,145.00,131.00,599.00,1183.00,561.00,815.00,,,,,,,,,,,,0,0,0,,-2564,16120,252,7,138,-165
23.627,23.44,2.05,1.68,-0.85,4.46,-2.50,-0.17,2.65,-0.05,1.75,362.00,645.00,167.00,190.00,529.00,1213.00,527.00,801.00,,,,,,,,,,,,0,0,0,,-2564,15992,300,-123,122,-158
23.691,23.49,2.12,-2.24,3.58,-8.34,11.09,3.38,-0.12,3.21,-0.86,306.00,669.00,101.00,219.00,576.00,1135.00,572.00,755.00,,,,,,,,,,,,0,0,0,,-2496,16084,336,-142,101,-237
23.733,23.55,2.19,3.19,-0.25,11.24,-0.58,3.54,-1.74,1.35,-0.55,341.00,598.00,133.00,138.00,627.00,1178.00,582.00,806.00,,,,,,,,,,,,0,0,0,,-2444,16108,348,-102,100,-239
23.795,23.60,2.11,1.82,-1.74,7.91,-4.94,0.53,1.04,-0.35,1.24,379.00,657.00,179.00,177.00,570.00,1232.00,545.00,822.00,,,,,,,,,,,,0,0,0,,-2636,15996,452,-143,23,-211
23.879,23.66,2.07,-1.93,1.74,-5.12,3.08,1.27,0.91,0.49,0.22,336.00,694.00,147.00,239.00,566.00,1200.00,567.00,817.00,,,,,,,,,,,,0,0,0,,-2608,16052,328,-92,77,-145
23.899,23.71,2.15,2.17,-1.16,7.16,2.09,3.68,-2.16,2.43,-1.90,365.00,638.00,124.00,151.00,640.00,1185.00,614.00,801.00,,,,,,,,,,,,0,0,0,,-2616,16056,204,-47,174,-154
23.983,23.77,2.05,1.92,-2.68,12.49,-8.62,0.28,0.42,-1.07,0.91,398.00,671.00,201.00,163.00,592.00,1265.00,562.00,853.00,,,,,,,,,,,,0,0,0,,-2604,16080,264,-135,156,-114
24.004,23.82,1.94,-2.06,1.24,-3.69,0.35,-0.17,2.06,0.15,1.00,346.00,707.00,166.00,243.00,546.00,1232.00,547.00,811.00,,,,,,,,,,,,0,0,0,,-2420,16092,268,-88,79,-135
24.067,23.88,1.97,-0.87,1.39,-8.39,11.86,2.44,-0.31,2.19,-0.61,336.00,672.00,97.00,215.00,592.00,1184.00,575.00,781.00,,,,,,,,,,,,0,0,0,,-2552,16044,568,-96,121,-140
24.11,23.93,1.97,0.82,-0.04,12.17,-4.30,1.95,-0.78,0.20,0.19,352.00,653.00,160.00,147.00,613.00,1223.00,571.00,827.00,,,,,,,,,,,,0,0,0,,-2532,16084,244,-212,139,-284
24.174,23.99,1.85,1.52,-1.25,5.25,-4.05,-0.45,2.57,-0.47,1.86,371.00,656.00,179.00,192.00,534.00,1229.00,528.00,812.00,,,,,,,,,,,,0,0,0,,-2572,16096,292,-112,24,-147
24.235,24.04,1.92,-2.19,3.44,-9.44,12.21,3.32,-0.10,3.43,-1.03,308.00,670.00,97.00,222.00,576.00,1137.00,575.00,752.00,,,,,,,,,,,,0,0,0,,-2544,16044,536,-83,91,-151
24.298,24.10,1.99,3.94,-0.99,10.80,-1.51,3.28,-1.35,-0.76,2.56,350.00,592.00,141.00,144.00,617.00,1178.00,511.00,806.00,,,,,,,,,,,,0,0,0,,-2584,16136,504,-137,165,-121
24.34,24.15,1.93,2.28,-1.85,10.34,-7.25,0.75,0.70,-0.20,0.78,378.00,647.00,194.00,171.00,578.00,1232.00,557.00,827.00,,,,,,,,,,,,0,0,0,,-2544,16108,188,-17,144,-60
24.402,24.21,1.90,-1.93,1.74,-5.59,3.62,1.44,0.83,1.07,0.19,336.00,694.00,144.00,240.00,567.00,1195.00,562.00,799.00,,,,,,,,,,,,0,0,0,,-2512,15988,348,0,160,-200
24.486,24.26,2.01,2.45,-1.11,-2.01,5.32,4.14,-2.12,3.00,-1.94,362.00,630.00,123.00,199.00,633.00,1162.00,609.00,784.00,,,,,,,,,,,,0,0,0,,-2364,16188,336,-82,51,-210
24.507,24.32,1.96,3.09,-3.17,15.45,-9.89,0.95,0.22,-0.83,0.86,400.00,649.00,204.00,150.00,591.00,1238.00,561.00,846.00,,,,,,,,,,,,0,0,0,,-2600,16056,304,-20,101,-225
24.549,24.37,1.85,-1.36,1.17,-1.46,-0.06,-0.20,2.62,0.30,1.05,343.00,689.00,163.00,225.00,530.00,1215.00,544.00,805.00,,,,,,,,,,,,0,0,0,,-2668,16072,260,-79,73,-236
24.612,24.43,1.93,-0.63,1.41,-8.60,12.50,3.31,-0.54,2.23,-0.72,334.00,665.00,94.00,213.00,590.00,1151.00,578.00,782.00,,,,,,,,,,,,0,0,0,,-2636,16096,276,-107,57,-181
24.675,24.48,1.92,1.72,-0.03,12.85,-3.22,1.87,-0.45,0.49,0.22,346.00,630.00,149.00,139.00,603.00,1216.00,567.00,817.00,,,,,,,,,,,,0,0,0,,-2488,16096,360,-98,119,-170
24.737,24.54,1.79,1.34,-1.04,4.89,-3.72,-0.78,2.51,-1.01,2.25,368.00,657.00,177.00,193.00,539.00,1247.00,522.00,821.00,,,,,,,,,,,,0,0,0,,-2624,16108,420,-114,170,-130
24.78,24.59,1.82,-3.98,4.34,-5.59,3.62,2.36,-0.12,2.80,-0.78,303.00,702.00,144.00,240.00,587.00,1182.00,574.00,766.00,,,,,,,,,,,,0,0,0,,-2528,16076,228,-74,107,-122
24.843,24.65,1.86,3.51,-2.02,7.08,-0.64,2.60,-1.63,1.01,-0.69,373.00,619.00,144.00,163.00,634.00,1219.00,590.00,820.00,,,,,,,,,,,,0,0,0,,-2504,16120,368,-36,135,-116
24.906,24.70,1.75,1.30,-2.10,8.07,-7.23,-0.16,0.54,-0.76,0.81,390.00,677.00,202.00,187.00,593.00,1283.00,562.00,845.00,,,,,,,,,,,,0,0,0,,-2568,16104,316,-141,133,-335
24.969,24.76,1.71,-3.13,2.15,-6.89,2.69,0.87,1.05,1.08,-0.01,336.00,720.00,155.00,259.00,566.00,1215.00,568.00,803.00,,,,,,,,,,,,0,0,0,,-2620,15980,296,-61,-18,-148
24.99,24.81,1.83,1.98,-1.00,0.59,4.00,4.02,-2.13,2.51,-1.75,363.00,640.00,126.00,186.00,635.00,1168.00,608.00,795.00,,,,,,,,,,,,0,0,0,,-2572,15968,492,-93,23,-201
25.053,24.87,1.79,2.90,-2.82,17.10,-10.81,1.06,0.19,-0.93,0.93,394.00,648.00,208.00,144.00,591.00,1234.00,560.00,848.00,,,,,,,,,,,,0,0,0,,-2560,16080,352,-134,199,-155
25.115,24.92,1.70,-0.19,0.89,0.95,-0.87,0.09,2.39,0.07,1.57,341.00,663.00,163.00,209.00,534.00,1209.00,531.00,801.00,,,,,,,,,,,,0,0,0,,-2588,16068,368,-9,151,-65
25.177,24.98,1.78,-0.77,2.14,-6.98,11.19,3.28,-0.53,2.43,-0.43,322.00,656.00,98.00,207.00,590.00,1152.00,567.00,770.00,,,,,,,,,,,,0,0,0,,-2472,16140,268,3,119,-205
25.219,25.03,1.82,2.80,-0.60,13.10,-3.05,2.63,-0.86,0.75,-0.03,350.00,613.00,147.00,137.00,608.00,1193.00,572.00,814.00,,,,,,,,,,,,0,0,0,,-2564,16172,124,-57,49,-167
25.281,25.09,1.70,1.54,-1.10,7.18,-4.70,-0.68,2.82,-1.16,2.70,368.00,653.00,179.00,181.00,529.00,1232.00,511.00,816.00,,,,,,,,,,,,0,0,0,,-2536,15988,336,-61,76,-227
25.342,25.14,1.65,-3.32,4.12,-21.49,28.50,0.72,3.35,2.82,-0.82,303.00,688.00,50.00,231.00,501.00,1149.00,575.00,766.00,,,,,,,,,,,,0,0,0,,-2668,16064,204,-61,77,-258
25.382,25.20,1.73,2.68,-0.67,5.12,1.34,3.16,-1.52,1.59,-0.94,352.00,617.00,134.00,167.00,624.00,1189.00,592.00,807.00,,,,,,,,,,,,0,0,0,,-2640,15940,380,-152,48,-134
25.443,25.25,1.65,1.22,-1.59,10.05,-7.24,0.30,0.41,-0.64,0.54,380.00,670.00,195.00,173.00,592.00,1264.00,569.00,847.00,,,,,,,,,,,,0,0,0,,-2552,16016,328,-123,119,-101
25.506,25.31,1.61,-2.72,2.01,-7.20,4.03,0.73,1.20,1.22,-0.12,336.00,711.00,145.00,253.00,563.00,1217.00,570.00,801.00,,,,,,,,,,,,0,0,0,,-2608,16072,324,-165,200,-83
25.567,25.36,1.72,1.93,-0.98,-2.50,4.75,3.78,-2.31,2.59,-1.96,363.00,641.00,128.00,206.00,644.00,1185.00,614.00,797.00,,,,,,,,,,,,0,0,0,,-2508,16052,372,-80,98,-125
25.608,25.42,1.66,2.63,-3.10,15.91,-9.31,0.52,0.09,-1.15,0.77,402.00,660.00,196.00,145.00,600.00,1264.00,567.00,859.00,,,,,,,,,,,,0,0,0,,-2536,16052,196,-3,142,-134
25.711,25.47,1.54,0.45,-0.28,1.40,-1.36,-0.67,2.47,-0.34,1.40,359.00,667.00,166.00,208.00,539.00,1243.00,540.00,818.00,,,,,,,,,,,,0,0,0,,-2568,16148,188,-115,114,-332
25.731,25.53,1.63,-0.73,1.34,-7.25,9.49,3.31,-0.63,2.75,-0.96,336.00,669.00,108.00,219.00,593.00,1154.00,580.00,771.00,,,,,,,,,,,,0,0,0,,-2584,16032,260,-79,-51,-134
25.772,25.58,1.68,2.83,-0.40,14.23,-3.05,2.57,-0.78,0.81,-0.21,346.00,609.00,144.00,131.00,606.00,1193.00,577.00,816.00,,,,,,,,,,,,0,0,0,,-2640,16108,528,-151,104,-158
25.813,25.64,1.55,1.84,-1.21,6.19,-4.05,-0.90,2.93,-1.20,2.71,368.00,647.00,176.00,185.00,528.00,1239.00,511.00,817.00,,,,,,,,,,,,0,0,0,,-2492,16184,320,-176,223,-120
25.875,25.69,1.61,-3.10,4.29,-10.09,11.68,2.78,0.18,2.97,-0.84,299.00,679.00,101.00,231.00,573.00,1153.00,574.00,762.00,,,,,,,,,,,,0,0,0,,-2484,16124,388,-46,157,-58
25.937,25.75,1.69,1.33,-0.21,1.24,2.65,3.27,-1.47,1.41,-0.82,352.00,643.00,134.00,188.00,621.00,1182.00,590.00,810.00,,,,,,,,,,,,0,0,0,,-2568,16024,380,-17,122,-223
25.999,25.80,1.62,2.31,-2.29,10.16,-7.84,0.25,0.84,-1.04,1.00,387.00,654.00,201.00,175.00,579.00,1252.00,559.00,850.00,,,,,,,,,,,,0,0,0,,-2568,16100,348,-65,90,-168
26.062,25.86,1.59,-2.50,2.15,-5.17,2.85,1.10,1.17,1.23,0.01,332.00,702.00,149.00,241.00,560.00,1200.00,566.00,798.00,,,,,,,,,,,,0,0,0,,-2576,16020,304,-38,86,-234
26.083,25.91,1.71,1.75,-0.67,-4.02,7.73,3.96,-1.82,3.11,-2.16,358.00,640.00,112.00,202.00,625.00,1161.00,615.00,785.00,,,,,,,,,,,,0,0,0,,-2504,15980,132,-109,77,-220
26.144,25.97,1.70,3.00,-3.09,18.17,-10.26,1.52,-0.43,-0.42,0.66,399.00,650.00,198.00,136.00,606.00,1232.00,563.00,837.00,,,,,,,,,,,,0,0,0,,-2700,16036,296,-147,79,-136
26.206,26.02,1.60,0.28,0.30,2.03,-1.01,-0.44,2.74,-0.47,1.72,349.00,661.00,161.00,201.00,529.00,1223.00,532.00,815.00,,,,,,,,,,,,0,0,0,,-2612,16056,308,-105,149,-95
26.268,26.08,1.66,-1.31,1.87,-8.36,11.47,2.86,-0.26,2.60,-0.87,330.00,675.00,99.00,217.00,586.00,1163.00,579.00,774.00,,,,,,,,,,,,0,0,0,,-2528,16036,272,-102,214,-92
26.31,26.13,1.69,1.79,0.22,12.13,-3.22,2.21,-0.91,0.58,-0.10,341.00,624.00,151.00,143.00,614.00,1214.00,576.00,821.00,,,,,,,,,,,,0,0,0,,-2508,15996,304,-43,131,-112
26.372,26.19,1.55,1.34,-1.44,6.13,-5.15,-1.10,2.44,-1.26,1.99,376.00,664.00,187.00,191.00,544.00,1265.00,532.00,835.00,,,,,,,,,,,,0,0,0,,-2380,16084,288,36,184,-169
26.452,26.24,1.55,-3.88,4.25,-9.94,9.89,1.59,0.29,1.93,-0.55,304.00,701.00,111.00,241.00,582.00,1205.00,576.00,788.00,,,,,,,,,,,,0,0,0,,-2580,16264,260,-127,120,-338
26.473,26.30,1.62,1.83,-0.90,1.37,2.06,3.02,-1.47,1.48,-1.16,362.00,642.00,138.00,190.00,624.00,1194.00,600.00,815.00,,,,,,,,,,,,0,0,0,,-2596,16052,244,-74,-46,-143
26.534,26.35,1.56,2.09,-2.31,11.73,-8.18,0.31,0.69,-0.90,0.89,389.00,660.00,199.00,166.00,583.00,1254.00,561.00,848.00,,,,,,,,,,,,0,0,0,,-2488,16020,500,-152,114,-167
26.597,26.41,1.53,-2.70,2.62,-4.50,2.01,0.93,1.39,1.11,0.05,325.00,699.00,154.00,240.00,555.00,1201.00,566.00,801.00,,,,,,,,,,,,0,0,0,,-2616,16120,408,-203,208,-112
26.637,26.46,1.66,1.25,0.08,-3.73,7.31,4.25,-1.92,2.65,-1.94,347.00,640.00,114.00,202.00,625.00,1151.00,613.00,795.00,,,,,,,,,,,,0,0,0,,-2676,15948,316,-52,106,-44
26.7,26.52,1.68,3.09,-2.70,15.83,-8.41,1.92,-0.19,0.40,0.12,390.00,641.00,187.00,142.00,594.00,1205.00,571.00,822.00,,,,,,,,,,,,0,0,0,,-2484,16080,352,-52,94,-233
26.761,26.57,1.59,0.83,0.06,4.02,-2.24,0.05,2.19,0.10,1.12,350.00,651.00,166.00,192.00,540.00,1217.00,544.00,810.00,,,,,,,,,,,,0,0,0,,-2608,16212,324,-73,89,-198
26.801,26.63,1.67,-1.62,2.54,-8.10,11.95,3.18,-0.15,2.84,-1.08,320.00,671.00,96.00,212.00,579.00,1145.00,583.00,771.00,,,,,,,,,,,,0,0,0,,-2608,15996,292,-29,87,-232
26.862,26.68,1.73,2.55,-0.36,14.23,-3.05,2.86,-1.39,0.58,-0.32,347.00,615.00,144.00,131.00,623.00,1199.00,583.00,826.00,,,,,,,,,,,,0,0,0,,-2612,16040,408,-122,53,-242
26.923,26.74,1.60,1.87,-1.76,7.71,-5.68,-0.87,2.68,-1.35,2.30,379.00,656.00,187.00,182.00,535.00,1246.00,524.00,831.00,,,,,,,,,,,,0,0,0,,-2616,16024,256,-106,83,-117
26.984,26.79,1.61,-3.87,4.61,-9.40,9.87,1.72,0.44,1.73,-0.45,298.00,694.00,110.00,236.00,576.00,1194.00,575.00,792.00,,,,,,,,,,,,0,0,0,,-2560,16092,468,-38,136,-139
27.046,26.85,1.69,1.47,-0.31,0.50,2.76,3.24,-1.99,1.15,-0.80,353.00,641.00,135.00,193.00,639.00,1200.00,592.00,818.00,,,,,,,,,,,,0,0,0,,-2668,16100,244,-26,204,-85
27.107,26.90,1.61,1.74,-2.85,10.87,-8.89,-0.01,0.48,-1.38,0.85,403.00,679.00,210.00,175.00,593.00,1277.00,567.00,865.00,,,,,,,,,,,,0,0,0,,-2588,16068,312,-38,118,-130
27.188,26.96,1.53,-3.24,2.46,-6.52,3.18,0.19,1.41,0.65,0.07,331.00,717.00,150.00,252.00,562.00,1236.00,570.00,815.00,,,,,,,,,,,,0,0,0,,-2608,16044,176,59,137,-165
27.209,27.01,1.64,0.33,0.23,-5.27,8.48,3.55,-1.98,2.46,-2.00,350.00,661.00,110.00,208.00,635.00,1185.00,617.00,802.00,,,,,,,,,,,,0,0,0,,-2516,16140,108,-125,66,-274
27.271,27.07,1.64,2.08,-2.07,14.93,-7.61,1.79,-0.52,0.15,0.05,384.00,656.00,182.00,144.00,606.00,1222.00,576.00,832.00,,,,,,,,,,,,0,0,0,,-2668,15968,204,-105,4,-163
27.332,27.12,1.56,1.60,-1.03,4.56,-2.64,-0.09,2.00,-0.41,1.60,366.00,650.00,168.00,190.00,547.00,1230.00,535.00,816.00,,,,,,,,,,,,0,0,0,,-2632,15968,416,-77,71,-170
27.352,27.18,1.65,-1.87,2.80,-9.70,13.27,3.43,-0.45,2.75,-1.15,317.00,673.00,92.00,218.00,586.00,1143.00,586.00,775.00,,,,,,,,,,,,0,0,0,,-2644,16196,232,-123,166,-137
27.413,27.23,1.70,2.38,0.02,11.93,-2.66,2.67,-1.18,0.85,-0.32,341.00,613.00,147.00,142.00,618.00,1201.00,580.00,817.00,,,,,,,,,,,,0,0,0,,-2424,16084,220,46,132,-49
27.475,27.29,1.58,2.47,-2.30,8.41,-6.31,-0.72,2.42,-1.62,2.21,386.00,650.00,191.00,180.00,541.00,1247.00,529.00,842.00,,,,,,,,,,,,0,0,0,,-2476,16080,224,42,130,-203
27.537,27.34,1.58,-3.47,4.29,-9.11,9.44,1.56,0.50,1.35,-0.36,301.00,689.00,112.00,236.00,576.00,1200.00,576.00,802.00,,,,,,,,,,,,0,0,0,,-2548,16188,92,-63,133,-169
27.598,27.40,1.67,1.84,-0.80,2.12,2.35,3.44,-2.00,1.61,-1.38,360.00,640.00,134.00,183.00,637.00,1191.00,606.00,816.00,,,,,,,,,,,,0,0,0,,-2664,16060,260,-81,89,-233
27.639,27.45,1.60,2.65,-3.25,13.04,-9.44,0.30,0.41,-1.16,0.62,405.00,662.00,208.00,163.00,592.00,1264.00,572.00,863.00,,,,,,,,,,,,0,0,0,,-2624,16032,104,-73,49,-216
27.68,27.51,1.54,-2.73,2.29,-4.73,1.73,0.36,1.29,0.21,0.22,331.00,706.00,157.00,244.00,564.00,1232.00,570.00,826.00,,,,,,,,,,,,0,0,0,,-2648,16016,296,-127,60,-132
27.742,27.56,1.65,0.44,0.35,-4.98,8.05,3.71,-2.09,2.50,-1.86,347.00,656.00,112.00,208.00,637.00,1181.00,612.00,798.00,,,,,,,,,,,,0,0,0,,-2584,16056,236,-32,146,-173
27.803,27.62,1.63,1.08,-0.59,12.99,-6.02,1.28,-0.23,0.34,-0.02,361.00,656.00,173.00,149.00,602.00,1237.00,576.00,827.00,,,,,,,,,,,,0,0,0,,-2604,16104,164,-141,129,-88
27.926,27.67,1.54,0.12,0.09,1.62,-1.32,-0.19,1.64,-0.09,0.98,354.00,669.00,165.00,206.00,559.00,1247.00,550.00,819.00,,,,,,,,,,,,0,0,0,,-2608,15968,76,-128,92,-122
27.946,27.73,1.59,-1.94,2.08,-10.10,13.01,2.47,-0.53,2.59,-1.34,330.00,688.00,94.00,223.00,599.00,1190.00,594.00,784.00,,,,,,,,,,,,0,0,0,,-2544,16164,64,-73,135,-195
27.987,27.78,1.61,2.40,-0.68,11.46,-2.99,1.99,-1.13,0.35,-0.21,354.00,624.00,151.00,146.00,624.00,1232.00,582.00,831.00,,,,,,,,,,,,0,0,0,,-2584,16128,136,-248,19,-245
28.029,27.84,1.48,1.77,-2.06,5.27,-3.10,-0.94,2.39,-1.19,2.10,386.00,664.00,170.00,187.00,544.00,1259.00,528.00,830.00,,,,,,,,,,,,0,0,0,,-2660,16028,280,-193,-35,-199
28.07,27.89,1.47,-2.90,3.56,-7.56,8.27,1.18,0.53,1.35,-0.36,310.00,687.00,116.00,229.00,579.00,1217.00,576.00,802.00,,,,,,,,,,,,0,0,0,,-2524,16008,216,-120,48,-241
28.131,27.95,1.56,1.86,-0.65,0.67,2.70,3.28,-1.88,1.50,-1.22,357.00,637.00,135.00,192.00,635.00,1195.00,602.00,816.00,,,,,,,,,,,,0,0,0,,-2632,16160,200,-65,39,-186
28.192,28.00,1.48,2.10,-2.83,13.24,-9.51,0.11,0.26,-1.00,0.59,400.00,669.00,208.00,162.00,599.00,1279.00,571.00,858.00,,,,,,,,,,,,0,0,0,,-2584,16140,356,25,108,-140
28.273,28.06,1.42,-2.25,1.69,-6.37,3.25,0.24,1.46,0.04,0.57,339.00,704.00,149.00,250.00,560.00,1232.00,561.00,824.00,,,,,,,,,,,,0,0,0,,-2568,16024,224,27,130,-158
28.314,28.11,1.52,1.14,-0.51,-4.58,9.11,3.47,-1.98,2.10,-1.79,359.00,653.00,105.00,199.00,636.00,1189.00,614.00,809.00,,,,,,,,,,,,0,0,0,,-2528,16096,152,-15,40,-207
28.354,28.17,1.53,1.93,-1.34,16.24,-6.57,1.65,-0.63,0.62,-0.02,370.00,647.00,168.00,133.00,611.00,1232.00,573.00,818.00,,,,,,,,,,,,0,0,0,,-2604,16016,148,48,-66,-179
28.395,28.22,1.42,1.26,-0.86,3.02,-1.90,-0.68,2.07,-0.34,1.27,365.00,656.00,166.00,198.00,551.00,1257.00,544.00,821.00,,,,,,,,,,,,0,0,0,,-2652,16060,104,-79,-151,-189
28.458,28.28,1.46,-2.18,2.44,-10.21,13.85,2.19,-0.22,2.81,-1.04,325.00,688.00,90.00,219.00,592.00,1193.00,582.00,771.00,,,,,,,,,,,,0,0,0,,-2604,16032,248,-90,-128,-100
28.521,28.33,1.48,2.17,-0.76,10.35,-2.13,1.91,-1.22,0.95,-0.73,357.00,631.00,147.00,149.00,628.00,1239.00,592.00,823.00,,,,,,,,,,,,0,0,0,,-2548,16088,232,-101,-158,-105
28.562,28.39,1.33,1.76,-2.72,6.47,-5.66,-1.56,2.23,-1.35,1.95,400.00,676.00,191.00,191.00,555.00,1296.00,534.00,839.00,,,,,,,,,,,,0,0,0,,-2496,16052,280,-194,-33,-108
28.643,28.44,1.30,-4.29,4.32,-9.09,8.31,0.67,0.32,0.78,-0.17,305.00,711.00,119.00,243.00,591.00,1249.00,576.00,816.00,,,,,,,,,,,,0,0,0,,-2496,16024,232,-152,166,-135
28.685,28.50,1.35,-0.07,-0.56,-1.44,4.11,2.39,-2.13,0.73,-1.30,368.00,686.00,130.00,201.00,654.00,1246.00,613.00,843.00,,,,,,,,,,,,0,0,0,,-2480,16076,120,-17,135,-86
28.725,28.55,1.25,1.30,-3.29,9.51,-8.34,-0.65,0.09,-1.21,0.60,416.00,699.00,209.00,182.00,613.00,1324.00,573.00,865.00,,,,,,,,,,,,0,0,0,,-2600,16296,4,-125,-186,-259
28.787,28.61,1.19,-2.84,1.72,-5.86,2.35,0.06,1.10,0.93,0.17,342.00,720.00,155.00,251.00,573.00,1253.00,564.00,804.00,,,,,,,,,,,,0,0,0,,-2600,16072,108,-165,-261,-133
28.848,28.66,1.30,0.52,0.06,-4.67,7.79,3.43,-2.11,3.21,-2.25,352.00,659.00,113.00,207.00,641.00,1195.00,617.00,784.00,,,,,,,,,,,,0,0,0,,-2588,15956,364,-135,-213,-112
28.89,28.72,1.31,1.92,-1.03,12.74,-4.38,1.55,-0.80,0.36,0.14,364.00,642.00,159.00,144.00,618.00,1243.00,571.00,823.00,,,,,,,,,,,,0,0,0,,-2512,16108,328,-254,-81,-106
28.971,28.77,1.22,1.23,-0.65,3.80,-3.25,-0.50,2.01,0.32,0.98,361.00,653.00,176.00,199.00,551.00,1250.00,546.00,806.00,,,,,,,,,,,,0,0,0,,-2468,15976,296,-291,-130,-98
29.012,28.83,1.29,-2.05,2.68,-8.39,11.86,2.55,-0.44,3.47,-1.23,320.00,680.00,97.00,215.00,595.00,1183.00,581.00,755.00,,,,,,,,,,,,0,0,0,,-2596,16008,596,-252,-189,-203
29.073,28.88,1.35,2.38,-0.41,11.91,-3.15,2.41,-1.59,1.04,-0.32,349.00,620.00,151.00,144.00,635.00,1227.00,578.00,811.00,,,,,,,,,,,,0,0,0,,-2616,16028,484,-185,-274,-105
29.136,28.94,1.23,2.12,-2.13,6.13,-5.15,-0.93,2.05,-0.67,1.93,385.00,656.00,187.00,191.00,554.00,1270.00,528.00,817.00,,,,,,,,,,,,0,0,0,,-2540,16124,384,-9,-340,-243
29.198,28.99,1.23,-3.44,3.98,-7.86,7.44,1.14,0.13,1.27,-0.01,306.00,694.00,122.00,237.00,592.00,1232.00,566.00,797.00,,,,,,,,,,,,0,0,0,,-2588,16104,468,181,-239,-254
29.239,29.05,1.32,2.34,-1.47,-3.71,9.17,3.04,-2.15,2.13,-1.47,370.00,639.00,103.00,192.00,647.00,1215.00,603.00,801.00,,,,,,,,,,,,0,0,0,,-2608,16056,396,225,-109,-119
29.3,29.10,1.25,2.10,-3.33,10.53,-8.60,-0.08,0.05,-0.90,0.89,411.00,678.00,208.00,176.00,608.00,1296.00,561.00,848.00,,,,,,,,,,,,0,0,0,,-2548,15940,372,135,82,49
29.382,29.16,1.19,-2.33,1.18,-5.39,1.95,0.14,0.97,0.80,0.31,349.00,716.00,157.00,249.00,576.00,1253.00,561.00,805.00,,,,,,,,,,,,0,0,0,,-2464,16144,268,-72,256,44
29.402,29.21,1.28,0.91,-0.74,-4.64,6.66,2.99,-2.07,2.27,-1.76,365.00,663.00,120.00,213.00,645.00,1215.00,611.00,803.00,,,,,,,,,,,,0,0,0,,-2380,15956,276,-319,269,-16
29.443,29.27,1.26,1.39,-1.05,12.47,-4.75,0.89,-0.37,-1.08,0.49,368.00,656.00,163.00,147.00,611.00,1261.00,575.00,863.00,,,,,,,,,,,,0,0,0,,-2508,16308,260,-402,183,-96
29.505,29.32,1.16,0.85,-0.82,1.92,-2.30,-0.84,1.66,-0.00,1.09,367.00,666.00,173.00,209.00,565.00,1279.00,546.00,814.00,,,,,,,,,,,,0,0,0,,-2332,16164,492,-247,335,-31
29.565,29.38,1.23,-1.69,1.72,-8.15,10.14,2.68,-0.88,2.85,-1.15,335.00,688.00,106.00,223.00,608.00,1191.00,585.00,772.00,,,,,,,,,,,,0,0,0,,-2452,15972,456,-168,326,-231
29.606,29.43,1.27,2.54,-0.88,11.36,-2.34,2.05,-1.18,1.13,-0.63,357.00,624.00,146.00,144.00,625.00,1231.00,587.00,815.00,,,,,,,,,,,,0,0,0,,-2424,16216,368,253,300,-251
29.668,29.49,1.17,2.25,-2.32,6.39,-5.53,-0.72,1.98,-0.76,1.61,388.00,656.00,190.00,191.00,554.00,1262.00,538.00,827.00,,,,,,,,,,,,0,0,0,,-2600,16080,272,336,271,-255
29.75,29.54,1.20,-3.36,4.07,-7.70,8.32,1.60,-0.18,1.87,-0.57,304.00,690.00,116.00,230.00,597.00,1220.00,577.00,790.00,,,,,,,,,,,,0,0,0,,-2536,15992,76,88,219,-210
29.81,29.60,1.31,2.23,-1.09,0.91,2.35,3.40,-2.44,2.09,-1.45,363.00,635.00,137.00,192.00,653.00,1207.00,603.00,802.00,,,,,,,,,,,,0,0,0,,-2428,16368,-84,27,239,-52
29.831,29.65,1.26,2.02,-2.99,9.77,-8.52,0.36,0.17,-0.65,0.74,404.00,674.00,210.00,181.00,599.00,1269.00,563.00,843.00,,,,,,,,,,,,0,0,0,,-2384,16060,-80,-72,73,-69
29.892,29.71,1.23,-2.40,1.90,-4.22,1.44,0.69,0.85,1.27,-0.11,336.00,704.00,158.00,241.00,574.00,1230.00,569.00,799.00,,,,,,,,,,,,0,0,0,,-2408,16208,268,-225,-82,-200
29.933,29.76,1.35,0.85,-0.26,-4.86,7.52,3.65,-2.13,3.15,-2.18,356.00,656.00,115.00,210.00,639.00,1185.00,615.00,784.00,,,,,,,,,,,,0,0,0,,-2516,16060,324,-212,2,-306
29.994,29.82,1.38,1.64,-1.14,13.05,-6.36,1.94,-0.99,0.23,0.50,368.00,651.00,176.00,150.00,620.00,1230.00,561.00,819.00,,,,,,,,,,,,0,0,0,,-2572,16072,400,-136,56,-323
30.467,29.87,1.30,1.44,-1.07,2.78,-2.48,-0.17,1.47,0.21,0.91,368.00,655.00,172.00,203.00,564.00,1252.00,549.00,811.00,,,,,,,,,,,,1,0,0,,-2564,16140,220,-49,252,-116
30.489,29.93,1.36,-1.60,1.85,-7.84,9.52,2.41,-0.48,2.84,-1.08,332.00,683.00,109.00,224.00,598.00,1191.00,583.00,771.00,,,,,,,,,,,,1,0,0,,-2492,15928,220,-233,400,-5
30.51,29.98,1.41,2.63,-1.01,9.57,-1.23,2.28,-1.46,1.17,-0.65,359.00,624.00,142.00,150.00,632.00,1229.00,587.00,814.00,,,,,,,,,,,,1,0,0,,-2484,15960,212,-513,299,-82
30.53,30.04,1.28,1.96,-2.74,4.96,-4.95,-1.06,1.90,-1.09,1.83,399.00,671.00,189.00,199.00,560.00,1282.00,535.00,833.00,,,,,,,,,,,,1,0,0,,-2464,16172,208,-366,22,-82
30.551,30.09,1.26,-3.42,3.14,-7.08,6.29,0.77,0.25,1.47,-0.40,320.00,709.00,128.00,237.00,592.00,1246.00,576.00,799.00,,,,,,,,,,,,1,0,0,,-2436,16244,420,-126,4,-130
30.572,30.15,1.32,1.20,-0.94,-1.95,3.58,2.57,-1.79,1.85,-1.46,367.00,659.00,135.00,208.00,640.00,1226.00,606.00,810.00,,,,,,,,,,,,1,0,0,,-2520,16068,432,-164,142,-270
30.592,30.20,1.25,2.03,-2.95,5.22,-6.99,-0.03,0.46,-0.42,0.30,403.00,673.00,210.00,208.00,594.00,1279.00,574.00,845.00,,,,,,,,,,,,1,0,0,,-2504,16116,308,-63,127,-279
30.613,30.26,1.22,-2.20,1.62,-5.97,3.12,0.55,1.16,1.30,-0.15,340.00,704.00,149.00,247.00,566.00,1227.00,570.00,799.00,,,,,,,,,,,,1,0,0,,-2556,16100,376,-12,84,-165
30.634,30.31,1.35,1.24,-0.55,-4.98,8.05,3.88,-2.14,3.53,-2.30,359.00,651.00,112.00,208.00,637.00,1175.00,615.00,775.00,,,,,,,,,,,,1,0,0,,-2496,16148,176,-43,128,-101
30.654,30.37,1.38,2.65,-2.17,14.62,-6.89,1.87,-0.61,0.81,0.02,382.00,643.00,176.00,143.00,608.00,1221.00,570.00,811.00,,,,,,,,,,,,1,0,0,,-2440,16176,124,3,315,12
30.674,30.42,1.29,1.26,-0.86,1.78,-1.38,-0.47,2.03,0.49,1.06,365.00,656.00,165.00,205.00,550.00,1248.00,542.00,799.00,,,,,,,,,,,,1,0,0,,-2472,16096,120,-95,253,-54
30.695,30.48,1.37,-0.97,1.59,-8.36,11.47,2.89,-0.46,3.50,-1.18,333.00,671.00,99.00,217.00,592.00,1168.00,579.00,753.00,,,,,,,,,,,,1,0,0,,-2412,16216,140,-68,54,-158
30.717,30.53,1.43,2.50,-0.76,11.14,-2.01,2.63,-1.64,1.18,-0.52,355.00,623.00,144.00,144.00,634.00,1218.00,583.00,811.00,,,,,,,,,,,,1,0,0,,-2484,16064,308,-31,65,-206
30.778,30.59,1.28,2.45,-2.67,8.37,-6.87,-1.46,2.56,-0.48,1.69,394.00,657.00,197.00,183.00,544.00,1279.00,533.00,816.00,,,,,,,,,,,,1,0,0,,-2476,16056,312,-55,31,-189
30.88,30.64,1.33,-4.01,4.60,-10.87,10.03,2.28,-1.37,2.12,-0.65,299.00,698.00,112.00,249.00,629.00,1226.00,577.00,784.00,,,,,,,,,,,,1,0,0,,-2492,16152,452,5,156,-103
30.901,30.70,1.43,2.35,-1.38,1.32,1.55,3.29,-2.49,1.89,-1.29,368.00,637.00,142.00,193.00,656.00,1214.00,600.00,805.00,,,,,,,,,,,,1,0,0,,-2400,16124,208,120,251,-123
30.942,30.75,1.34,2.26,-3.57,11.78,-9.80,-0.44,0.60,-1.14,1.10,415.00,678.00,217.00,173.00,594.00,1295.00,557.00,851.00,,,,,,,,,,,,1,0,0,,-2388,16160,-76,68,123,-234
31.003,30.81,1.27,-3.31,2.21,-7.04,3.35,-0.10,1.47,0.87,0.26,336.00,724.00,150.00,256.00,563.00,1248.00,562.00,804.00,,,,,,,,,,,,1,0,0,,-2412,16088,152,107,45,-208
31.044,30.86,1.39,0.17,0.12,-7.65,11.99,3.83,-2.41,3.28,-2.69,353.00,667.00,95.00,208.00,647.00,1186.00,631.00,791.00,,,,,,,,,,,,1,0,0,,-2492,16208,184,80,140,-184
31.105,30.92,1.39,2.74,-3.05,16.75,-7.60,1.36,-0.86,0.70,-0.14,400.00,656.00,176.00,134.00,622.00,1254.00,576.00,818.00,,,,,,,,,,,,1,0,0,,-2496,16148,84,-188,131,-272
31.167,30.97,1.27,0.78,-0.54,2.52,-2.28,-0.98,2.30,0.25,1.03,362.00,663.00,171.00,204.00,547.00,1264.00,545.00,807.00,,,,,,,,,,,,1,0,0,,-2456,16028,56,-359,47,-86
31.248,31.03,1.35,-1.08,2.41,-11.82,16.57,2.80,-0.43,3.38,-1.20,319.00,659.00,80.00,217.00,592.00,1171.00,581.00,757.00,,,,,,,,,,,,1,0,0,,-2428,16136,264,-323,2,-170
31.269,31.08,1.41,2.05,0.02,13.49,-2.80,2.58,-1.50,1.39,-1.06,343.00,621.00,144.00,134.00,630.00,1216.00,598.00,816.00,,,,,,,,,,,,1,0,0,,-2456,16192,548,-298,39,-140
31.31,31.14,1.28,2.38,-2.46,8.08,-5.61,-1.16,2.36,-1.09,2.14,390.00,655.00,185.00,179.00,547.00,1271.00,526.00,826.00,,,,,,,,,,,,1,0,0,,-2440,16124,512,0,192,-11
31.372,31.19,1.30,-4.62,4.86,-13.68,13.45,1.68,-0.51,2.37,-0.93,298.00,710.00,98.00,254.00,607.00,1227.00,583.00,782.00,,,,,,,,,,,,1,0,0,,-2412,15948,284,120,284,-97
31.433,31.25,1.39,2.12,-1.50,0.55,1.55,2.99,-2.42,2.08,-1.39,372.00,645.00,144.00,199.00,657.00,1226.00,601.00,801.00,,,,,,,,,,,,1,0,0,,-2440,16220,136,42,253,-122
31.494,31.30,1.30,2.09,-3.15,10.96,-9.86,-0.29,0.24,-1.00,0.85,407.00,675.00,221.00,179.00,604.00,1300.00,563.00,852.00,,,,,,,,,,,,1,0,0,,-2372,16104,8,159,215,-190
31.535,31.36,1.26,-2.70,1.51,-6.52,1.87,0.44,0.81,1.41,-0.22,345.00,720.00,161.00,261.00,578.00,1244.00,571.00,797.00,,,,,,,,,,,,1,0,0,,-2448,16108,-84,33,51,-232
31.597,31.41,1.38,0.76,-0.69,-3.37,4.62,3.67,-2.62,2.04,-2.07,365.00,666.00,131.00,214.00,656.00,1200.00,624.00,817.00,,,,,,,,,,,,1,0,0,,-2420,16040,224,-20,64,-191
31.66,31.47,1.37,2.74,-3.05,15.04,-8.54,1.18,-0.86,0.53,0.11,400.00,656.00,191.00,147.00,624.00,1263.00,570.00,818.00,,,,,,,,,,,,1,0,0,,-2416,16128,32,19,111,-184
31.702,31.52,1.25,0.17,-0.64,0.16,-1.27,-1.08,2.03,-0.07,1.28,368.00,681.00,169.00,218.00,556.00,1278.00,541.00,812.00,,,,,,,,,,,,1,0,0,,-2420,16168,44,63,118,-157
31.764,31.58,1.31,-2.16,1.82,-11.25,13.40,2.43,-0.86,2.54,-1.17,336.00,699.00,94.00,231.00,610.00,1202.00,589.00,782.00,,,,,,,,,,,,1,0,0,,-2392,16180,-16,50,59,-219
31.806,31.63,1.35,2.09,-1.34,10.93,-4.46,2.08,-2.39,0.41,-0.20,369.00,643.00,165.00,155.00,667.00,1270.00,581.00,829.00,,,,,,,,,,,,1,0,0,,-2468,16152,-36,-13,122,-189
31.869,31.69,1.18,0.70,-2.13,3.29,-4.68,-2.03,2.12,-1.52,2.14,395.00,694.00,192.00,211.00,563.00,1324.00,530.00,840.00,,,,,,,,,,,,1,0,0,,-2384,16064,32,-130,173,-263
31.949,31.74,1.19,-4.16,3.92,-12.49,12.12,1.44,-0.16,2.71,-1.13,311.00,715.00,103.00,251.00,598.00,1227.00,586.00,776.00,,,,,,,,,,,,1,0,0,,-2488,16124,148,-113,89,-245
31.969,31.80,1.26,1.53,-1.20,1.21,1.33,2.67,-2.28,1.61,-1.38,370.00,655.00,144.00,195.00,656.00,1237.00,606.00,816.00,,,,,,,,,,,,1,0,0,,-2512,16084,308,73,91,-259
32.031,31.85,1.18,1.68,-3.15,9.22,-7.71,-0.39,0.31,-0.80,0.69,410.00,686.00,203.00,181.00,603.00,1303.00,566.00,849.00,,,,,,,,,,,,1,0,0,,-2592,16196,48,191,96,-182
32.093,31.91,1.18,-2.84,1.72,-6.87,2.10,1.14,0.19,1.26,-0.14,342.00,720.00,160.00,263.00,590.00,1230.00,570.00,800.00,,,,,,,,,,,,1,0,0,,-2728,15984,52,-350,176,8
32.154,31.96,1.28,1.22,-1.15,-5.98,7.27,3.23,-2.55,3.18,-2.45,371.00,662.00,119.00,221.00,659.00,1219.00,624.00,789.00,,,,,,,,,,,,1,0,0,,-2492,16160,-120,-168,237,-24
32.214,32.02,1.27,2.70,-3.26,14.00,-9.22,1.08,-0.82,0.70,-0.04,405.00,661.00,202.00,156.00,624.00,1267.00,573.00,816.00,,,,,,,,,,,,1,0,0,,-2572,16208,-48,-157,108,-50
32.255,32.07,1.16,0.57,-0.63,1.57,-1.97,-0.93,1.85,-0.09,1.22,365.00,670.00,171.00,210.00,560.00,1277.00,543.00,814.00,,,,,,,,,,,,1,0,0,,-2388,16136,-104,-43,50,-65
32.316,32.13,1.22,-1.45,1.36,-10.19,12.65,2.37,-1.11,2.86,-1.22,340.00,688.00,96.00,226.00,619.00,1213.00,587.00,773.00,,,,,,,,,,,,1,0,0,,-2548,16080,44,-66,102,-24
32.398,32.18,1.23,1.96,-0.74,9.92,-2.48,1.31,-1.37,0.49,-0.42,358.00,636.00,151.00,153.00,640.00,1274.00,587.00,831.00,,,,,,,,,,,,1,0,0,,-2284,16000,-52,29,244,-33
32.439,32.24,1.06,0.80,-1.69,2.08,-3.59,-2.04,2.19,-1.27,1.65,385.00,683.00,185.00,215.00,561.00,1322.00,542.00,843.00,,,,,,,,,,,,1,0,0,,-2348,16148,80,-237,176,-1
32.481,32.29,1.06,-4.16,3.92,-12.03,10.42,1.04,-0.21,2.37,-1.11,311.00,715.00,112.00,258.00,604.00,1248.00,589.00,786.00,,,,,,,,,,,,1,0,0,,-2284,16168,-28,-341,134,9
32.56,32.35,1.09,1.34,-1.04,-0.90,2.04,1.66,-1.99,0.87,-1.10,368.00,657.00,144.00,208.00,658.00,1278.00,605.00,834.00,,,,,,,,,,,,1,0,0,,-2328,16024,104,-334,31,-42
32.581,32.40,0.98,0.73,-2.56,5.91,-7.65,-1.10,0.00,-1.43,0.58,404.00,701.00,215.00,206.00,621.00,1351.00,576.00,873.00,,,,,,,,,,,,1,0,0,,-2320,16172,172,-205,225,69
32.643,32.46,0.92,-3.88,2.13,-8.84,2.54,-0.32,0.34,0.70,-0.36,341.00,742.00,162.00,281.00,601.00,1298.00,583.00,823.00,,,,,,,,,,,,1,0,0,,-2256,16372,140,-229,308,-228
32.685,32.51,1.01,1.53,-1.60,-4.20,4.48,2.85,-2.51,2.24,-2.14,378.00,662.00,134.00,222.00,662.00,1236.00,624.00,812.00,,,,,,,,,,,,1,0,0,,-2264,16116,-68,-28,122,-246
32.746,32.57,0.99,2.84,-3.08,12.33,-8.84,0.51,-0.66,-0.26,0.38,400.00,654.00,204.00,165.00,625.00,1290.00,570.00,838.00,,,,,,,,,,,,1,0,0,,-2300,16056,-100,37,-40,-336
32.807,32.62,0.88,0.40,-0.26,-0.06,-1.63,-1.14,1.73,-0.25,1.14,359.00,668.00,173.00,222.00,566.00,1292.00,547.00,821.00,,,,,,,,,,,,1,0,0,,-2452,16160,132,-48,-11,-244
32.848,32.68,0.95,-1.21,1.23,-8.14,9.96,2.16,-0.89,2.97,-1.90,341.00,684.00,107.00,224.00,614.00,1216.00,608.00,784.00,,,,,,,,,,,,1,0,0,,-2448,15984,132,-34,81,-239
32.909,32.73,0.95,2.55,-1.19,8.89,-3.31,0.98,-0.93,0.04,-0.01,363.00,629.00,161.00,163.00,629.00,1276.00,579.00,837.00,,,,,,,,,,,,1,0,0,,-2464,16080,8,-39,143,-226
32.972,32.79,0.83,1.35,-1.73,2.52,-3.54,-1.33,1.89,-0.90,1.59,382.00,669.00,183.00,211.00,563.00,1296.00,540.00,832.00,,,,,,,,,,,,1,0,0,,-2444,16220,12,94,184,-181
33.054,32.84,0.87,-3.42,3.67,-10.60,9.94,1.52,-0.49,2.26,-0.95,311.00,699.00,112.00,247.00,608.00,1234.00,585.00,786.00,,,,,,,,,,,,1,0,0,,-2424,16032,-52,-38,111,-184
33.096,32.90,0.91,1.79,-1.19,1.98,0.19,1.77,-1.69,0.95,-1.01,368.00,648.00,151.00,195.00,646.00,1262.00,601.00,829.00,,,,,,,,,,,,1,0,0,,-2476,16096,-48,42,6,-184
33.158,32.95,0.82,1.19,-2.80,-0.10,-4.48,-0.94,0.40,-1.11,0.53,406.00,693.00,202.00,240.00,606.00,1328.00,574.00,863.00,,,,,,,,,,,,1,0,0,,-2440,16104,40,-215,-38,-139
33.198,33.01,0.77,-2.94,1.86,-8.60,3.39,-0.19,0.58,0.95,-0.42,340.00,720.00,154.00,272.00,592.00,1283.00,582.00,816.00,,,,,,,,,,,,1,0,0,,-2396,16128,40,-156,108,-271
33.26,33.06,0.86,0.28,0.30,-1.79,2.99,2.52,-2.56,1.72,-1.96,349.00,661.00,139.00,210.00,668.00,1254.00,624.00,825.00,,,,,,,,,,,,1,0,0,,-2540,16032,4,-8,214,-235
33.322,33.12,0.80,1.82,-2.97,10.55,-9.04,-0.26,-0.49,-1.19,0.40,405.00,679.00,213.00,178.00,628.00,1324.00,579.00,869.00,,,,,,,,,,,,1,0,0,,-2424,16020,-328,-38,120,-74
33.363,33.17,0.69,-0.50,-0.42,-1.92,-1.32,-1.45,1.67,-0.34,0.90,368.00,695.00,176.00,237.00,571.00,1310.00,555.00,829.00,,,,,,,,,,,,1,0,0,,-2296,16144,116,-36,96,76
33.447,33.23,0.73,-1.27,0.40,-8.01,7.34,1.60,-1.03,1.46,-0.93,357.00,701.00,123.00,239.00,625.00,1248.00,593.00,811.00,,,,,,,,,,,,1,0,0,,-2296,16128,-44,-403,151,-115
33.466,33.28,0.73,1.86,-1.11,9.16,-4.84,0.57,-1.06,-0.32,-0.02,366.00,645.00,174.00,168.00,638.00,1301.00,583.00,849.00,,,,,,,,,,,,1,0,0,,-2316,15988,192,-501,43,-37
33.528,33.34,0.63,1.16,-1.67,1.06,-2.43,-1.29,1.75,-0.75,1.37,382.00,673.00,177.00,217.00,567.00,1299.00,545.00,832.00,,,,,,,,,,,,1,0,0,,-2280,16124,308,-493,73,-180
33.569,33.39,0.69,-3.61,3.79,-11.39,10.21,1.84,-0.78,2.58,-1.28,310.00,702.00,112.00,253.00,614.00,1228.00,592.00,783.00,,,,,,,,,,,,1,0,0,,-2444,16228,360,-306,189,-229
33.632,33.45,0.74,3.13,-1.64,5.66,-1.41,1.84,-1.80,1.27,-1.12,368.00,622.00,154.00,176.00,649.00,1262.00,601.00,821.00,,,,,,,,,,,,1,0,0,,-2532,16060,236,-33,378,-223
33.694,33.50,0.69,1.36,-2.40,5.38,-5.95,-0.38,-0.00,-0.54,0.31,396.00,681.00,198.00,201.00,613.00,1313.00,575.00,849.00,,,,,,,,,,,,1,0,0,,-2476,16108,4,179,219,-235
33.734,33.56,0.67,-2.53,1.67,-7.45,1.84,0.39,0.10,1.01,-0.50,341.00,712.00,164.00,271.00,601.00,1270.00,584.00,816.00,,,,,,,,,,,,1,0,0,,-2400,16168,-96,176,62,-49
33.796,33.61,0.75,1.95,-1.54,-1.17,2.26,2.15,-2.13,1.78,-1.68,374.00,650.00,143.00,209.00,657.00,1258.00,614.00,817.00,,,,,,,,,,,,1,0,0,,-2404,16128,40,116,142,-113
33.857,33.67,0.70,2.06,-3.05,2.93,-6.04,-0.15,-0.76,-1.13,0.47,405.00,674.00,208.00,222.00,636.00,1328.00,576.00,865.00,,,,,,,,,,,,1,0,0,,-2324,16168,-28,-130,153,-157
33.938,33.72,0.63,-0.51,0.20,-2.11,-0.73,-0.68,1.18,0.05,0.60,356.00,684.00,171.00,235.00,578.00,1287.00,560.00,823.00,,,,,,,,,,,,1,0,0,,-2264,16056,-8,-240,1,-151
33.959,33.78,0.69,-0.74,0.64,-7.72,7.55,1.70,-1.12,1.69,-1.04,349.00,682.00,121.00,235.00,627.00,1246.00,594.00,806.00,,,,,,,,,,,,1,0,0,,-2372,16124,-32,-131,12,-236
34.021,33.83,0.68,1.32,-0.73,8.11,-3.73,0.59,-0.95,-0.26,0.02,362.00,652.00,167.00,170.00,634.00,1296.00,581.00,846.00,,,,,,,,,,,,1,0,0,,-2424,16100,304,-110,126,-220
34.082,33.89,0.57,0.81,-1.60,-0.38,-2.15,-1.54,1.54,-0.69,1.28,383.00,681.00,179.00,228.00,576.00,1319.00,547.00,832.00,,,,,,,,,,,,1,0,0,,-2340,16164,152,28,166,-173
34.165,33.94,0.61,-3.10,2.41,-11.45,9.42,1.36,-0.92,2.16,-1.14,331.00,714.00,117.00,259.00,624.00,1256.00,592.00,793.00,,,,,,,,,,,,1,0,0,,-2336,16220,184,174,218,-124
34.184,34.00,0.64,2.61,-1.81,7.45,-4.26,1.12,-1.70,0.59,-1.01,375.00,638.00,174.00,177.00,654.00,1295.00,605.00,841.00,,,,,,,,,,,,1,0,0,,-2412,16088,20,-58,127,-296
34.225,34.05,0.59,1.02,-2.28,3.74,-6.04,-0.29,-0.21,-0.65,0.51,396.00,688.00,205.00,215.00,619.00,1316.00,570.00,848.00,,,,,,,,,,,,1,0,0,,-2368,16004,-108,-160,-47,-118
34.287,34.11,0.58,-2.70,1.41,-7.57,2.57,0.34,0.09,1.29,-0.78,347.00,722.00,158.00,267.00,602.00,1273.00,590.00,813.00,,,,,,,,,,,,1,0,0,,-2332,16204,100,101,37,-147
34.349,34.16,0.66,1.92,-1.78,-2.29,2.51,2.29,-2.35,1.62,-1.72,379.00,655.00,144.00,217.00,663.00,1258.00,617.00,823.00,,,,,,,,,,,,1,0,0,,-2396,16180,92,221,205,-172
34.389,34.22,0.62,1.72,-2.93,8.09,-8.04,-0.20,-0.24,-3.43,1.25,405.00,681.00,211.00,191.00,619.00,1312.00,576.00,928.00,,,,,,,,,,,,1,0,0,,-2376,15920,-260,111,141,-45
34.452,34.27,0.57,0.26,-2.12,-4.09,0.49,-0.40,1.15,0.33,0.05,398.00,706.00,166.00,246.00,576.00,1274.00,574.00,826.00,,,,,,,,,,,,1,0,0,,-2536,16520,40,-758,-145,-109
34.533,34.33,0.64,-0.35,0.67,-6.66,8.62,2.02,-1.02,1.66,-1.37,346.00,671.00,112.00,219.00,620.00,1227.00,605.00,814.00,,,,,,,,,,,,1,0,0,,-2380,16512,232,868,407,-219
34.574,34.38,0.65,1.16,-0.82,8.98,-4.35,0.87,-0.72,-0.03,-0.40,365.00,658.00,170.00,167.00,623.00,1274.00,592.00,848.00,,,,,,,,,,,,1,0,0,,-2416,16116,-260,1122,479,-218
34.636,34.44,0.60,0.85,-1.75,2.26,-2.62,-0.50,0.84,-0.66,0.84,386.00,683.00,175.00,208.00,587.00,1290.00,560.00,841.00,,,,,,,,,,,,1,0,0,,-2412,16124,-328,871,316,-223
34.719,34.49,0.66,-2.76,1.91,-8.30,10.18,1.87,-0.45,2.20,-1.61,338.00,714.00,106.00,224.00,603.00,1216.00,607.00,802.00,,,,,,,,,,,,1,0,0,,-2556,15832,-256,853,421,47
34.74,34.55,0.68,2.47,-1.96,10.91,-1.93,1.00,-0.79,1.25,-0.86,379.00,644.00,144.00,145.00,624.00,1270.00,593.00,816.00,,,,,,,,,,,,1,0,0,,-2324,15308,-656,3579,1220,-249
34.781,34.60,0.60,0.34,-2.92,6.38,-2.47,-0.93,1.27,0.91,1.57,415.00,719.00,161.00,176.00,578.00,1297.00,523.00,775.00,,,,,,,,,,,,1,0,0,,-2180,15780,-1164,1177,976,173
34.892,34.66,0.54,-3.55,0.46,-7.08,6.29,-0.54,0.60,2.55,0.13,371.00,766.00,128.00,237.00,595.00,1300.00,549.00,755.00,,,,,,,,,,,,1,0,0,,-2240,16644,-932,-2555,442,-17
34.913,34.71,0.57,1.11,-3.22,-0.28,2.22,1.17,-1.94,2.18,-0.83,416.00,703.00,141.00,202.00,662.00,1301.00,582.00,786.00,,,,,,,,,,,,1,0,0,,-2164,16180,-316,-1308,1097,-541
34.954,34.77,0.46,-0.67,-3.45,7.55,-7.05,-1.70,0.17,-0.82,1.29,435.00,759.00,202.00,190.00,622.00,1377.00,548.00,836.00,,,,,,,,,,,,1,0,0,,-2300,16116,-1148,-1206,843,-468
35.016,34.82,0.36,-3.25,0.01,-6.74,2.76,-1.41,1.17,1.26,0.87,378.00,766.00,154.00,257.00,586.00,1325.00,540.00,779.00,,,,,,,,,,,,1,0,0,,-2328,16044,-944,-751,-315,113
35.057,34.88,0.40,-0.23,-1.34,-7.26,8.82,1.16,-0.94,2.77,-0.35,385.00,705.00,112.00,223.00,627.00,1267.00,561.00,758.00,,,,,,,,,,,,1,0,1,,-2240,16104,-248,116,-693,72
35.118,34.93,0.39,0.21,-1.20,8.09,-2.81,0.19,-0.70,1.19,0.48,379.00,690.00,159.00,166.00,630.00,1308.00,552.00,789.00,,,,,,,,,,,,1,0,1,,-2216,16000,-200,-475,-494,299
35.16,34.99,0.29,1.18,-2.52,1.54,-1.74,-1.71,1.59,0.61,1.53,400.00,688.00,169.00,209.00,576.00,1326.00,527.00,785.00,,,,,,,,,,,,1,0,1,,-2180,16016,-284,-1492,-488,362
35.264,35.04,0.33,-2.42,1.16,-10.55,10.94,1.10,-0.74,2.87,-0.55,350.00,719.00,106.00,240.00,621.00,1263.00,566.00,759.00,,,,,,,,,,,,1,0,1,,-2072,16768,320,372,-42,-158
35.284,35.10,0.36,2.20,-1.97,8.38,-2.80,0.92,-1.52,1.31,-0.34,381.00,651.00,158.00,164.00,650.00,1299.00,576.00,803.00,,,,,,,,,,,,1,0,1,,-2120,16300,-108,1472,381,-637
35.346,35.15,0.26,1.39,-3.32,2.23,-3.64,-1.57,0.86,-0.76,2.56,416.00,697.00,185.00,214.00,598.00,1345.00,511.00,806.00,,,,,,,,,,,,1,0,1,,-2168,15956,-640,513,-6,-613
35.387,35.21,0.24,-1.97,0.23,-6.35,2.63,-0.17,-0.19,1.93,-0.03,365.00,724.00,154.00,254.00,617.00,1309.00,560.00,777.00,,,,,,,,,,,,1,0,1,,-2328,15996,-672,211,-106,-369
35.45,35.26,0.30,1.65,-2.45,-2.59,2.61,1.43,-2.47,2.29,-1.18,395.00,674.00,144.00,219.00,678.00,1306.00,592.00,790.00,,,,,,,,,,,,1,0,1,,-2412,16060,-928,142,-49,-75
35.491,35.32,0.21,0.98,-3.92,6.02,-7.08,-1.42,-0.16,-0.36,1.21,433.00,720.00,208.00,202.00,630.00,1374.00,546.00,823.00,,,,,,,,,,,,1,0,1,,-2376,16116,-708,19,162,5
35.551,35.37,0.14,-2.82,0.36,-7.84,1.86,-1.33,0.80,1.23,0.67,368.00,746.00,165.00,275.00,597.00,1334.00,546.00,784.00,,,,,,,,,,,,1,0,1,,-2252,16124,-692,-162,362,66
35.633,35.43,0.19,0.16,-1.71,-6.95,6.25,1.15,-1.51,2.51,-0.75,390.00,701.00,128.00,236.00,647.00,1287.00,576.00,774.00,,,,,,,,,,,,1,0,1,,-2176,16252,-580,-406,384,75
35.696,35.48,0.15,-0.23,-1.29,7.91,-4.74,-0.56,-0.94,0.79,0.42,384.00,704.00,177.00,176.00,647.00,1356.00,558.00,803.00,,,,,,,,,,,,1,0,1,,-2224,16300,-700,-120,234,-11
35.715,35.54,0.02,0.43,-2.27,-1.10,-2.22,-2.49,1.63,0.28,1.51,400.00,704.00,182.00,235.00,583.00,1366.00,531.00,796.00,,,,,,,,,,,,1,0,1,,-2020,16280,-844,-75,45,-31
35.778,35.59,0.06,-2.60,0.80,-10.56,9.28,0.80,-1.17,2.98,-0.62,358.00,731.00,116.00,251.00,639.00,1293.00,567.00,757.00,,,,,,,,,,,,1,0,1,,-2156,16096,-644,-456,-149,-236
35.819,35.65,0.09,1.75,-1.52,7.73,-4.25,0.67,-1.86,1.71,-0.19,375.00,655.00,173.00,175.00,665.00,1324.00,567.00,787.00,,,,,,,,,,,,1,0,1,,-2096,15960,-488,-717,-120,-44
35.882,35.70,-0.03,1.73,-3.65,7.93,-12.06,-2.34,1.58,-0.91,3.16,421.00,694.00,263.00,214.00,583.00,1360.00,496.00,798.00,,,,,,,,,,,,1,0,1,,-2104,16652,-288,-867,20,-137
35.946,35.76,-0.01,-3.13,2.15,-10.98,7.18,0.48,-0.32,2.18,0.18,336.00,720.00,131.00,270.00,614.00,1280.00,551.00,765.00,,,,,,,,,,,,1,0,1,,-1928,16104,-172,-788,83,-89
36.028,35.81,0.08,2.00,-1.95,-1.26,2.03,1.83,-2.71,2.61,-0.94,382.00,656.00,145.00,211.00,682.00,1294.00,581.00,775.00,,,,,,,,,,,,1,0,1,,-2096,16384,-56,-512,107,-36
36.048,35.87,0.02,1.50,-3.53,8.05,-8.37,-1.22,-0.34,-0.17,1.24,420.00,698.00,215.00,193.00,634.00,1370.00,543.00,816.00,,,,,,,,,,,,1,0,1,,-2192,16320,84,12,188,-136
36.109,35.92,-0.03,-3.01,1.30,-8.10,2.51,-0.88,0.66,1.83,0.50,351.00,733.00,160.00,273.00,597.00,1316.00,545.00,769.00,,,,,,,,,,,,1,0,1,,-2128,16380,-212,452,303,-217
36.151,35.98,0.15,0.75,-1.29,-7.71,7.85,3.47,-4.32,3.77,-1.68,377.00,677.00,119.00,233.00,722.00,1266.00,592.00,755.00,,,,,,,,,,,,1,0,1,,-2172,15952,-432,631,307,-308
36.213,36.03,0.14,1.12,-1.56,8.57,-5.06,-0.10,-0.83,1.49,0.28,380.00,672.00,178.00,173.00,638.00,1328.00,555.00,784.00,,,,,,,,,,,,1,0,1,,-2320,16104,-684,499,179,-217
36.275,36.09,0.03,0.27,-1.17,0.23,-2.57,-2.07,1.69,0.81,1.43,378.00,688.00,181.00,225.00,577.00,1342.00,528.00,781.00,,,,,,,,,,,,1,0,1,,-2160,16064,-580,50,78,18
36.379,36.14,0.03,-2.71,1.62,-10.24,10.32,0.17,-0.81,3.48,-0.65,343.00,718.00,109.00,241.00,634.00,1313.00,563.00,743.00,,,,,,,,,,,,1,0,1,,-2200,16140,-644,-303,84,176
36.399,36.20,0.01,1.35,-0.99,6.58,-2.76,-0.36,-1.26,0.41,0.48,367.00,656.00,163.00,176.00,656.00,1357.00,560.00,814.00,,,,,,,,,,,,1,0,1,,-2036,16280,-468,-605,16,69
36.441,36.25,-0.13,0.84,-2.82,0.23,-4.50,-2.79,1.70,-0.66,2.57,409.00,703.00,201.00,237.00,584.00,1380.00,510.00,803.00,,,,,,,,,,,,1,0,1,,-2136,16376,-300,-617,43,-238
36.482,36.31,-0.14,-5.00,3.74,-12.69,8.62,-0.46,-0.30,2.60,-0.39,319.00,743.00,125.00,278.00,624.00,1328.00,564.00,764.00,,,,,,,,,,,,1,0,1,,-2060,16260,-328,-263,94,-303
36.564,36.36,-0.11,0.58,-1.52,-3.42,2.01,0.59,-2.11,2.23,-0.91,383.00,686.00,151.00,230.00,675.00,1337.00,584.00,786.00,,,,,,,,,,,,1,0,1,,-2064,16312,-208,-89,25,-299
36.647,36.42,-0.19,0.98,-3.92,5.49,-8.27,-1.85,0.08,-0.49,1.22,433.00,720.00,224.00,213.00,627.00,1389.00,547.00,827.00,,,,,,,,,,,,1,0,1,,-2124,16012,-336,-31,26,-169
36.667,36.47,-0.26,-3.51,1.73,-9.20,2.54,-1.43,0.66,0.88,0.75,346.00,739.00,163.00,285.00,603.00,1345.00,547.00,793.00,,,,,,,,,,,,1,0,1,,-2116,16060,-156,-179,98,-117
36.729,36.53,-0.14,0.92,-1.10,-5.13,5.35,2.11,-2.70,3.87,-1.68,372.00,669.00,130.00,225.00,678.00,1279.00,591.00,752.00,,,,,,,,,,,,1,0,1,,-2128,16180,-344,-331,181,-65
36.772,36.58,-0.14,2.17,-3.27,10.50,-8.76,-0.23,-0.65,1.11,0.61,409.00,675.00,210.00,177.00,633.00,1328.00,549.00,789.00,,,,,,,,,,,,1,0,1,,-2008,16140,-296,-291,102,27
36.814,36.64,-0.23,0.01,-0.79,-0.85,-1.79,-1.94,1.74,0.71,1.68,372.00,688.00,177.00,230.00,574.00,1333.00,522.00,779.00,,,,,,,,,,,,1,0,1,,-2088,16324,-368,-173,75,-197
36.876,36.69,-0.15,-2.01,1.18,-9.63,8.81,1.44,-1.21,3.28,-0.45,347.00,707.00,117.00,245.00,633.00,1262.00,559.00,745.00,,,,,,,,,,,,1,0,1,,-2044,16248,-344,-57,73,-228
36.919,36.75,-0.12,1.57,-0.86,7.44,-3.39,0.45,-1.28,1.31,0.41,363.00,648.00,166.00,173.00,647.00,1315.00,553.00,787.00,,,,,,,,,,,,1,0,1,,-2132,16136,-436,26,78,-284
36.981,36.80,-0.23,0.85,-2.09,1.21,-4.18,-2.27,1.59,-0.82,3.55,393.00,689.00,194.00,226.00,582.00,1356.00,485.00,787.00,,,,,,,,,,,,1,0,1,,-2208,16204,-404,69,63,-286
37.043,36.86,-0.18,-4.78,4.01,-12.78,9.56,0.67,-0.68,3.75,-0.64,313.00,731.00,119.00,272.00,624.00,1283.00,560.00,735.00,,,,,,,,,,,,1,0,1,,-2096,16084,-412,-37,52,-186
37.104,36.91,-0.13,1.19,-1.43,-1.69,0.95,0.87,-1.79,2.18,-0.73,377.00,668.00,155.00,221.00,660.00,1311.00,579.00,784.00,,,,,,,,,,,,1,0,1,,-2204,16064,-304,-206,93,-120
37.166,36.97,-0.22,0.51,-2.43,3.62,-7.39,-1.98,0.21,-0.31,1.22,403.00,705.00,221.00,224.00,624.00,1391.00,545.00,821.00,,,,,,,,,,,,1,0,1,,-2176,16212,-276,-239,155,-43
37.207,37.02,-0.26,-4.35,2.23,-9.20,1.77,-0.90,0.17,1.68,0.05,342.00,754.00,170.00,291.00,613.00,1334.00,560.00,783.00,,,,,,,,,,,,1,0,1,,-2160,16252,-208,-208,138,-108
37.291,37.08,-0.16,0.56,-1.66,-5.99,3.75,1.62,-2.73,2.70,-1.41,386.00,689.00,144.00,243.00,685.00,1305.00,595.00,782.00,,,,,,,,,,,,1,0,1,,-2144,16296,-316,-45,145,-159
37.312,37.13,-0.22,1.44,-3.82,4.47,-3.47,-1.35,-0.50,-0.14,0.70,427.00,705.00,176.00,195.00,641.00,1383.00,559.00,827.00,,,,,,,,,,,,1,0,1,,-2072,16288,-188,-65,47,-346
37.374,37.19,-0.31,-0.74,-0.49,-2.73,-1.67,-2.00,1.89,0.46,1.65,371.00,703.00,182.00,247.00,570.00,1331.00,525.00,787.00,,,,,,,,,,,,1,0,1,,-2080,16108,-412,-44,28,-221
37.458,37.24,-0.23,-1.50,0.84,-9.65,9.30,1.26,-0.85,3.57,-0.78,350.00,699.00,114.00,242.00,623.00,1259.00,566.00,743.00,,,,,,,,,,,,1,0,1,,-2196,16108,-248,-99,72,-193
37.478,37.30,-0.22,1.30,-0.92,9.15,-5.05,0.07,-0.95,0.93,0.30,366.00,656.00,176.00,169.00,640.00,1323.00,560.00,801.00,,,,,,,,,,,,1,0,1,,-2240,16240,-288,-206,145,-118
37.539,37.35,-0.31,1.09,-1.83,1.86,-4.30,-2.09,2.05,0.13,2.34,386.00,678.00,193.00,221.00,566.00,1330.00,509.00,783.00,,,,,,,,,,,,1,0,1,,-2024,16076,-204,-132,134,-15
37.58,37.41,-0.24,-4.14,3.74,-12.97,10.25,1.15,-0.58,4.07,-0.92,314.00,718.00,115.00,269.00,615.00,1255.00,565.00,731.00,,,,,,,,,,,,1,0,1,,-2128,16240,-396,-71,144,-137
37.642,37.46,-0.17,2.81,-1.58,4.09,-1.35,1.20,-1.84,2.50,-0.58,369.00,629.00,158.00,187.00,658.00,1296.00,571.00,771.00,,,,,,,,,,,,1,0,1,,-2036,16304,-348,-40,94,-162
37.703,37.52,-0.21,1.18,-2.52,4.59,-6.60,-1.12,0.25,0.26,1.20,400.00,688.00,208.00,211.00,613.00,1343.00,540.00,803.00,,,,,,,,,,,,1,0,1,,-2104,16148,-220,-68,103,-209
37.764,37.57,-0.25,-3.73,1.81,-9.30,2.69,-0.96,0.78,2.52,0.07,346.00,744.00,162.00,285.00,594.00,1316.00,551.00,757.00,,,,,,,,,,,,1,0,1,,-2116,16096,-276,-66,47,-227
37.825,37.63,-0.14,1.62,-1.68,-4.31,3.31,1.92,-2.42,3.24,-1.53,379.00,661.00,143.00,230.00,670.00,1279.00,593.00,768.00,,,,,,,,,,,,1,0,1,,-2176,16112,-240,-157,83,-134
37.928,37.68,-0.19,1.42,-3.19,8.50,-9.61,-1.09,-0.12,1.65,0.53,413.00,694.00,228.00,196.00,625.00,1355.00,546.00,774.00,,,,,,,,,,,,1,0,1,,-2148,16176,-236,-270,133,-117
37.949,37.74,-0.26,-2.73,0.59,-6.34,0.06,-1.64,1.41,1.27,1.27,363.00,739.00,177.00,272.00,581.00,1329.00,528.00,770.00,,,,,,,,,,,,1,0,1,,-2228,16208,-316,-116,185,-172
37.969,37.79,-0.19,-1.69,0.85,-11.65,10.30,1.13,-1.13,3.42,-0.76,351.00,704.00,112.00,255.00,634.00,1275.00,567.00,747.00,,,,,,,,,,,,1,0,1,,-2092,16224,-196,-25,90,-171
38.031,37.85,-0.19,-0.21,-0.42,6.27,-3.76,-0.05,-1.00,1.58,0.05,366.00,687.00,173.00,183.00,643.00,1331.00,561.00,786.00,,,,,,,,,,,,1,0,1,,-2096,16208,-364,85,154,-120
38.094,37.90,-0.32,-0.03,-1.70,-1.16,-3.38,-2.94,2.14,0.23,2.23,391.00,706.00,194.00,243.00,572.00,1372.00,511.00,782.00,,,,,,,,,,,,1,0,1,,-2112,16256,-504,-123,143,-293
38.135,37.96,-0.26,-3.37,2.51,-11.26,8.28,0.97,-0.43,4.20,-0.70,331.00,720.00,124.00,265.00,612.00,1259.00,557.00,723.00,,,,,,,,,,,,1,0,1,,-2196,16048,-292,-187,80,-125
38.197,38.01,-0.18,2.61,-1.46,5.39,-1.44,1.23,-1.65,2.04,-0.10,368.00,632.00,155.00,178.00,651.00,1288.00,561.00,775.00,,,,,,,,,,,,1,0,1,,-2172,16240,-416,-140,72,-163
38.26,38.07,-0.22,1.00,-2.42,3.37,-6.19,-0.91,0.33,4.14,-3.73,399.00,691.00,208.00,219.00,608.00,1329.00,657.00,786.00,,,,,,,,,,,,1,0,1,,-2204,16192,-280,-210,130,-113
38.321,38.12,-0.23,-2.94,1.75,-6.99,1.02,-0.36,0.60,2.84,0.10,342.00,722.00,170.00,272.00,593.00,1291.00,547.00,747.00,,,,,,,,,,,,1,0,1,,-2128,16112,-216,-132,175,-75
38.362,38.18,-0.11,1.55,-1.41,-3.41,3.14,2.19,-2.37,3.86,-1.71,374.00,658.00,142.00,223.00,665.00,1264.00,592.00,753.00,,,,,,,,,,,,1,0,1,,-2212,16188,-356,19,155,-144
38.425,38.23,-0.14,1.31,-2.98,7.94,-8.59,-0.76,-0.11,0.42,1.01,409.00,693.00,218.00,195.00,621.00,1337.00,544.00,802.00,,,,,,,,,,,,1,0,1,,-2124,17228,-504,366,159,187
38.485,38.29,-0.18,-2.73,0.89,-5.86,0.75,-0.99,1.94,2.31,1.53,357.00,733.00,169.00,262.00,558.00,1277.00,511.00,734.00,,,,,,,,,,,,1,0,1,,-1940,15652,56,3531,1975,-1126
38.607,38.34,-0.09,-0.12,-0.55,-8.00,14.16,1.68,-0.51,5.39,-0.11,368.00,687.00,85.00,199.00,607.00,1227.00,528.00,679.00,,,,,,,,,,,,1,0,1,,-2300,16340,656,462,3949,-2015
38.627,38.40,-0.10,0.12,-1.22,11.49,-1.47,-0.35,-0.16,2.88,1.41,380.00,693.00,139.00,140.00,618.00,1317.00,509.00,720.00,,,,,,,,,,,,1,0,1,,-2844,16376,740,-2076,8233,-2545
38.648,38.45,-0.24,-0.22,-2.14,1.72,-0.56,-2.89,2.41,1.37,3.12,402.00,720.00,158.00,201.00,563.00,1359.00,477.00,730.00,,,,,,,,,,,,1,0,1,,-2692,15836,1020,-2861,11467,-1173
38.689,38.51,-0.22,-3.66,1.31,-12.50,15.90,0.10,-0.19,4.92,-0.02,355.00,752.00,84.00,227.00,614.00,1295.00,530.00,690.00,,,,,,,,,,,,1,0,1,,-2468,15904,-1268,-2899,12418,-913
38.75,38.56,-0.23,0.45,-1.33,8.48,-0.60,-0.31,-1.28,3.26,-0.08,380.00,686.00,140.00,154.00,656.00,1355.00,548.00,738.00,,,,,,,,,,,,1,0,1,,-2508,15364,-2204,-2306,10159,-711
38.793,38.62,-0.40,-0.52,-2.67,3.76,-4.84,-3.57,1.84,0.26,2.96,416.00,739.00,192.00,208.00,588.00,1418.00,491.00,766.00,,,,,,,,,,,,1,0,1,,-2820,15808,-2456,-958,6389,355
38.853,38.67,-0.47,-4.38,1.24,-8.58,4.62,-1.90,0.36,3.06,0.23,361.00,775.00,144.00,263.00,618.00,1381.00,541.00,738.00,,,,,,,,,,,,1,0,1,,-2788,16164,-2028,207,3099,243
38.935,38.73,-0.42,-0.92,-1.11,-3.76,4.33,0.61,-2.33,3.97,-1.18,385.00,720.00,134.00,219.00,683.00,1344.00,574.00,739.00,,,,,,,,,,,,1,0,1,,-2624,16080,-2088,51,666,157
38.955,38.78,-0.52,0.16,-3.43,7.37,-7.17,-2.39,0.49,1.14,1.43,428.00,734.00,204.00,192.00,619.00,1403.00,525.00,771.00,,,,,,,,,,,,1,0,1,,-2792,16292,-1156,-187,-568,-1
39.018,38.84,-0.59,-4.26,1.41,-7.36,3.83,-2.00,1.47,2.80,1.36,357.00,768.00,147.00,256.00,583.00,1346.00,511.00,723.00,,,,,,,,,,,,1,0,1,,-2732,16260,-672,-461,-683,349
39.08,38.89,-0.49,-1.10,-0.16,-8.68,11.76,1.46,-1.70,5.44,-1.38,367.00,707.00,98.00,218.00,650.00,1278.00,565.00,701.00,,,,,,,,,,,,1,0,1,,-2604,16068,-684,-144,-279,229
39.121,38.95,-0.48,-0.08,-0.66,12.42,-2.31,-0.34,-0.40,2.93,0.72,370.00,688.00,143.00,138.00,626.00,1325.00,528.00,732.00,,,,,,,,,,,,1,0,1,,-2524,16280,-1036,-123,-174,243
39.202,39.00,-0.59,-0.75,-0.54,1.91,-0.26,-2.68,2.44,1.98,2.26,372.00,704.00,155.00,198.00,560.00,1347.00,494.00,729.00,,,,,,,,,,,,1,0,1,,-2492,16176,-1012,-340,-276,144
39.324,39.06,-0.54,-3.99,3.05,-13.56,17.62,0.41,0.19,4.94,0.11,325.00,727.00,78.00,226.00,598.00,1266.00,526.00,687.00,,,,,,,,,,,,1,0,1,,-2332,16212,-1004,-497,-780,124
39.345,39.11,-0.49,0.81,-0.71,9.13,0.70,0.47,-0.97,3.33,0.48,365.00,665.00,129.00,145.00,636.00,1303.00,531.00,725.00,,,,,,,,,,,,1,0,1,,-2016,16272,-1608,-352,-2344,-67
39.365,39.17,-0.61,0.66,-2.39,5.68,-4.29,-2.94,2.46,0.48,3.38,401.00,700.00,180.00,190.00,562.00,1360.00,478.00,751.00,,,,,,,,,,,,1,0,1,,-1964,16056,-1836,-188,-5371,-56
39.405,39.22,-0.64,-5.48,3.84,-9.62,8.49,-1.19,0.95,3.36,0.75,320.00,755.00,119.00,247.00,591.00,1322.00,523.00,719.00,,,,,,,,,,,,1,0,1,,-2016,16232,-1288,56,-8010,285
39.466,39.28,-0.55,-0.35,-0.96,-3.59,5.12,1.11,-2.12,3.65,-0.54,378.00,701.00,128.00,213.00,669.00,1310.00,558.00,736.00,,,,,,,,,,,,1,0,1,,-2084,16388,-248,676,-8889,52
39.507,39.33,-0.65,0.26,-3.42,9.18,-8.67,-2.54,0.67,0.50,1.75,427.00,731.00,214.00,186.00,615.00,1405.00,522.00,784.00,,,,,,,,,,,,1,0,1,,-2076,16264,256,1005,-8262,-246
39.568,39.39,-0.72,-3.99,0.96,-8.60,3.39,-2.03,1.26,2.84,0.75,364.00,769.00,154.00,272.00,590.00,1355.00,528.00,734.00,,,,,,,,,,,,1,0,1,,-2236,16380,568,908,-6894,-348
39.671,39.44,-0.64,-0.65,-1.25,-8.27,9.16,0.92,-1.89,4.80,-1.42,386.00,715.00,112.00,230.00,663.00,1312.00,573.00,720.00,,,,,,,,,,,,1,0,1,,-2256,16136,768,1121,-4907,-384
39.692,39.50,-0.65,0.67,-3.51,9.48,-7.05,-0.81,-0.63,1.61,1.16,426.00,721.00,195.00,176.00,639.00,1358.00,528.00,762.00,,,,,,,,,,,,1,0,1,,-2596,16088,364,487,-3520,-529
39.733,39.55,-0.73,-0.28,-1.28,1.48,-2.36,-2.34,2.33,1.61,2.35,384.00,705.00,175.00,213.00,560.00,1333.00,495.00,738.00,,,,,,,,,,,,1,0,1,,-2660,15996,348,-283,-2296,-431
39.794,39.61,-0.63,-1.79,0.17,-10.34,9.85,1.34,-0.91,5.38,-0.69,365.00,720.00,112.00,245.00,624.00,1257.00,545.00,690.00,,,,,,,,,,,,1,0,1,,-2628,16124,224,-60,-1327,-508
39.835,39.66,-0.56,1.45,-1.42,8.99,-3.00,0.75,-1.38,2.78,0.73,375.00,661.00,158.00,161.00,647.00,1303.00,529.00,736.00,,,,,,,,,,,,1,0,1,,-2544,16264,96,314,-668,-489
39.898,39.72,-0.66,1.22,-3.17,2.58,-4.15,-2.52,2.29,0.55,3.31,414.00,699.00,189.00,214.00,563.00,1344.00,479.00,750.00,,,,,,,,,,,,1,0,1,,-2600,16048,-96,44,-349,-533
39.96,39.77,-0.57,-4.59,3.48,-12.57,10.94,1.05,-0.51,5.61,-1.04,321.00,736.00,110.00,260.00,614.00,1258.00,553.00,690.00,,,,,,,,,,,,1,0,1,,-2532,16220,56,-52,-14,-552
40.043,39.83,-0.48,1.57,-2.33,-0.13,0.90,1.27,-1.81,3.84,-0.67,393.00,674.00,151.00,208.00,656.00,1291.00,560.00,733.00,,,,,,,,,,,,1,0,1,,-2652,16160,-128,343,235,-555
40.062,39.88,-0.52,1.09,-3.87,6.23,-7.76,-1.27,-0.00,1.10,1.33,431.00,716.00,215.00,204.00,623.00,1360.00,528.00,774.00,,,,,,,,,,,,1,0,1,,-2688,16008,-280,617,287,-474
40.124,39.94,-0.53,-3.66,1.20,-10.73,3.63,-0.68,0.90,3.85,0.03,357.00,754.00,158.00,294.00,587.00,1297.00,539.00,719.00,,,,,,,,,,,,1,0,1,,-2620,15952,-556,623,234,-289
40.165,39.99,-0.38,1.44,-2.52,-5.01,5.17,2.34,-2.81,4.94,-1.63,398.00,681.00,131.00,225.00,679.00,1271.00,578.00,720.00,,,,,,,,,,,,1,0,1,,-2588,15904,-804,460,253,-36
40.228,40.05,-0.42,1.81,-4.41,10.79,-8.77,-1.14,-0.13,0.71,1.43,438.00,706.00,209.00,175.00,626.00,1358.00,529.00,784.00,,,,,,,,,,,,1,0,1,,-2532,16068,-740,-56,287,91
40.29,40.10,-0.52,-1.08,-0.57,-2.46,-1.45,-2.30,2.41,1.93,1.84,375.00,714.00,179.00,243.00,557.00,1328.00,506.00,739.00,,,,,,,,,,,,1,0,1,,-2432,16160,-780,-465,132,-126
40.351,40.16,-0.43,-2.69,0.62,-11.42,10.55,1.13,-0.87,4.89,-0.56,362.00,737.00,110.00,251.00,625.00,1266.00,546.00,701.00,,,,,,,,,,,,1,0,1,,-2496,16168,-464,-754,-150,-352
40.412,40.21,-0.41,0.80,-1.74,9.35,-4.90,0.03,-1.19,2.31,0.37,386.00,684.00,174.00,167.00,649.00,1334.00,544.00,757.00,,,,,,,,,,,,1,0,1,,-2648,16112,-236,-413,-233,-250
40.493,40.27,-0.53,-0.02,-2.44,0.10,-3.99,-2.88,2.51,2.16,0.80,407.00,720.00,196.00,235.00,560.00,1355.00,533.00,753.00,,,,,,,,,,,,1,0,1,,-2720,16228,-188,-237,-120,-423
40.514,40.32,-0.44,-4.44,2.75,-14.65,12.32,1.36,-0.53,5.60,-0.97,333.00,746.00,106.00,272.00,611.00,1243.00,551.00,689.00,,,,,,,,,,,,1,0,1,,-2732,16088,-156,-56,38,-331
40.557,40.38,-0.34,3.24,-2.51,7.48,-2.14,1.61,-1.73,3.84,-0.67,385.00,634.00,155.00,167.00,649.00,1271.00,560.00,733.00,,,,,,,,,,,,1,0,1,,-2760,16040,-228,255,206,-360
40.618,40.43,-0.39,1.05,-3.03,5.06,-6.76,-1.39,0.98,1.52,1.80,412.00,701.00,208.00,208.00,592.00,1331.00,511.00,752.00,,,,,,,,,,,,1,0,1,,-2856,16040,-352,316,275,-113
40.68,40.49,-0.35,-3.32,1.51,-11.45,5.21,0.38,0.39,3.97,0.26,349.00,738.00,147.00,290.00,592.00,1261.00,531.00,711.00,,,,,,,,,,,,1,0,1,,-2652,16080,-396,63,213,149
