Time_Host,Time_Arduino,easingdata,CH1_Oxy,CH1_Deoxy,CH2_Oxy,CH2_Deoxy,CH3_Oxy,CH3_Deoxy,CH4_Oxy,CH4_Deoxy,CH1_PD730,CH1_PD850,CH2_PD730,CH2_PD850,CH3_PD730,CH3_PD850,CH4_PD730,CH4_PD850,Answers,airplane_playstate,trail_times,frameRate,Airplane X,Airplane Y,Correct,Wrong,Slow,AnswerRate,CorrectRate,VFTstates,VFTchoose,VFTCount,Culfstates,ax,ay,az,gx,gy,gz
0.039,24.63,5.26,18.05,56.53,41.74,83.33,7.66,41.52,0.00,0.00,138.00,440.00,21.00,84.00,376.00,993.00,4095.00,4095.00,,,,,,,,,,,,0,0,0,,-1780,15760,3060,-205,52,-123
0.113,0.04,0.00,0.00,0.00,0.00,0.00,0.00,0.00,0.00,0.00,106.00,508.00,36.00,128.00,384.00,1098.00,4095.00,4095.00,,,,,,,,,,,,0,0,0,,-2044,15636,2932,-171,158,-102
0.134,0.10,0.00,0.00,0.00,0.00,0.00,0.00,0.00,0.00,0.00,176.00,466.00,65.00,80.00,397.00,1110.00,4095.00,4095.00,,,,,,,,,,,,0,0,0,,-2036,15740,2840,-303,188,-142
0.178,0.15,0.00,0.00,0.00,0.00,0.00,0.00,0.00,0.00,0.00,204.00,497.00,112.00,100.00,373.00,1146.00,4095.00,4095.00,,,,,,,,,,,,0,0,0,,-1988,15768,2924,-138,-18,-154
0.239,0.21,0.00,0.00,0.00,0.00,0.00,0.00,0.00,0.00,0.00,140.00,528.00,50.00,128.00,355.00,1092.00,4095.00,4095.00,,,,,,,,,,,,0,0,0,,-1988,15752,3268,-76,34,-236
0.3,0.26,0.00,0.00,0.00,0.00,0.00,0.00,0.00,0.00,0.00,152.00,461.00,80.00,86.00,406.00,1074.00,4095.00,4095.00,,,,,,,,,,,,0,0,0,,-2072,15748,2844,-100,235,-215
0.348,0.32,0.00,0.00,0.00,0.00,0.00,0.00,0.00,0.00,0.00,176.00,457.00,89.00,64.00,362.00,1103.00,4095.00,4095.00,,,,,,,,,,,,0,0,0,,-2164,15720,2784,-9,115,-130
0.407,0.37,0.00,0.00,0.00,0.00,0.00,0.00,0.00,0.00,0.00,154.00,480.00,70.00,98.00,320.00,1104.00,4095.00,4095.00,,,,,,,,,,,,0,0,0,,-2024,15848,2880,-102,-30,-196
0.49,0.43,0.00,0.00,0.00,0.00,0.00,0.00,0.00,0.00,0.00,112.00,486.00,16.00,106.00,376.00,1040.00,4095.00,4095.00,,,,,,,,,,,,0,0,0,,-2024,15584,2560,-215,62,-63
0.512,0.48,0.00,0.00,0.00,0.00,0.00,0.00,0.00,0.00,0.00,176.00,432.00,80.00,50.00,376.00,1104.00,4095.00,4095.00,,,,,,,,,,,,0,0,0,,-2036,15744,3000,-140,118,-190
0.574,0.54,0.00,0.00,0.00,0.00,0.00,0.00,0.00,0.00,0.00,184.00,496.00,84.00,98.00,320.00,1128.00,4095.00,4095.00,,,,,,,,,,,,0,0,0,,-2136,15716,2672,-50,120,-191
0.616,0.59,0.04,-9.91,12.15,-33.69,38.10,0.80,-0.32,0.00,0.00,98.00,514.00,16.00,128.00,368.00,1075.00,4095.00,4095.00,,,,,,,,,,,,0,0,0,,-2168,15748,2996,1,73,-181
0.678,0.65,0.11,2.65,-2.88,2.58,0.31,1.48,-2.32,0.00,0.00,176.00,468.00,64.00,84.00,405.00,1104.00,4095.00,4095.00,,,,,,,,,,,,0,0,0,,-1940,15644,2992,-31,209,-150
0.74,0.70,0.02,3.77,-6.70,8.40,-13.26,-1.69,1.13,0.00,0.00,212.00,496.00,120.00,96.00,356.00,1141.00,4095.00,4095.00,,,,,,,,,,,,0,0,0,,-2020,15616,2932,-188,165,-174
0.781,0.76,0.04,-6.77,6.17,-15.06,6.24,0.46,0.15,0.00,0.00,128.00,533.00,64.00,144.00,361.00,1076.00,4095.00,4095.00,,,,,,,,,,,,0,0,0,,-2068,15556,2952,-104,-48,-196
0.844,0.81,0.19,1.39,-0.70,-2.56,4.50,2.90,-2.75,0.00,0.00,160.00,464.00,56.00,92.00,404.00,1056.00,4095.00,4095.00,,,,,,,,,,,,0,0,0,,-2024,15668,3008,-83,65,-188
0.905,0.87,0.20,5.64,-6.98,20.56,-16.08,0.40,-0.19,0.00,0.00,208.00,464.00,112.00,64.00,368.00,1088.00,4095.00,4095.00,,,,,,,,,,,,0,0,0,,-2020,15888,2684,-248,225,-143
0.946,0.92,0.10,-0.22,1.03,-1.79,1.78,-1.76,3.00,0.00,0.00,150.00,472.00,64.00,96.00,322.00,1088.00,4095.00,4095.00,,,,,,,,,,,,0,0,0,,-2068,15760,2804,-135,120,-197
1.009,0.98,0.20,-3.07,4.92,-11.58,16.21,2.14,-1.08,0.00,0.00,128.00,476.00,35.00,96.00,374.00,1040.00,4095.00,4095.00,,,,,,,,,,,,0,0,0,,-2068,15620,3004,-180,60,-219
1.071,1.03,0.25,5.21,-3.32,27.37,-12.15,1.09,-1.21,0.00,0.00,172.00,428.00,80.00,44.00,384.00,1088.00,4095.00,4095.00,,,,,,,,,,,,0,0,0,,-2136,15836,2836,-195,108,-245
1.132,1.09,0.12,1.55,-2.51,2.62,-4.73,-2.28,3.29,0.00,0.00,176.00,484.00,84.00,96.00,320.00,1102.00,4095.00,4095.00,,,,,,,,,,,,0,0,0,,-2028,15772,3016,-20,129,-218
1.235,1.14,0.23,-8.42,11.28,-31.57,37.39,2.28,-1.02,0.00,0.00,100.00,496.00,16.00,120.00,372.00,1033.00,4095.00,4095.00,,,,,,,,,,,,0,0,0,,-2088,15636,2916,19,66,-233
1.256,1.20,0.30,3.94,-3.32,6.53,-3.70,1.64,-2.15,0.00,0.00,176.00,450.00,74.00,80.00,400.00,1092.00,4095.00,4095.00,,,,,,,,,,,,0,0,0,,-2052,15772,2820,-46,107,-213
1.278,1.25,0.23,3.46,-5.33,6.08,-9.84,-1.01,0.28,0.00,0.00,198.00,484.00,104.00,96.00,368.00,1136.00,4095.00,4095.00,,,,,,,,,,,,0,0,0,,-2040,15624,2820,-5,195,-192
1.34,1.31,0.27,-6.02,5.63,-17.23,9.44,0.95,-0.38,0.00,0.00,130.00,525.00,56.00,144.00,368.00,1070.00,4095.00,4095.00,,,,,,,,,,,,0,0,0,,-2108,15576,2956,-262,73,-156
1.382,1.36,0.45,3.18,-1.53,4.18,-0.23,3.84,-3.43,0.00,0.00,162.00,442.00,64.00,80.00,412.00,1036.00,4095.00,4095.00,,,,,,,,,,,,0,0,0,,-2024,15672,2808,-83,24,-216
1.444,1.42,0.43,6.79,-7.36,19.55,-15.74,0.05,0.13,0.00,0.00,208.00,448.00,112.00,66.00,364.00,1094.00,4095.00,4095.00,,,,,,,,,,,,0,0,0,,-2140,15704,3072,-49,134,-271
1.506,1.47,0.36,-0.32,1.82,-3.52,2.07,-0.85,2.52,0.00,0.00,144.00,464.00,65.00,102.00,325.00,1063.00,4095.00,4095.00,,,,,,,,,,,,0,0,0,,-2176,15708,2876,-51,160,-209
1.588,1.53,0.46,-1.80,4.49,-14.37,18.81,2.31,-1.03,0.00,0.00,128.00,458.00,32.00,100.00,372.00,1032.00,4095.00,4095.00,,,,,,,,,,,,0,0,0,,-2232,15612,2896,67,101,-217
1.609,1.58,0.50,5.88,-2.89,23.69,-9.97,1.33,-0.90,0.00,0.00,166.00,412.00,76.00,48.00,376.00,1069.00,4095.00,4095.00,,,,,,,,,,,,0,0,0,,-2048,15668,2964,-79,90,-245
1.67,1.64,0.40,1.65,-1.24,1.21,-2.65,-1.58,2.94,0.00,0.00,164.00,466.00,77.00,96.00,322.00,1082.00,4095.00,4095.00,,,,,,,,,,,,0,0,0,,-2128,15788,2816,-63,103,-254
1.732,1.69,0.52,-6.43,9.19,-29.32,36.63,2.71,-0.97,0.00,0.00,108.00,485.00,16.00,112.00,368.00,1014.00,4095.00,4095.00,,,,,,,,,,,,0,0,0,,-2316,15828,2964,11,63,-233
1.775,1.75,0.58,6.45,-2.63,25.27,-7.33,1.79,-1.68,0.00,0.00,162.00,400.00,64.00,42.00,389.00,1072.00,4095.00,4095.00,,,,,,,,,,,,0,0,0,,-2160,15688,2824,14,85,-222
1.835,1.80,0.48,3.99,-4.94,5.45,-8.90,-1.45,1.46,0.00,0.00,192.00,469.00,100.00,96.00,348.00,1120.00,4095.00,4095.00,,,,,,,,,,,,0,0,0,,-2200,15640,2836,30,125,-229
1.898,1.86,0.50,-5.59,5.20,-23.80,11.65,0.89,-0.35,0.00,0.00,132.00,522.00,56.00,176.00,368.00,1072.00,4095.00,4095.00,,,,,,,,,,,,0,0,0,,-2228,15684,2680,-38,176,-196
1.96,1.91,0.63,4.14,-2.53,1.21,3.23,3.07,-3.08,0.00,0.00,168.00,437.00,56.00,82.00,410.00,1058.00,4095.00,4095.00,,,,,,,,,,,,0,0,0,,-2168,15492,2680,-253,49,-112
2.002,1.97,0.59,6.79,-7.36,14.78,-13.46,-0.07,-0.03,0.00,0.00,208.00,448.00,108.00,75.00,368.00,1104.00,4095.00,4095.00,,,,,,,,,,,,0,0,0,,-2184,15728,2872,-203,74,-185
2.062,2.02,0.60,-2.84,3.06,-11.21,4.94,0.66,0.54,0.00,0.00,141.00,496.00,64.00,128.00,352.00,1056.00,4095.00,4095.00,,,,,,,,,,,,0,0,0,,-2136,15792,2880,-193,106,-162
2.146,2.08,0.70,-1.30,4.33,-9.37,14.95,2.74,-0.98,0.00,0.00,128.00,451.00,36.00,91.00,368.00,1013.00,4095.00,4095.00,,,,,,,,,,,,0,0,0,,-2240,15712,2788,-259,69,-187
2.187,2.13,0.75,5.21,-2.44,25.66,-9.63,1.58,-0.89,0.00,0.00,164.00,418.00,72.00,44.00,374.00,1058.00,4095.00,4095.00,,,,,,,,,,,,0,0,0,,-2264,15732,2784,-137,108,-218
2.209,2.19,0.63,1.39,-0.70,-2.63,1.49,-1.61,3.48,0.00,0.00,160.00,464.00,66.00,100.00,313.00,1068.00,4095.00,4095.00,,,,,,,,,,,,0,0,0,,-2308,15612,2884,-244,72,-151
2.311,2.24,0.75,-7.26,11.26,-28.13,36.23,3.10,-1.10,0.00,0.00,98.00,474.00,16.00,108.00,368.00,1002.00,4095.00,4095.00,,,,,,,,,,,,0,0,0,,-2204,15696,2860,-274,50,-195
2.351,2.30,0.83,7.56,-3.23,28.32,-10.01,2.22,-1.97,0.00,0.00,164.00,389.00,70.00,40.00,392.00,1062.00,4095.00,4095.00,,,,,,,,,,,,0,0,0,,-2256,15700,2824,-187,103,-183
2.371,2.35,0.76,2.42,-3.01,4.79,-7.92,-0.43,0.81,0.00,0.00,178.00,474.00,96.00,96.00,354.00,1095.00,4095.00,4095.00,,,,,,,,,,,,0,0,0,,-2148,15664,2940,-154,61,-206
2.433,2.41,0.77,-5.20,5.64,-16.63,12.08,0.89,-0.35,0.00,0.00,128.00,508.00,48.00,131.00,368.00,1072.00,4095.00,4095.00,,,,,,,,,,,,0,0,0,,-2212,15600,2992,-196,53,-148
2.495,2.46,0.88,4.30,-3.01,6.73,-1.09,3.02,-3.42,0.00,0.00,172.00,440.00,64.00,74.00,418.00,1070.00,4095.00,4095.00,,,,,,,,,,,,0,0,0,,-2208,15640,2932,-210,197,-139
2.537,2.52,0.90,5.05,-6.42,12.05,-11.85,1.25,0.24,0.00,0.00,204.00,468.00,104.00,80.00,354.00,1040.00,4095.00,4095.00,,,,,,,,,,,,0,0,0,,-2244,15704,2856,-461,97,-122
2.599,2.57,0.88,-3.80,2.99,-15.36,8.81,0.51,0.91,0.00,0.00,144.00,516.00,56.00,136.00,346.00,1052.00,4095.00,4095.00,,,,,,,,,,,,0,0,0,,-2128,15668,2908,-292,18,-215
2.682,2.63,0.99,-0.83,3.88,-10.24,14.25,2.99,-1.16,0.00,0.00,130.00,448.00,38.00,96.00,370.00,1008.00,4095.00,4095.00,,,,,,,,,,,,0,0,0,,-2156,15784,3068,-214,8,-252
2.702,2.68,1.00,4.65,-1.80,17.77,-6.98,1.20,-0.46,0.00,0.00,160.00,420.00,72.00,56.00,368.00,1062.00,4095.00,4095.00,,,,,,,,,,,,0,0,0,,-2280,15696,3076,-279,60,-251
2.765,2.74,0.91,1.35,-0.80,-0.81,0.33,-0.78,2.67,0.00,0.00,161.00,466.00,68.00,96.00,322.00,1056.00,4095.00,4095.00,,,,,,,,,,,,0,0,0,,-2144,15720,3000,-226,75,-282
2.826,2.79,1.02,-5.27,8.80,-25.61,35.39,3.25,-1.55,0.00,0.00,108.00,468.00,16.00,100.00,376.00,1008.00,4095.00,4095.00,,,,,,,,,,,,0,0,0,,-2292,15640,2992,-313,59,-205
2.867,2.85,1.07,6.25,-2.33,26.06,-7.59,1.98,-1.51,0.00,0.00,160.00,400.00,64.00,41.00,384.00,1059.00,4095.00,4095.00,,,,,,,,,,,,0,0,0,,-2172,15700,3220,-291,7,-264
2.928,2.90,0.96,2.58,-2.86,4.10,-6.91,-1.14,2.23,0.00,0.00,176.00,469.00,92.00,96.00,332.00,1084.00,4095.00,4095.00,,,,,,,,,,,,0,0,0,,-2192,15736,3028,-151,26,-229
2.989,2.96,0.98,-3.43,3.92,-15.87,11.83,1.32,-0.50,0.00,0.00,136.00,496.00,48.00,128.00,368.00,1058.00,4095.00,4095.00,,,,,,,,,,,,0,0,0,,-2308,15576,3040,-143,24,-251
3.051,3.01,1.08,4.52,-2.65,4.18,-0.23,2.97,-3.32,0.00,0.00,168.00,432.00,64.00,80.00,416.00,1069.00,4095.00,4095.00,,,,,,,,,,,,0,0,0,,-2272,15640,3112,-222,-23,-163
3.132,3.07,0.98,4.53,-6.60,10.13,-12.57,-0.92,0.81,0.00,0.00,208.00,480.00,112.00,88.00,357.00,1116.00,4095.00,4095.00,,,,,,,,,,,,0,0,0,,-2196,15476,3096,-181,85,-104
3.153,3.12,0.94,-4.72,4.36,-12.80,7.30,0.13,1.15,0.00,0.00,136.00,516.00,58.00,128.00,344.00,1061.00,4095.00,4095.00,,,,,,,,,,,,0,0,0,,-2256,15584,3108,-392,97,-162
3.194,3.18,1.05,0.83,1.43,-3.49,9.27,3.17,-2.33,0.00,0.00,144.00,448.00,44.00,84.00,393.00,1033.00,4095.00,4095.00,,,,,,,,,,,,0,0,0,,-2232,15644,3100,-392,-42,-194
3.257,3.23,1.06,3.73,-1.49,23.69,-9.97,1.30,-0.54,0.00,0.00,160.00,432.00,76.00,48.00,369.00,1060.00,4095.00,4095.00,,,,,,,,,,,,0,0,0,,-2336,15576,3208,-301,-26,-220
3.32,3.29,0.96,1.44,-0.13,-0.57,-0.02,-0.88,2.82,0.00,0.00,155.00,456.00,69.00,96.00,320.00,1056.00,4095.00,4095.00,,,,,,,,,,,,0,0,0,,-2356,15552,3228,-375,-20,-231
3.382,3.34,1.08,-5.44,9.38,-15.58,24.53,3.32,-1.27,0.00,0.00,105.00,464.00,24.00,90.00,370.00,998.00,4095.00,4095.00,,,,,,,,,,,,0,0,0,,-2332,15604,3308,-335,62,-226
3.423,3.40,1.14,6.32,-2.82,26.87,-7.87,2.22,-1.68,0.00,0.00,164.00,404.00,64.00,40.00,386.00,1054.00,4095.00,4095.00,,,,,,,,,,,,0,0,0,,-2276,15540,3388,-355,22,-246
3.504,3.45,1.00,2.93,-2.98,3.37,-5.84,-1.65,3.08,0.00,0.00,176.00,464.00,88.00,96.00,320.00,1081.00,4095.00,4095.00,,,,,,,,,,,,0,0,0,,-2312,15636,3564,-430,22,-232
3.526,3.51,1.05,-8.55,11.69,-24.91,30.13,1.94,-0.96,0.00,0.00,98.00,493.00,21.00,112.00,373.00,1045.00,4095.00,4095.00,,,,,,,,,,,,0,0,0,,-2296,15552,3524,-387,155,-303
3.586,3.56,1.13,2.75,-2.06,7.63,-1.39,2.63,-2.71,0.00,0.00,168.00,456.00,64.00,72.00,405.00,1066.00,4095.00,4095.00,,,,,,,,,,,,0,0,0,,-2292,15504,3304,-366,120,-275
3.669,3.62,1.03,4.81,-6.69,13.25,-13.62,-0.71,0.64,0.00,0.00,208.00,476.00,112.00,80.00,359.00,1112.00,4095.00,4095.00,,,,,,,,,,,,0,0,0,,-2272,15512,3448,-263,35,-165
3.711,3.67,1.01,-5.72,4.97,-13.37,8.14,0.47,0.19,0.00,0.00,134.00,528.00,56.00,128.00,360.00,1074.00,4095.00,4095.00,,,,,,,,,,,,0,0,0,,-2236,15512,3528,-155,91,-169
3.813,3.73,1.12,2.74,-1.38,-0.49,6.65,3.20,-3.13,0.00,0.00,162.00,448.00,48.00,80.00,410.00,1054.00,4095.00,4095.00,,,,,,,,,,,,0,0,0,,-2300,15528,3652,-255,145,-197
3.833,3.78,1.10,4.98,-4.69,18.23,-12.64,0.75,-0.36,0.00,0.00,186.00,448.00,97.00,64.00,369.00,1078.00,4095.00,4095.00,,,,,,,,,,,,0,0,0,,-2272,15488,3556,-153,33,-249
3.875,3.84,1.01,-0.60,1.92,2.62,-4.73,-0.74,1.87,0.00,0.00,144.00,468.00,84.00,96.00,336.00,1077.00,4095.00,4095.00,,,,,,,,,,,,0,0,0,,-2280,15496,3556,17,53,-269
3.936,3.89,1.11,-2.23,4.64,-17.69,25.24,3.06,-1.18,0.00,0.00,128.00,464.00,24.00,96.00,370.00,1006.00,4095.00,4095.00,,,,,,,,,,,,0,0,0,,-2312,15476,3504,-60,159,-195
3.978,3.95,1.14,6.32,-2.82,24.00,-7.19,1.83,-1.46,0.00,0.00,164.00,404.00,65.00,44.00,384.00,1064.00,4095.00,4095.00,,,,,,,,,,,,0,0,0,,-2368,15488,3420,39,156,-161
4.038,4.00,1.03,2.04,-1.82,-10.32,0.30,-1.13,2.91,0.00,0.00,168.00,466.00,81.00,140.00,320.00,1064.00,4095.00,4095.00,,,,,,,,,,,,0,0,0,,-2256,15548,3468,-93,56,-148
4.099,4.06,1.13,-10.37,15.16,-51.80,69.79,2.99,-1.16,0.00,0.00,84.00,483.00,4.00,112.00,370.00,1008.00,4095.00,4095.00,,,,,,,,,,,,0,0,0,,-2352,15452,3392,-199,100,-135
4.161,4.11,1.17,4.37,-2.60,6.73,-1.09,1.97,-2.26,0.00,0.00,168.00,434.00,64.00,74.00,400.00,1081.00,4095.00,4095.00,,,,,,,,,,,,0,0,0,,-2360,15520,3592,-151,116,-128
4.203,4.17,1.05,3.90,-5.66,9.39,-11.48,-1.18,1.16,0.00,0.00,200.00,480.00,107.00,88.00,352.00,1117.00,4095.00,4095.00,,,,,,,,,,,,0,0,0,,-2272,15528,3484,-112,105,-135
4.263,4.22,1.05,-4.86,4.27,-18.14,11.84,1.01,-0.40,0.00,0.00,137.00,520.00,50.00,140.00,368.00,1068.00,4095.00,4095.00,,,,,,,,,,,,0,0,0,,-2272,15484,3412,-96,43,-122
4.324,4.28,1.15,3.71,-2.82,1.31,0.45,3.01,-3.38,0.00,0.00,172.00,448.00,65.00,88.00,417.00,1069.00,4095.00,4095.00,,,,,,,,,,,,0,0,0,,-2248,15560,3508,-63,164,-67
4.408,4.33,1.00,7.69,-8.02,16.11,-13.91,-1.87,2.25,0.00,0.00,212.00,440.00,108.00,72.00,336.00,1115.00,4095.00,4095.00,,,,,,,,,,,,0,0,0,,-2280,15528,3380,-168,268,-102
4.429,4.39,0.91,-1.59,1.74,-6.84,3.47,-0.73,2.32,0.00,0.00,148.00,489.00,64.00,112.00,328.00,1064.00,4095.00,4095.00,,,,,,,,,,,,0,0,0,,-2164,15544,3332,-172,107,-129
4.471,4.44,0.99,-1.80,4.49,-18.37,25.46,2.58,-0.92,0.00,0.00,128.00,458.00,24.00,98.00,368.00,1018.00,4095.00,4095.00,,,,,,,,,,,,0,0,0,,-2316,15512,3564,27,11,-123
4.534,4.50,1.03,4.85,-2.09,23.26,-9.33,1.62,-1.05,0.00,0.00,162.00,420.00,74.00,48.00,377.00,1061.00,4095.00,4095.00,,,,,,,,,,,,0,0,0,,-2244,15560,3652,40,173,-153
4.576,4.55,0.91,2.56,-2.43,-0.16,-2.89,-1.31,2.85,0.00,0.00,172.00,464.00,80.00,102.00,322.00,1073.00,4095.00,4095.00,,,,,,,,,,,,0,0,0,,-2228,15556,3584,-21,195,-181
4.64,4.61,1.00,-8.64,11.92,-31.02,37.21,2.79,-0.64,0.00,0.00,97.00,492.00,16.00,118.00,361.00,1002.00,4095.00,4095.00,,,,,,,,,,,,0,0,0,,-2328,15544,3276,-25,112,-202
4.702,4.66,1.08,6.25,-2.33,20.90,-5.86,2.49,-2.29,0.00,0.00,160.00,400.00,64.00,48.00,397.00,1060.00,4095.00,4095.00,,,,,,,,,,,,0,0,0,,-2400,15464,3540,-119,14,-193
4.786,4.72,0.98,3.72,-4.85,4.77,-6.31,-0.79,1.29,0.00,0.00,192.00,473.00,88.00,92.00,347.00,1096.00,4095.00,4095.00,,,,,,,,,,,,0,0,0,,-2200,15584,3524,-180,67,-177
4.808,4.77,0.99,-5.47,4.88,-19.07,12.15,1.15,-0.04,0.00,0.00,134.00,524.00,50.00,144.00,360.00,1052.00,4095.00,4095.00,,,,,,,,,,,,0,0,0,,-2368,15464,3492,-75,162,-134
4.891,4.83,1.07,3.71,-2.82,2.58,0.31,2.48,-2.71,0.00,0.00,172.00,448.00,64.00,84.00,406.00,1072.00,4095.00,4095.00,,,,,,,,,,,,0,0,0,,-2272,15568,3308,-116,106,-159
4.912,4.88,0.96,4.81,-6.69,6.08,-9.84,-1.12,0.88,0.00,0.00,208.00,476.00,104.00,96.00,357.00,1123.00,4095.00,4095.00,,,,,,,,,,,,0,0,0,,-2240,15468,3432,-59,82,-112
4.992,4.94,0.87,-4.80,3.33,-14.61,6.09,-0.77,1.88,0.00,0.00,144.00,532.00,64.00,142.00,336.00,1078.00,4095.00,4095.00,,,,,,,,,,,,0,0,0,,-2192,15512,3264,-40,252,-87
5.054,4.99,0.94,-0.32,1.82,-12.72,17.13,2.26,-1.06,0.00,0.00,144.00,464.00,34.00,98.00,373.00,1035.00,4095.00,4095.00,,,,,,,,,,,,0,0,0,,-2252,15496,3444,-207,201,-136
5.074,5.05,0.94,2.94,-1.68,19.47,-9.50,0.98,-0.48,0.00,0.00,164.00,448.00,80.00,56.00,370.00,1072.00,4095.00,4095.00,,,,,,,,,,,,0,0,0,,-2256,15588,3440,-115,-27,-243
5.135,5.10,0.83,2.09,-2.06,-0.77,-1.25,-1.25,2.95,0.00,0.00,170.00,468.00,74.00,100.00,320.00,1068.00,4095.00,4095.00,,,,,,,,,,,,0,0,0,,-2312,15396,3552,-45,29,-173
5.178,5.16,0.91,-6.36,9.86,-25.61,35.39,2.43,-0.36,0.00,0.00,104.00,475.00,16.00,100.00,358.00,1009.00,4095.00,4095.00,,,,,,,,,,,,0,0,0,,-2272,15584,3596,-121,219,-93
5.261,5.21,0.96,6.77,-3.85,21.15,-6.23,1.87,-1.66,0.00,0.00,172.00,408.00,65.00,48.00,388.00,1068.00,4095.00,4095.00,,,,,,,,,,,,0,0,0,,-2232,15584,3288,-10,190,-102
5.324,5.27,0.85,2.37,-3.41,5.67,-6.82,-1.16,2.01,0.00,0.00,182.00,480.00,89.00,90.00,336.00,1091.00,4095.00,4095.00,,,,,,,,,,,,0,0,0,,-2132,15560,3352,-138,95,-144
5.344,5.32,0.85,-4.94,5.55,-14.57,9.91,0.75,0.41,0.00,0.00,128.00,504.00,52.00,128.00,354.00,1056.00,4095.00,4095.00,,,,,,,,,,,,0,0,0,,-2176,15604,3388,-135,99,-169
5.407,5.38,0.93,3.33,-2.25,4.18,-0.23,2.50,-2.48,0.00,0.00,168.00,448.00,64.00,80.00,401.00,1065.00,4095.00,4095.00,,,,,,,,,,,,0,0,0,,-2264,15664,3496,-97,185,-175
5.468,5.43,0.82,4.40,-6.56,7.28,-11.61,-1.38,1.23,0.00,0.00,208.00,482.00,112.00,96.00,352.00,1124.00,4095.00,4095.00,,,,,,,,,,,,0,0,0,,-2192,15520,3440,-17,137,-151
5.51,5.49,0.74,-5.36,4.44,-15.06,6.24,-0.77,1.88,0.00,0.00,137.00,528.00,64.00,144.00,336.00,1078.00,4095.00,4095.00,,,,,,,,,,,,0,0,0,,-2220,15540,3296,-77,119,-172
5.573,5.54,0.82,-0.55,1.52,-10.24,14.25,2.38,-1.88,0.00,0.00,147.00,472.00,38.00,96.00,389.00,1053.00,4095.00,4095.00,,,,,,,,,,,,0,0,0,,-2124,15528,3452,-35,122,-119
5.614,5.60,0.80,3.04,-1.82,14.69,-8.57,0.52,-0.43,0.00,0.00,165.00,448.00,83.00,66.00,372.00,1090.00,4095.00,4095.00,,,,,,,,,,,,0,0,0,,-2308,15488,3324,-32,261,-89
5.678,5.65,0.67,0.28,-0.33,-2.50,-0.16,-1.92,3.17,0.00,0.00,160.00,480.00,72.00,104.00,320.00,1090.00,4095.00,4095.00,,,,,,,,,,,,0,0,0,,-2204,15580,3308,-214,154,-78
5.741,5.71,0.76,1.69,-2.56,-25.70,31.30,2.52,-0.90,0.00,0.00,176.00,482.00,20.00,112.00,368.00,1020.00,4095.00,4095.00,,,,,,,,,,,,0,0,0,,-2204,15568,3504,16,96,-149
5.805,5.76,0.79,5.95,-3.35,22.81,-8.68,1.46,-1.33,0.00,0.00,170.00,416.00,72.00,48.00,384.00,1076.00,4095.00,4095.00,,,,,,,,,,,,0,0,0,,-2188,15484,3292,54,126,-217
5.867,5.82,0.64,3.10,-4.64,5.13,-6.85,-2.29,3.64,0.00,0.00,192.00,482.00,90.00,92.00,314.00,1092.00,4095.00,4095.00,,,,,,,,,,,,0,0,0,,-2256,15676,3440,-49,155,-225
5.909,5.87,0.68,-6.94,9.70,-27.11,28.41,1.47,-0.65,0.00,0.00,106.00,488.00,24.00,128.00,370.00,1056.00,4095.00,4095.00,,,,,,,,,,,,0,0,0,,-2212,15548,3240,-23,102,-220
5.992,5.93,0.76,3.33,-2.25,3.77,-0.10,2.32,-2.47,0.00,0.00,168.00,448.00,64.00,81.00,402.00,1072.00,4095.00,4095.00,,,,,,,,,,,,0,0,0,,-2308,15496,3312,-125,81,-195
6.013,5.98,0.66,3.99,-6.42,7.28,-11.61,-1.40,1.55,0.00,0.00,208.00,488.00,112.00,96.00,346.00,1115.00,4095.00,4095.00,,,,,,,,,,,,0,0,0,,-2308,15552,3436,-57,178,-222
6.056,6.04,0.63,-4.14,2.85,-16.43,9.84,0.18,0.55,0.00,0.00,146.00,525.00,54.00,138.00,355.00,1076.00,4095.00,4095.00,,,,,,,,,,,,0,0,0,,-2344,15592,3412,32,169,-228
6.139,6.09,0.75,0.42,0.57,-5.06,8.19,2.90,-2.75,0.00,0.00,152.00,466.00,48.00,92.00,404.00,1056.00,4095.00,4095.00,,,,,,,,,,,,0,0,0,,-2264,15572,3256,11,127,-229
6.18,6.15,0.71,5.01,-6.04,8.22,1.55,0.05,-0.07,0.00,0.00,200.00,464.00,54.00,65.00,368.00,1100.00,4095.00,4095.00,,,,,,,,,,,,0,0,0,,-2316,15456,3404,50,132,-249
6.222,6.20,0.60,-0.06,-0.21,-4.70,0.33,-1.55,2.15,0.00,0.00,160.00,485.00,73.00,112.00,336.00,1104.00,4095.00,4095.00,,,,,,,,,,,,0,0,0,,-2292,15636,3284,78,197,-183
6.369,6.26,0.69,-3.48,5.06,-18.08,20.05,2.48,-1.67,0.00,0.00,128.00,482.00,32.00,112.00,384.00,1043.00,4095.00,4095.00,,,,,,,,,,,,0,0,0,,-2280,15556,3300,-124,148,-204
6.389,6.31,0.71,3.93,-1.78,24.52,-11.20,1.09,-1.21,0.00,0.00,162.00,432.00,80.00,48.00,384.00,1088.00,4095.00,4095.00,,,,,,,,,,,,0,0,0,,-2280,15636,3260,-119,40,-219
6.41,6.37,0.56,1.69,-2.56,-0.00,-3.85,-2.37,3.32,0.00,0.00,176.00,482.00,84.00,104.00,320.00,1105.00,4095.00,4095.00,,,,,,,,,,,,0,0,0,,-2372,15656,3232,-10,78,-213
6.452,6.42,0.62,-10.03,13.36,-29.32,36.63,1.80,-0.46,0.00,0.00,92.00,500.00,16.00,112.00,364.00,1037.00,4095.00,4095.00,,,,,,,,,,,,0,0,0,,-2276,15552,3248,-43,168,-213
6.513,6.48,0.71,3.71,-2.82,5.63,-2.38,2.43,-2.41,0.00,0.00,172.00,448.00,70.00,80.00,400.00,1066.00,4095.00,4095.00,,,,,,,,,,,,0,0,0,,-2436,15648,3216,-5,167,-162
6.553,6.53,0.62,3.76,-5.62,8.93,-10.80,-1.09,1.13,0.00,0.00,200.00,482.00,104.00,88.00,352.00,1114.00,4095.00,4095.00,,,,,,,,,,,,0,0,0,,-2228,15504,3180,-174,118,-171
6.616,6.59,0.64,-6.58,6.10,-17.23,9.44,0.96,-0.18,0.00,0.00,128.00,530.00,56.00,144.00,364.00,1064.00,4095.00,4095.00,,,,,,,,,,,,0,0,0,,-2312,15600,3232,-209,97,-170
6.677,6.64,0.74,2.50,-1.53,2.30,2.54,2.62,-2.84,0.00,0.00,164.00,454.00,57.00,80.00,408.00,1070.00,4095.00,4095.00,,,,,,,,,,,,0,0,0,,-2404,15556,2988,-202,106,-182
6.739,6.70,0.66,5.36,-6.88,14.37,-11.34,-0.72,0.39,0.00,0.00,208.00,468.00,97.00,72.00,364.00,1120.00,4095.00,4095.00,,,,,,,,,,,,0,0,0,,-2264,15584,3464,-201,123,-144
6.78,6.75,0.54,-1.53,1.72,-5.34,2.97,-1.76,3.00,0.00,0.00,148.00,488.00,64.00,107.00,322.00,1088.00,4095.00,4095.00,,,,,,,,,,,,0,0,0,,-2324,15516,3264,-172,100,-146
6.842,6.81,0.61,-3.48,5.06,-14.98,16.84,1.98,-1.12,0.00,0.00,128.00,482.00,36.00,108.00,376.00,1048.00,4095.00,4095.00,,,,,,,,,,,,0,0,0,,-2436,15588,3388,-135,135,-130
6.903,6.86,0.64,3.98,-2.03,20.19,-7.79,1.19,-1.24,0.00,0.00,164.00,434.00,72.00,52.00,384.00,1085.00,4095.00,4095.00,,,,,,,,,,,,0,0,0,,-2164,15568,3200,-283,92,-174
6.965,6.92,0.52,1.82,-2.61,2.23,-4.15,-1.89,3.16,0.00,0.00,176.00,480.00,82.00,96.00,320.00,1089.00,4095.00,4095.00,,,,,,,,,,,,0,0,0,,-2312,15520,3388,-354,29,-164
7.005,6.97,0.65,-8.55,11.32,-29.32,36.63,3.23,-1.14,0.00,0.00,100.00,498.00,16.00,112.00,368.00,998.00,4095.00,4095.00,,,,,,,,,,,,0,0,0,,-2260,15488,3556,-161,10,-203
7.086,7.03,0.74,6.71,-3.39,24.73,-8.27,2.36,-1.83,0.00,0.00,168.00,404.00,68.00,44.00,388.00,1052.00,4095.00,4095.00,,,,,,,,,,,,0,0,0,,-2276,15604,3388,-119,67,-228
7.108,7.08,0.65,2.01,-2.88,5.85,-6.25,-1.10,1.99,0.00,0.00,178.00,480.00,86.00,88.00,336.00,1089.00,4095.00,4095.00,,,,,,,,,,,,0,0,0,,-2268,15496,3384,-120,153,-174
7.172,7.14,0.69,-6.46,6.06,-19.29,12.22,1.54,0.25,0.00,0.00,128.00,528.00,50.00,145.00,352.00,1028.00,4095.00,4095.00,,,,,,,,,,,,0,0,0,,-2400,15508,3452,-160,138,-171
7.212,7.19,0.82,3.55,-1.66,4.26,1.56,3.31,-2.80,0.00,0.00,162.00,437.00,58.00,76.00,402.00,1040.00,4095.00,4095.00,,,,,,,,,,,,0,0,0,,-2300,15612,3372,-235,71,-164
7.274,7.25,0.77,5.29,-6.86,12.05,-11.85,-0.30,0.71,0.00,0.00,208.00,469.00,104.00,80.00,355.00,1092.00,4095.00,4095.00,,,,,,,,,,,,0,0,0,,-2408,15624,3452,-130,39,-196
7.336,7.30,0.69,-5.01,3.92,-11.21,4.94,-0.78,2.67,0.00,0.00,140.00,528.00,64.00,128.00,322.00,1056.00,4095.00,4095.00,,,,,,,,,,,,0,0,0,,-2404,15480,3368,-128,120,-194
7.399,7.36,0.80,-0.35,2.35,-10.92,17.65,2.90,-1.03,0.00,0.00,140.00,458.00,32.00,90.00,368.00,1008.00,4095.00,4095.00,,,,,,,,,,,,0,0,0,,-2392,15508,3472,-135,109,-142
7.461,7.41,0.82,2.93,-1.33,14.27,-6.80,1.13,-0.44,0.00,0.00,161.00,444.00,76.00,64.00,368.00,1064.00,4095.00,4095.00,,,,,,,,,,,,0,0,0,,-2372,15488,3352,-111,87,-123
7.503,7.47,0.67,1.19,-1.20,1.83,-3.56,-2.16,4.14,0.00,0.00,165.00,474.00,80.00,96.00,305.00,1072.00,4095.00,4095.00,,,,,,,,,,,,0,0,0,,-2320,15516,3448,-136,190,-93
7.545,7.52,0.79,-6.53,9.57,-29.32,36.63,3.07,-0.68,0.00,0.00,106.00,482.00,16.00,112.00,360.00,992.00,4095.00,4095.00,,,,,,,,,,,,0,0,0,,-2304,15544,3388,-256,99,-155
7.608,7.58,0.86,6.25,-2.33,27.85,-9.32,2.14,-1.08,0.00,0.00,160.00,400.00,68.00,40.00,374.00,1040.00,4095.00,4095.00,,,,,,,,,,,,0,0,0,,-2412,15548,3484,-67,-22,-196
7.709,7.63,0.78,2.79,-2.93,5.49,-7.37,-0.64,3.03,0.00,0.00,176.00,466.00,92.00,92.00,315.00,1040.00,4095.00,4095.00,,,,,,,,,,,,0,0,0,,-2380,15580,3488,-7,146,-150
7.73,7.69,0.86,-4.41,5.37,-12.65,10.74,2.33,0.19,0.00,0.00,128.00,496.00,48.00,116.00,348.00,998.00,4095.00,4095.00,,,,,,,,,,,,0,0,0,,-2324,15520,3472,-86,184,-144
7.832,7.74,1.02,3.73,-1.49,5.46,1.80,4.12,-2.61,0.00,0.00,160.00,432.00,56.00,72.00,392.00,1002.00,4095.00,4095.00,,,,,,,,,,,,0,0,0,,-2256,15616,3292,-34,113,-139
7.854,7.80,0.97,6.04,-6.75,11.66,-13.08,0.04,1.28,0.00,0.00,204.00,454.00,112.00,84.00,342.00,1061.00,4095.00,4095.00,,,,,,,,,,,,0,0,0,,-2380,15432,3380,-110,56,-164
7.893,7.85,0.98,-3.69,4.01,-14.57,9.91,1.14,1.69,0.00,0.00,136.00,500.00,52.00,128.00,328.00,1005.00,4095.00,4095.00,,,,,,,,,,,,0,0,0,,-2332,15516,3380,-152,67,-146
7.955,7.91,1.14,0.95,2.18,-5.15,13.53,4.14,-1.65,0.00,0.00,138.00,437.00,36.00,80.00,372.00,976.00,4095.00,4095.00,,,,,,,,,,,,0,0,0,,-2284,15556,3440,-76,153,-146
8.019,7.96,1.17,3.78,-1.03,15.86,-4.16,1.73,0.18,0.00,0.00,156.00,426.00,64.00,56.00,352.00,1022.00,4095.00,4095.00,,,,,,,,,,,,0,0,0,,-2244,15632,3376,-47,93,-191
8.06,8.02,1.05,1.16,-0.04,1.31,-0.39,-1.18,3.87,0.00,0.00,155.00,460.00,68.00,90.00,304.00,1039.00,4095.00,4095.00,,,,,,,,,,,,0,0,0,,-2288,15476,3332,-100,71,-127
8.143,8.07,1.17,-4.39,7.83,-28.73,36.44,3.38,-0.53,0.00,0.00,112.00,464.00,16.00,110.00,355.00,976.00,4095.00,4095.00,,,,,,,,,,,,0,0,0,,-2308,15488,3420,-95,221,-78
8.204,8.13,1.25,6.65,-2.92,26.06,-7.59,2.74,-0.98,0.00,0.00,164.00,400.00,64.00,41.00,368.00,1013.00,4095.00,4095.00,,,,,,,,,,,,0,0,0,,-2320,15456,3420,-238,165,-124
8.225,8.18,1.13,3.87,-3.71,5.47,-5.69,-1.03,3.82,0.00,0.00,180.00,456.00,84.00,88.00,304.00,1034.00,4095.00,4095.00,,,,,,,,,,,,0,0,0,,-2324,15580,3516,-75,-33,-217
8.266,8.24,1.23,-9.05,13.44,-29.32,36.63,3.06,0.05,0.00,0.00,90.00,480.00,16.00,112.00,346.00,973.00,4095.00,4095.00,,,,,,,,,,,,0,0,0,,-2280,15476,3512,18,91,-174
8.329,8.29,1.38,5.36,-2.04,4.26,3.57,4.25,-2.27,0.00,0.00,160.00,411.00,52.00,72.00,384.00,988.00,4095.00,4095.00,,,,,,,,,,,,0,0,0,,-2328,15524,3344,-105,243,-167
8.371,8.35,1.32,5.49,-5.45,11.42,-10.91,0.21,1.77,0.00,0.00,192.00,448.00,100.00,80.00,332.00,1040.00,4095.00,4095.00,,,,,,,,,,,,0,0,0,,-2304,15552,3184,-27,95,-154
8.432,8.40,1.37,-4.15,5.28,-12.08,10.55,2.39,0.82,0.00,0.00,128.00,492.00,48.00,114.00,336.00,979.00,4095.00,4095.00,,,,,,,,,,,,0,0,0,,-2320,15448,3344,-142,29,-191
8.493,8.46,1.56,2.32,0.93,-0.10,8.98,5.09,-2.55,0.00,0.00,144.00,428.00,42.00,74.00,384.00,963.00,4095.00,4095.00,,,,,,,,,,,,0,0,0,,-2400,15572,3524,-186,102,-161
8.555,8.51,1.58,6.68,-5.85,22.43,-13.86,2.01,0.51,0.00,0.00,192.00,432.00,96.00,56.00,344.00,1002.00,4095.00,4095.00,,,,,,,,,,,,0,0,0,,-2288,15544,3344,-41,157,-151
8.597,8.57,1.52,1.38,1.12,2.58,0.31,0.27,3.26,0.00,0.00,145.00,442.00,64.00,84.00,306.00,997.00,4095.00,4095.00,,,,,,,,,,,,0,0,0,,-2216,15576,3404,-67,107,-157
8.659,8.62,1.63,-3.97,7.69,-28.93,41.82,3.71,-0.16,0.00,0.00,112.00,458.00,12.00,96.00,346.00,954.00,4095.00,4095.00,,,,,,,,,,,,0,0,0,,-2376,15464,3296,-36,65,-114
8.699,8.68,1.67,4.93,-0.94,26.87,-7.87,2.53,-0.71,0.00,0.00,152.00,406.00,64.00,40.00,364.00,1014.00,4095.00,4095.00,,,,,,,,,,,,0,0,0,,-2308,15480,3492,-76,168,-74
8.781,8.73,1.51,2.66,-2.24,2.23,-1.75,-1.54,4.36,0.00,0.00,170.00,460.00,72.00,90.00,298.00,1040.00,4095.00,4095.00,,,,,,,,,,,,0,0,0,,-2224,15616,3284,-226,210,-159
8.842,8.79,1.65,-9.62,14.90,-32.79,43.12,4.30,-0.68,0.00,0.00,84.00,472.00,12.00,108.00,352.00,945.00,4095.00,4095.00,,,,,,,,,,,,0,0,0,,-2280,15452,3472,-199,21,-169
8.924,8.84,1.77,4.91,-2.00,9.32,0.50,4.02,-1.71,0.00,0.00,161.00,418.00,56.00,64.00,374.00,982.00,4095.00,4095.00,,,,,,,,,,,,0,0,0,,-2268,15496,3596,-36,47,-150
8.944,8.90,1.72,5.49,-5.45,8.78,-7.02,0.69,1.39,0.00,0.00,192.00,448.00,85.00,80.00,336.00,1031.00,4095.00,4095.00,,,,,,,,,,,,0,0,0,,-2308,15488,3520,-76,260,-106
9.005,8.95,1.77,-5.46,6.92,-17.28,13.91,2.82,0.67,0.00,0.00,120.00,496.00,44.00,128.00,336.00,966.00,4095.00,4095.00,,,,,,,,,,,,0,0,0,,-2152,15608,3412,2,226,-152
9.047,9.01,1.93,4.82,-1.15,5.81,4.53,4.92,-2.50,0.00,0.00,154.00,410.00,48.00,66.00,384.00,968.00,4095.00,4095.00,,,,,,,,,,,,0,0,0,,-2264,15472,3360,2,13,-144
9.089,9.06,1.87,7.80,-6.98,18.06,-12.39,0.76,1.04,0.00,0.00,200.00,426.00,96.00,64.00,342.00,1038.00,4095.00,4095.00,,,,,,,,,,,,0,0,0,,-2356,15532,3440,-84,133,-151
9.154,9.12,1.74,-0.21,2.30,-1.56,3.84,-0.64,4.69,0.00,0.00,140.00,456.00,57.00,90.00,288.00,995.00,4095.00,4095.00,,,,,,,,,,,,0,0,0,,-2284,15452,3408,-105,189,-173
9.194,9.17,1.85,-0.49,4.05,-18.30,32.93,3.78,-0.51,0.00,0.00,128.00,440.00,16.00,80.00,352.00,960.00,4095.00,4095.00,,,,,,,,,,,,0,0,0,,-2380,15644,3376,-45,88,-164
9.299,9.23,1.87,5.12,-0.76,25.27,-7.33,2.27,-0.21,0.00,0.00,150.00,401.00,64.00,42.00,356.00,1011.00,4095.00,4095.00,,,,,,,,,,,,0,0,0,,-2284,15496,3196,-40,40,-116
9.32,9.28,1.73,2.54,-1.09,-0.57,-0.02,-0.84,3.75,0.00,0.00,160.00,448.00,69.00,96.00,304.00,1028.00,4095.00,4095.00,,,,,,,,,,,,0,0,0,,-2292,15540,3424,-133,157,-92
9.361,9.34,1.83,-3.32,10.32,-33.98,43.52,3.65,-0.46,0.00,0.00,96.00,416.00,12.00,112.00,352.00,964.00,4095.00,4095.00,,,,,,,,,,,,0,0,0,,-2364,15516,3284,-139,218,-56
9.422,9.39,1.91,7.07,-2.02,24.25,-7.55,3.40,-1.70,0.00,0.00,155.00,384.00,66.00,44.00,378.00,1006.00,4095.00,4095.00,,,,,,,,,,,,0,0,0,,-2276,15548,3412,-281,107,-33
9.485,9.45,1.84,3.65,-3.22,9.34,-7.85,0.60,1.42,0.00,0.00,176.00,454.00,88.00,80.00,336.00,1034.00,4095.00,4095.00,,,,,,,,,,,,0,0,0,,-2244,15560,3440,-106,77,-117
9.524,9.50,1.87,-3.34,5.01,-15.87,11.83,2.49,0.79,0.00,0.00,128.00,480.00,48.00,128.00,336.00,976.00,4095.00,4095.00,,,,,,,,,,,,0,0,0,,-2272,15600,3580,-28,101,-164
9.585,9.56,2.01,6.23,-3.23,2.07,5.79,4.65,-2.41,0.00,0.00,168.00,410.00,48.00,74.00,384.00,976.00,4095.00,4095.00,,,,,,,,,,,,0,0,0,,-2140,15604,3404,-49,136,-191
9.665,9.61,1.93,6.31,-5.72,18.85,-14.13,0.45,1.42,0.00,0.00,192.00,437.00,104.00,65.00,337.00,1040.00,4095.00,4095.00,,,,,,,,,,,,0,0,0,,-2176,15492,3304,79,114,-254
9.686,9.67,1.90,-3.31,3.75,-13.37,8.14,1.33,2.08,0.00,0.00,137.00,496.00,56.00,128.00,320.00,987.00,4095.00,4095.00,,,,,,,,,,,,0,0,0,,-2280,15516,3364,-51,98,-192
9.748,9.72,2.00,0.11,3.85,-11.73,23.23,3.78,-0.51,0.00,0.00,128.00,432.00,24.00,80.00,352.00,960.00,4095.00,4095.00,,,,,,,,,,,,0,0,0,,-2308,15556,3348,-62,120,-232
9.828,9.78,2.03,3.92,-0.36,21.15,-6.23,2.58,-0.36,0.00,0.00,150.00,416.00,65.00,48.00,357.00,1003.00,4095.00,4095.00,,,,,,,,,,,,0,0,0,,-2288,15508,3212,-15,108,-228
9.85,9.83,1.89,1.81,-0.02,1.06,0.82,-0.70,3.59,0.00,0.00,153.00,448.00,64.00,88.00,306.00,1027.00,4095.00,4095.00,,,,,,,,,,,,0,0,0,,-2364,15492,3388,-108,68,-184
9.91,9.89,2.00,-5.95,10.45,-24.27,34.94,4.13,-1.14,0.00,0.00,100.00,460.00,16.00,96.00,362.00,963.00,4095.00,4095.00,,,,,,,,,,,,0,0,0,,-2392,15544,3232,-122,71,-186
9.992,9.94,2.05,6.83,-2.06,34.18,-10.32,2.88,-1.32,0.00,0.00,156.00,388.00,64.00,32.00,374.00,1017.00,4095.00,4095.00,,,,,,,,,,,,0,0,0,,-2380,15604,3396,-82,178,-109
10.053,10.00,1.93,3.39,-3.65,3.94,-4.27,-0.22,2.48,0.00,0.00,181.00,464.00,80.00,90.00,322.00,1038.00,4095.00,4095.00,,,,,,,,,,,,0,0,0,,-2360,15572,3268,-247,110,-171
10.094,10.05,1.97,-3.48,5.06,-17.66,14.46,2.63,0.20,0.00,0.00,128.00,482.00,43.00,128.00,346.00,986.00,4095.00,4095.00,,,,,,,,,,,,0,0,0,,-2312,15612,3364,-256,46,-149
10.177,10.11,2.09,5.85,-3.21,5.80,2.36,4.45,-3.09,0.00,0.00,169.00,416.00,54.00,70.00,400.00,1002.00,4095.00,4095.00,,,,,,,,,,,,0,0,0,,-2184,15516,3344,-77,49,-216
10.198,10.16,1.99,5.67,-6.54,13.25,-13.62,0.09,1.59,0.00,0.00,203.00,458.00,112.00,80.00,336.00,1050.00,4095.00,4095.00,,,,,,,,,,,,0,0,0,,-2248,15460,3284,-183,80,-194
10.238,10.22,1.97,-3.90,4.91,-14.57,9.91,1.53,1.44,0.00,0.00,130.00,492.00,52.00,128.00,330.00,996.00,4095.00,4095.00,,,,,,,,,,,,0,0,0,,-2304,15448,3272,-164,94,-109
10.299,10.27,2.10,2.02,1.03,-7.06,16.35,4.58,-2.38,0.00,0.00,144.00,432.00,32.00,80.00,384.00,978.00,4095.00,4095.00,,,,,,,,,,,,0,0,0,,-2120,15604,3380,-181,60,-216
10.402,10.33,2.09,4.96,-1.90,20.90,-5.86,1.97,0.05,0.00,0.00,160.00,416.00,64.00,48.00,353.00,1016.00,4095.00,4095.00,,,,,,,,,,,,0,0,0,,-2356,15576,3432,-185,50,-221
10.422,10.38,1.96,1.92,-0.17,-1.79,1.78,-0.61,3.68,0.00,0.00,154.00,448.00,64.00,96.00,304.00,1021.00,4095.00,4095.00,,,,,,,,,,,,0,0,0,,-2200,15464,3404,-108,85,-232
10.485,10.44,2.06,-6.73,11.27,-29.27,41.93,3.98,-0.99,0.00,0.00,97.00,464.00,12.00,97.00,360.00,965.00,4095.00,4095.00,,,,,,,,,,,,0,0,0,,-2360,15620,3500,-119,112,-150
10.525,10.49,2.11,5.92,-2.22,22.81,-8.68,3.02,-1.86,0.00,0.00,160.00,404.00,72.00,48.00,384.00,1026.00,4095.00,4095.00,,,,,,,,,,,,0,0,0,,-2316,15472,3528,-119,75,-165
10.586,10.55,1.90,3.94,-4.14,8.39,-9.13,-1.99,4.14,0.00,0.00,184.00,460.00,96.00,86.00,304.00,1065.00,4095.00,4095.00,,,,,,,,,,,,0,0,0,,-2304,15516,3452,-117,69,-113
10.649,10.60,1.94,-8.95,12.21,-25.99,31.39,2.61,-0.93,0.00,0.00,96.00,494.00,20.00,113.00,368.00,1017.00,4095.00,4095.00,,,,,,,,,,,,0,0,0,,-2256,15504,3520,-140,190,-150
10.709,10.66,2.00,5.44,-2.96,6.73,-1.09,3.17,-2.19,0.00,0.00,168.00,420.00,64.00,74.00,390.00,1029.00,4095.00,4095.00,,,,,,,,,,,,0,0,0,,-2328,15520,3308,-196,144,-167
10.771,10.71,1.88,6.07,-7.12,12.45,-13.35,-0.40,1.65,0.00,0.00,208.00,458.00,112.00,82.00,338.00,1069.00,4095.00,4095.00,,,,,,,,,,,,0,0,0,,-2324,15580,3480,-70,-21,-217
10.812,10.77,1.88,-4.41,5.37,-15.87,11.83,1.82,1.01,0.00,0.00,128.00,496.00,48.00,128.00,336.00,996.00,4095.00,4095.00,,,,,,,,,,,,0,0,0,,-2340,15556,3488,-18,123,-189
10.873,10.82,2.02,2.32,0.93,-1.90,8.73,4.75,-2.63,0.00,0.00,144.00,428.00,44.00,80.00,388.00,978.00,4095.00,4095.00,,,,,,,,,,,,0,0,0,,-2276,15592,3488,-88,194,-138
10.914,10.88,2.02,7.35,-6.82,19.36,-14.30,2.03,-0.18,0.00,0.00,200.00,432.00,104.00,64.00,357.00,1020.00,4095.00,4095.00,,,,,,,,,,,,0,0,0,,-2248,15556,3208,-56,98,-133
10.977,10.93,1.90,1.27,0.78,0.32,1.06,-0.35,3.29,0.00,0.00,148.00,448.00,64.00,90.00,309.00,1021.00,4095.00,4095.00,,,,,,,,,,,,0,0,0,,-2232,15468,3432,-116,72,-166
11.039,10.99,1.97,-2.97,6.70,-18.54,28.89,3.33,-0.46,0.00,0.00,116.00,452.00,20.00,90.00,354.00,976.00,4095.00,4095.00,,,,,,,,,,,,0,0,0,,-2264,15572,3376,-112,83,-186
11.081,11.04,1.97,6.75,-3.07,21.89,-7.31,1.88,-0.69,0.00,0.00,165.00,400.00,68.00,48.00,368.00,1040.00,4095.00,4095.00,,,,,,,,,,,,0,0,0,,-2332,15528,3448,-21,144,-181
11.143,11.10,1.78,2.94,-2.34,0.12,-1.04,-1.72,4.05,0.00,0.00,170.00,456.00,72.00,96.00,304.00,1056.00,4095.00,4095.00,,,,,,,,,,,,0,0,0,,-2372,15588,3280,-16,90,-186
11.205,11.15,1.85,-9.05,13.44,-31.57,37.39,3.18,-0.62,0.00,0.00,90.00,480.00,16.00,120.00,358.00,986.00,4095.00,4095.00,,,,,,,,,,,,0,0,0,,-2248,15456,3384,-66,59,-122
11.288,11.21,1.88,4.52,-2.65,5.86,-0.80,2.29,-1.61,0.00,0.00,168.00,432.00,64.00,76.00,384.00,1049.00,4095.00,4095.00,,,,,,,,,,,,0,0,0,,-2280,15528,3608,-98,157,-61
11.309,11.26,1.77,3.79,-4.87,6.18,-8.39,-0.28,0.76,0.00,0.00,192.00,472.00,96.00,92.00,354.00,1090.00,4095.00,4095.00,,,,,,,,,,,,0,0,0,,-2216,15632,3288,-286,171,-151
11.372,11.32,1.79,-5.01,5.29,-14.77,9.63,2.12,0.05,0.00,0.00,130.00,509.00,53.00,130.00,352.00,1010.00,4095.00,4095.00,,,,,,,,,,,,0,0,0,,-2384,15532,3332,-155,22,-162
11.393,11.37,1.93,4.13,-2.08,0.18,5.67,4.65,-3.16,0.00,0.00,164.00,432.00,50.00,80.00,400.00,996.00,4095.00,4095.00,,,,,,,,,,,,0,0,0,,-2252,15628,3628,-2,13,-186
11.454,11.43,1.86,7.98,-7.76,19.67,-14.76,0.55,0.53,0.00,0.00,208.00,432.00,106.00,64.00,353.00,1061.00,4095.00,4095.00,,,,,,,,,,,,0,0,0,,-2312,15528,3368,-52,237,-171
11.517,11.48,1.79,0.25,1.63,-2.13,1.89,0.51,2.35,0.00,0.00,144.00,456.00,64.00,97.00,320.00,1012.00,4095.00,4095.00,,,,,,,,,,,,0,0,0,,-2248,15552,3376,-55,158,-153
11.577,11.54,1.88,-1.08,4.25,-14.85,24.28,3.60,-0.86,0.00,0.00,128.00,448.00,24.00,88.00,360.00,976.00,4095.00,4095.00,,,,,,,,,,,,0,0,0,,-2336,15524,3352,-128,16,-160
11.617,11.59,1.88,5.44,-2.06,26.87,-7.87,1.81,-0.26,0.00,0.00,160.00,410.00,64.00,40.00,360.00,1031.00,4095.00,4095.00,,,,,,,,,,,,0,0,0,,-2336,15524,3360,-209,78,-162
11.698,11.65,1.72,2.16,-1.19,-0.57,-0.02,-1.23,3.82,0.00,0.00,162.00,456.00,69.00,96.00,305.00,1042.00,4095.00,4095.00,,,,,,,,,,,,0,0,0,,-2332,15664,3416,-145,118,-139
11.719,11.70,1.81,-7.02,10.44,-31.57,37.39,3.42,-0.59,0.00,0.00,102.00,480.00,16.00,120.00,356.00,976.00,4095.00,4095.00,,,,,,,,,,,,0,0,0,,-2372,15524,3456,-53,149,-180
11.781,11.76,1.86,7.37,-3.61,21.89,-7.31,2.74,-1.95,0.00,0.00,168.00,396.00,68.00,48.00,388.00,1040.00,4095.00,4095.00,,,,,,,,,,,,0,0,0,,-2268,15528,3356,-84,73,-189
11.884,11.81,1.77,4.06,-4.97,3.37,-5.84,0.08,0.74,0.00,0.00,192.00,468.00,88.00,96.00,352.00,1075.00,4095.00,4095.00,,,,,,,,,,,,0,0,0,,-2372,15576,3280,-92,111,-145
11.903,11.87,1.75,-5.59,5.20,-15.72,11.02,1.34,0.10,0.00,0.00,132.00,522.00,50.00,130.00,356.00,1040.00,4095.00,4095.00,,,,,,,,,,,,0,0,0,,-2232,15424,3264,-83,209,-105
11.945,11.92,1.83,3.77,-2.40,0.81,4.73,3.45,-2.89,0.00,0.00,168.00,442.00,52.00,80.00,403.00,1037.00,4095.00,4095.00,,,,,,,,,,,,0,0,0,,-2284,15508,3272,-274,137,-155
12.008,11.98,1.75,5.47,-6.56,13.25,-13.62,0.17,0.71,0.00,0.00,204.00,462.00,112.00,80.00,352.00,1072.00,4095.00,4095.00,,,,,,,,,,,,0,0,0,,-2256,15568,3396,-124,-40,-241
12.089,12.03,1.67,-3.80,2.99,-11.21,4.94,0.25,2.44,0.00,0.00,144.00,516.00,64.00,128.00,320.00,1020.00,4095.00,4095.00,,,,,,,,,,,,0,0,0,,-2312,15448,3556,-20,89,-182
12.11,12.09,1.78,-0.34,4.00,-15.49,26.96,3.86,-1.35,0.00,0.00,128.00,438.00,21.00,84.00,368.00,979.00,4095.00,4095.00,,,,,,,,,,,,0,0,0,,-2340,15464,3444,-93,220,-115
12.172,12.14,1.78,4.34,-0.99,24.49,-7.91,1.75,-0.24,0.00,0.00,154.00,416.00,67.00,44.00,360.00,1033.00,4095.00,4095.00,,,,,,,,,,,,0,0,0,,-2252,15540,3444,50,140,-135
12.234,12.20,1.66,1.39,-0.70,-1.79,1.78,-0.63,3.09,0.00,0.00,160.00,464.00,64.00,96.00,314.00,1038.00,4095.00,4095.00,,,,,,,,,,,,0,0,0,,-2308,15508,3316,-94,92,-215
12.335,12.25,1.74,-4.54,7.88,-25.91,34.37,3.36,-0.57,0.00,0.00,112.00,466.00,17.00,104.00,356.00,978.00,4095.00,4095.00,,,,,,,,,,,,0,0,0,,-2280,15548,3356,-174,98,-156
12.355,12.31,1.81,6.25,-2.33,20.90,-5.86,3.03,-2.10,0.00,0.00,160.00,400.00,64.00,48.00,389.00,1032.00,4095.00,4095.00,,,,,,,,,,,,0,0,0,,-2316,15560,3480,-31,162,-139
12.396,12.36,1.68,1.79,-1.29,7.93,-7.58,-0.73,2.77,0.00,0.00,164.00,464.00,89.00,84.00,320.00,1051.00,4095.00,4095.00,,,,,,,,,,,,0,0,0,,-2300,15568,3268,-43,132,-132
12.456,12.42,1.71,-4.01,5.24,-12.46,9.20,2.23,-0.40,0.00,0.00,128.00,490.00,52.00,120.00,360.00,1018.00,4095.00,4095.00,,,,,,,,,,,,0,0,0,,-2260,15548,3448,-11,138,-96
12.517,12.47,1.80,3.63,-1.68,2.58,2.12,3.48,-3.04,0.00,0.00,162.00,436.00,58.00,80.00,406.00,1040.00,4095.00,4095.00,,,,,,,,,,,,0,0,0,,-2264,15520,3408,15,169,-138
12.641,12.53,1.68,4.31,-5.80,11.42,-10.91,-0.50,1.15,0.00,0.00,200.00,474.00,100.00,80.00,348.00,1088.00,4095.00,4095.00,,,,,,,,,,,,0,0,0,,-2268,15468,3216,-4,233,-77
12.661,12.58,1.60,-4.21,4.19,-10.31,2.47,0.11,1.92,0.00,0.00,136.00,508.00,72.00,132.00,330.00,1040.00,4095.00,4095.00,,,,,,,,,,,,0,0,0,,-2104,15596,3320,-213,115,-84
12.683,12.64,1.74,0.73,2.25,-7.06,16.35,4.25,-2.27,0.00,0.00,138.00,440.00,32.00,80.00,384.00,988.00,4095.00,4095.00,,,,,,,,,,,,0,0,0,,-2300,15600,3544,-75,80,-164
12.724,12.69,1.74,4.19,-1.64,16.24,1.02,1.86,0.14,0.00,0.00,160.00,426.00,48.00,48.00,352.00,1018.00,4095.00,4095.00,,,,,,,,,,,,0,0,0,,-2136,15696,3320,-16,150,-211
12.787,12.75,1.62,1.96,-0.89,2.60,-1.88,-0.80,3.38,0.00,0.00,160.00,456.00,72.00,89.00,310.00,1037.00,4095.00,4095.00,,,,,,,,,,,,0,0,0,,-2208,15664,3400,2,122,-197
12.85,12.80,1.72,-5.29,9.15,-24.27,34.94,3.72,-0.95,0.00,0.00,106.00,464.00,16.00,96.00,361.00,974.00,4095.00,4095.00,,,,,,,,,,,,0,0,0,,-2336,15512,3188,88,148,-201
12.889,12.86,1.75,6.75,-3.07,23.75,-6.82,2.26,-0.82,0.00,0.00,165.00,400.00,64.00,44.00,368.00,1028.00,4095.00,4095.00,,,,,,,,,,,,0,0,0,,-2288,15532,3348,-17,206,-131
12.974,12.91,1.58,3.48,-3.78,6.94,-7.86,-1.56,4.00,0.00,0.00,182.00,464.00,92.00,88.00,304.00,1051.00,4095.00,4095.00,,,,,,,,,,,,0,0,0,,-2364,15696,3300,-11,201,-173
13.015,12.97,1.54,-8.34,12.01,-29.32,36.63,0.66,0.54,0.00,0.00,96.00,485.00,16.00,112.00,352.00,1056.00,4095.00,4095.00,,,,,,,,,,,,0,0,0,,-2156,15568,3160,61,204,-257
13.056,13.02,1.64,4.13,-2.08,5.86,-0.80,3.54,-2.41,0.00,0.00,164.00,432.00,64.00,76.00,392.00,1020.00,4095.00,4095.00,,,,,,,,,,,,0,0,0,,-2380,15572,3120,-4,74,-244
13.118,13.08,1.53,5.01,-6.76,10.13,-12.57,-0.57,1.38,0.00,0.00,208.00,473.00,112.00,88.00,344.00,1084.00,4095.00,4095.00,,,,,,,,,,,,0,0,0,,-2320,15504,3204,-36,85,-173
13.181,13.13,1.49,-5.83,5.85,-15.47,10.93,0.88,0.79,0.00,0.00,128.00,518.00,50.00,129.00,346.00,1040.00,4095.00,4095.00,,,,,,,,,,,,0,0,0,,-2268,15624,3240,-76,227,-142
13.241,13.19,1.63,1.77,-0.12,-2.85,7.45,4.30,-3.09,0.00,0.00,154.00,450.00,48.00,86.00,401.00,1008.00,4095.00,4095.00,,,,,,,,,,,,0,0,0,,-2300,15580,3272,-133,106,-185
13.282,13.24,1.63,6.16,-6.42,19.04,-13.84,1.64,-0.41,0.00,0.00,200.00,448.00,102.00,64.00,364.00,1042.00,4095.00,4095.00,,,,,,,,,,,,0,0,0,,-2272,15544,3404,-72,45,-167
13.364,13.30,1.54,-0.32,1.82,-0.34,-0.37,-0.26,2.61,0.00,0.00,144.00,464.00,70.00,96.00,320.00,1036.00,4095.00,4095.00,,,,,,,,,,,,0,0,0,,-2348,15708,3244,31,169,-185
13.384,13.35,1.66,-3.47,7.36,-24.27,34.94,3.90,-1.06,0.00,0.00,113.00,453.00,16.00,96.00,362.00,970.00,4095.00,4095.00,,,,,,,,,,,,0,0,0,,-2380,15640,3108,-99,139,-138
13.446,13.41,1.68,6.75,-3.07,32.19,-9.66,2.02,-0.53,0.00,0.00,165.00,400.00,64.00,34.00,364.00,1030.00,4095.00,4095.00,,,,,,,,,,,,0,0,0,,-2216,15544,3160,-75,76,-84
13.487,13.46,1.53,2.37,-2.15,3.22,-4.03,-1.16,3.62,0.00,0.00,170.00,464.00,80.00,92.00,308.00,1045.00,4095.00,4095.00,,,,,,,,,,,,0,0,0,,-2364,15604,3300,-126,128,-163
13.547,13.52,1.62,-8.14,11.94,-29.61,36.73,3.34,-0.36,0.00,0.00,96.00,482.00,16.00,113.00,352.00,973.00,4095.00,4095.00,,,,,,,,,,,,0,0,0,,-2312,15596,3252,-164,132,-135
13.609,13.57,1.62,4.74,-2.28,7.63,-1.39,1.58,-1.37,0.00,0.00,164.00,424.00,64.00,72.00,384.00,1072.00,4095.00,4095.00,,,,,,,,,,,,0,0,0,,-2280,15536,3256,-120,74,-189
13.67,13.63,1.51,3.30,-3.52,9.49,-9.89,-0.60,1.77,0.00,0.00,180.00,464.00,98.00,84.00,337.00,1074.00,4095.00,4095.00,,,,,,,,,,,,0,0,0,,-2240,15516,3312,-109,106,-183
13.71,13.68,1.54,-5.96,5.89,-15.95,9.68,2.17,-0.28,0.00,0.00,128.00,520.00,54.00,136.00,358.00,1017.00,4095.00,4095.00,,,,,,,,,,,,0,0,0,,-2320,15564,3160,-157,62,-145
13.771,13.74,1.66,3.83,-1.98,2.01,2.96,3.93,-2.73,0.00,0.00,164.00,436.00,56.00,80.00,396.00,1013.00,4095.00,4095.00,,,,,,,,,,,,0,0,0,,-2276,15576,3176,-165,52,-134
13.832,13.79,1.57,8.80,-10.99,26.34,-24.61,-0.13,0.60,0.00,0.00,244.00,456.00,160.00,64.00,356.00,1088.00,4095.00,4095.00,,,,,,,,,,,,0,0,0,,-2144,15592,3224,-166,175,-116
13.893,13.85,1.48,-0.38,1.59,-5.03,2.87,-0.26,2.61,0.00,0.00,146.00,468.00,64.00,106.00,320.00,1036.00,4095.00,4095.00,,,,,,,,,,,,0,0,0,,-2224,15616,3112,-277,114,-137
13.935,13.90,1.60,-1.80,4.49,-13.03,18.36,3.78,-1.13,0.00,0.00,128.00,458.00,32.00,96.00,364.00,976.00,4095.00,4095.00,,,,,,,,,,,,0,0,0,,-2164,15544,3340,-154,-29,-244
14.017,13.96,1.65,6.31,-3.26,27.61,-8.96,2.74,-0.98,0.00,0.00,168.00,409.00,67.00,40.00,368.00,1013.00,4095.00,4095.00,,,,,,,,,,,,0,0,0,,-2324,15656,3320,-37,62,-209
14.08,14.01,1.56,2.65,-1.58,3.94,-4.27,-0.23,3.37,0.00,0.00,164.00,452.00,80.00,90.00,307.00,1014.00,4095.00,4095.00,,,,,,,,,,,,0,0,0,,-2192,15592,3308,-156,140,-211
14.1,14.07,1.67,-8.00,11.89,-28.13,36.23,3.74,-0.60,0.00,0.00,96.00,480.00,16.00,108.00,354.00,964.00,4095.00,4095.00,,,,,,,,,,,,0,0,0,,-2128,15636,3344,-46,116,-215
14.141,14.12,1.76,6.91,-2.56,24.99,-5.10,3.50,-2.02,0.00,0.00,160.00,392.00,57.00,40.00,384.00,1011.00,4095.00,4095.00,,,,,,,,,,,,0,0,0,,-2312,15644,3244,-152,52,-166
14.203,14.18,1.67,3.66,-4.04,7.38,-6.33,-0.09,1.66,0.00,0.00,184.00,464.00,84.00,83.00,336.00,1056.00,4095.00,4095.00,,,,,,,,,,,,0,0,0,,-2244,15592,3232,-163,66,-195
14.265,14.23,1.67,-6.46,6.06,-16.38,12.00,1.75,0.60,0.00,0.00,128.00,528.00,48.00,130.00,344.00,1010.00,4095.00,4095.00,,,,,,,,,,,,0,0,0,,-2316,15512,3180,-173,119,-145
14.325,14.29,1.70,4.13,-2.08,2.37,3.86,2.16,-2.23,0.00,0.00,164.00,432.00,53.00,77.00,398.00,1072.00,4095.00,4095.00,,,,,,,,,,,,0,0,0,,-2344,15544,3272,-201,89,-130
14.366,14.34,1.62,5.72,-7.09,13.25,-13.62,0.17,0.71,0.00,0.00,209.00,464.00,112.00,80.00,352.00,1072.00,4095.00,4095.00,,,,,,,,,,,,0,0,0,,-2216,15616,3364,-189,53,-85
14.449,14.40,1.55,-4.36,3.18,-11.72,5.11,0.31,1.41,0.00,0.00,144.00,525.00,64.00,130.00,338.00,1046.00,4095.00,4095.00,,,,,,,,,,,,0,0,0,,-2312,15632,3360,-95,191,-53
14.47,14.45,1.65,-0.58,2.70,-13.03,18.36,3.49,-1.23,0.00,0.00,138.00,458.00,32.00,96.00,368.00,990.00,4095.00,4095.00,,,,,,,,,,,,0,0,0,,-2164,15628,3460,-220,193,-94
14.531,14.51,1.65,4.74,-2.28,21.89,-7.31,1.66,-0.26,0.00,0.00,164.00,424.00,68.00,48.00,361.00,1037.00,4095.00,4095.00,,,,,,,,,,,,0,0,0,,-2364,15684,3292,-95,30,-159
14.593,14.56,1.54,1.39,-0.70,26.11,-10.29,-0.69,3.46,0.00,0.00,160.00,464.00,74.00,44.00,308.00,1030.00,4095.00,4095.00,,,,,,,,,,,,0,0,0,,-2200,15624,3424,28,86,-148
14.654,14.62,1.65,-5.60,9.61,-30.92,42.49,3.78,-0.51,0.00,0.00,104.00,464.00,12.00,102.00,352.00,960.00,4095.00,4095.00,,,,,,,,,,,,0,0,0,,-2200,15588,3172,-98,239,-122
14.696,14.67,1.74,7.24,-2.67,30.32,-9.03,3.43,-2.00,0.00,0.00,160.00,388.00,64.00,36.00,384.00,1013.00,4095.00,4095.00,,,,,,,,,,,,0,0,0,,-2168,15568,3276,-52,176,-115
14.756,14.73,1.61,2.93,-2.98,7.93,-7.58,-0.79,2.79,0.00,0.00,176.00,464.00,89.00,84.00,320.00,1053.00,4095.00,4095.00,,,,,,,,,,,,0,0,0,,-2204,15584,3316,-88,73,-168
14.817,14.78,1.65,-3.48,5.06,-12.65,10.74,2.47,-0.17,0.00,0.00,128.00,482.00,48.00,116.00,354.00,1002.00,4095.00,4095.00,,,,,,,,,,,,0,0,0,,-2268,15572,3232,-133,68,-197
14.879,14.84,1.77,4.90,-3.22,2.01,2.96,3.98,-3.03,0.00,0.00,172.00,432.00,56.00,80.00,402.00,1019.00,4095.00,4095.00,,,,,,,,,,,,0,0,0,,-2216,15560,3396,-102,125,-164
14.939,14.89,1.66,5.33,-6.51,12.45,-13.35,-0.44,1.50,0.00,0.00,204.00,464.00,112.00,82.00,341.00,1075.00,4095.00,4095.00,,,,,,,,,,,,0,0,0,,-2228,15596,3228,-15,140,-179
14.981,14.95,1.59,-4.25,3.66,-13.19,5.61,0.37,1.83,0.00,0.00,140.00,516.00,64.00,136.00,330.00,1032.00,4095.00,4095.00,,,,,,,,,,,,0,0,0,,-2208,15532,3248,-56,69,-151
15.048,15.00,1.73,0.83,1.43,-8.02,12.55,4.21,-2.73,0.00,0.00,144.00,448.00,40.00,92.00,394.00,1002.00,4095.00,4095.00,,,,,,,,,,,,0,0,0,,-2276,15568,3412,-143,128,-118
15.11,15.06,1.70,5.27,-3.77,17.99,-7.31,1.22,-0.31,0.00,0.00,176.00,432.00,73.00,56.00,365.00,1057.00,4095.00,4095.00,,,,,,,,,,,,0,0,0,,-2180,15620,3288,-151,252,-127
15.213,15.11,1.56,1.25,-0.65,-1.22,-0.59,-1.19,3.63,0.00,0.00,160.00,466.00,72.00,100.00,308.00,1046.00,4095.00,4095.00,,,,,,,,,,,,0,0,0,,-2304,15608,3216,-258,63,-196
15.234,15.17,1.66,-4.39,7.83,-24.27,34.94,3.69,-0.99,0.00,0.00,112.00,464.00,16.00,96.00,362.00,976.00,4095.00,4095.00,,,,,,,,,,,,0,0,0,,-2304,15648,3324,-40,-56,-249
15.255,15.22,1.69,6.32,-2.82,7.34,-3.47,2.26,-0.82,0.00,0.00,164.00,404.00,72.00,77.00,368.00,1028.00,4095.00,4095.00,,,,,,,,,,,,0,0,0,,-2256,15692,3516,-27,175,-179
15.359,15.28,1.54,4.19,-4.42,6.20,-5.03,-1.38,3.70,0.00,0.00,186.00,459.00,80.00,84.00,308.00,1052.00,4095.00,4095.00,,,,,,,,,,,,0,0,0,,-2324,15640,3352,-88,227,-154
15.38,15.33,1.59,-10.49,14.34,-25.70,31.30,2.64,-0.23,0.00,0.00,88.00,496.00,20.00,112.00,354.00,997.00,4095.00,4095.00,,,,,,,,,,,,0,0,0,,-2340,15640,3232,-33,63,-203
15.422,15.39,1.66,4.69,-2.38,7.63,-1.39,3.00,-1.95,0.00,0.00,165.00,426.00,64.00,72.00,386.00,1029.00,4095.00,4095.00,,,,,,,,,,,,0,0,0,,-2284,15524,3392,-120,66,-199
15.483,15.44,1.54,5.64,-6.98,14.37,-15.27,-0.77,1.88,0.00,0.00,208.00,464.00,120.00,80.00,336.00,1078.00,4095.00,4095.00,,,,,,,,,,,,0,0,0,,-2236,15572,3240,-199,77,-172
15.546,15.50,1.54,-4.98,4.44,-13.43,5.69,1.48,0.27,0.00,0.00,136.00,520.00,64.00,137.00,352.00,1030.00,4095.00,4095.00,,,,,,,,,,,,0,0,0,,-2344,15492,3324,-72,114,-185
15.587,15.55,1.68,2.40,-0.21,-3.44,11.01,4.30,-3.09,0.00,0.00,153.00,440.00,40.00,80.00,401.00,1008.00,4095.00,4095.00,,,,,,,,,,,,0,0,0,,-2204,15564,3188,-90,65,-152
15.65,15.61,1.65,7.23,-7.51,24.04,-16.23,1.12,-0.03,0.00,0.00,208.00,442.00,106.00,56.00,360.00,1053.00,4095.00,4095.00,,,,,,,,,,,,0,0,0,,-2296,15456,3200,-77,82,-114
15.711,15.66,1.53,0.35,0.36,-6.34,2.74,-0.71,2.54,0.00,0.00,154.00,470.00,66.00,112.00,324.00,1057.00,4095.00,4095.00,,,,,,,,,,,,0,0,0,,-2256,15596,3364,-62,197,-53
15.752,15.72,1.60,-2.79,4.83,-15.53,21.66,2.83,-0.80,0.00,0.00,128.00,472.00,28.00,97.00,364.00,1005.00,4095.00,4095.00,,,,,,,,,,,,0,0,0,,-2256,15644,3288,-215,217,-139
15.813,15.77,1.61,5.44,-2.96,25.80,-10.68,1.83,-0.97,0.00,0.00,168.00,420.00,76.00,45.00,374.00,1050.00,4095.00,4095.00,,,,,,,,,,,,0,0,0,,-2148,15684,3236,-134,63,-176
15.915,15.83,1.46,3.08,-3.03,1.83,-3.56,-1.32,2.97,0.00,0.00,176.00,462.00,80.00,96.00,320.00,1070.00,4095.00,4095.00,,,,,,,,,,,,0,0,0,,-2280,15532,3428,15,8,-168
15.955,15.88,1.55,-8.88,12.19,-29.32,36.63,3.24,-0.74,0.00,0.00,96.00,493.00,16.00,112.00,360.00,987.00,4095.00,4095.00,,,,,,,,,,,,0,0,0,,-2228,15616,3320,-18,228,-172
15.976,15.94,1.64,4.33,-2.37,9.50,-2.02,3.28,-2.14,0.00,0.00,166.00,432.00,64.00,68.00,388.00,1023.00,4095.00,4095.00,,,,,,,,,,,,0,0,0,,-2316,15464,3272,15,178,-58
16.017,15.99,1.46,3.37,-3.95,11.01,-10.77,-1.80,1.58,0.00,0.00,184.00,468.00,100.00,81.00,348.00,1132.00,4095.00,4095.00,,,,,,,,,,,,0,0,0,,-2192,15704,3160,-6,51,-129
16.078,16.05,1.47,-5.71,5.81,-15.87,11.83,1.53,0.04,0.00,0.00,128.00,516.00,48.00,128.00,356.00,1034.00,4095.00,4095.00,,,,,,,,,,,,0,0,0,,-2280,15704,3252,-121,125,-115
16.138,16.10,1.59,4.02,-2.27,2.01,2.96,3.93,-3.10,0.00,0.00,166.00,436.00,56.00,80.00,404.00,1023.00,4095.00,4095.00,,,,,,,,,,,,0,0,0,,-2268,15712,3088,-73,103,-179
16.179,16.16,1.50,6.37,-7.40,17.39,-12.54,-0.27,0.80,0.00,0.00,210.00,456.00,98.00,66.00,353.00,1088.00,4095.00,4095.00,,,,,,,,,,,,0,0,0,,-2240,15576,3212,-14,103,-142
16.281,16.21,1.38,-0.60,1.29,-6.34,2.74,-0.85,2.69,0.00,0.00,149.00,476.00,66.00,112.00,322.00,1058.00,4095.00,4095.00,,,,,,,,,,,,0,0,0,,-2244,15620,3324,-105,118,-138
16.302,16.27,1.37,-1.39,3.24,-20.65,29.60,1.20,-0.46,0.00,0.00,136.00,466.00,20.00,96.00,368.00,1062.00,4095.00,4095.00,,,,,,,,,,,,0,0,0,,-2192,15616,3232,-46,144,-134
16.343,16.32,1.36,4.52,-2.65,22.81,-8.68,1.15,-0.74,0.00,0.00,168.00,432.00,72.00,48.00,374.00,1072.00,4095.00,4095.00,,,,,,,,,,,,0,0,0,,-2232,15696,3224,37,207,-119
16.403,16.38,1.20,1.82,-2.61,-1.72,-2.37,-1.82,3.60,0.00,0.00,176.00,480.00,80.00,107.00,312.00,1073.00,4095.00,4095.00,,,,,,,,,,,,0,0,0,,-2084,15592,3200,-198,153,-94
16.485,16.43,1.31,-7.16,9.95,-12.98,31.14,3.43,-1.21,0.00,0.00,105.00,489.00,16.00,68.00,368.00,992.00,4095.00,4095.00,,,,,,,,,,,,0,0,0,,-2188,15660,3300,-84,119,-160
16.506,16.49,1.35,6.81,-3.53,24.73,-8.27,2.13,-1.56,0.00,0.00,169.00,404.00,68.00,44.00,384.00,1054.00,4095.00,4095.00,,,,,,,,,,,,0,0,0,,-2212,15556,3144,1,119,-193
16.567,16.54,1.26,3.58,-4.02,5.45,-8.90,-0.48,1.46,0.00,0.00,184.00,465.00,100.00,96.00,342.00,1078.00,4095.00,4095.00,,,,,,,,,,,,0,0,0,,-2244,15500,3184,-111,82,-200
16.649,16.60,1.28,-5.23,4.53,-16.88,12.16,1.67,-0.06,0.00,0.00,136.00,524.00,48.00,132.00,357.00,1031.00,4095.00,4095.00,,,,,,,,,,,,0,0,0,,-2184,15492,3156,-33,117,-161
16.71,16.65,1.40,5.12,-3.72,5.46,1.80,3.56,-3.16,0.00,0.00,176.00,434.00,56.00,72.00,408.00,1040.00,4095.00,4095.00,,,,,,,,,,,,0,0,0,,-2260,15644,3288,-107,116,-199
16.73,16.71,1.33,5.36,-6.88,17.04,-14.22,0.05,0.33,0.00,0.00,208.00,468.00,108.00,70.00,360.00,1088.00,4095.00,4095.00,,,,,,,,,,,,0,0,0,,-2208,15652,3144,-115,72,-186
16.792,16.76,1.27,-4.36,3.18,-13.43,5.69,0.09,1.59,0.00,0.00,144.00,525.00,64.00,137.00,336.00,1050.00,4095.00,4095.00,,,,,,,,,,,,0,0,0,,-2308,15552,3200,-66,113,-196
16.852,16.82,1.35,-2.23,4.64,-13.03,18.36,2.90,-1.28,0.00,0.00,128.00,464.00,32.00,96.00,373.00,1015.00,4095.00,4095.00,,,,,,,,,,,,0,0,0,,-2348,15488,3144,-67,159,-152
16.915,16.87,1.33,4.02,-2.27,19.74,-7.12,0.89,-0.35,0.00,0.00,166.00,436.00,70.00,52.00,368.00,1072.00,4095.00,4095.00,,,,,,,,,,,,0,0,0,,-2220,15612,3180,-134,123,-139
17.017,16.93,1.16,0.88,-1.21,-0.16,-2.89,-1.96,3.53,0.00,0.00,166.00,480.00,80.00,102.00,314.00,1081.00,4095.00,4095.00,,,,,,,,,,,,0,0,0,,-2168,15584,3036,-179,99,-104
17.038,16.98,1.24,-4.93,6.74,-29.32,36.63,2.74,-0.98,0.00,0.00,120.00,488.00,16.00,112.00,368.00,1013.00,4095.00,4095.00,,,,,,,,,,,,0,0,0,,-2152,15568,3100,-171,201,-78
17.058,17.04,1.30,7.01,-3.93,inf,inf,2.33,-2.38,0.00,0.00,172.00,405.00,70.00,0.00,400.00,1069.00,4095.00,4095.00,,,,,,,,,,,,0,0,0,,-2128,15672,3252,-304,89,-113
17.119,17.09,1.19,3.24,-4.69,3.37,-5.84,-0.84,1.85,0.00,0.00,192.00,480.00,88.00,96.00,337.00,1082.00,4095.00,4095.00,,,,,,,,,,,,0,0,0,,-2144,15640,3288,-146,-7,-255
17.202,17.15,1.21,-5.07,5.59,-15.21,10.85,1.57,-0.23,0.00,0.00,128.00,506.00,50.00,128.00,361.00,1040.00,4095.00,4095.00,,,,,,,,,,,,0,0,0,,-2232,15552,3420,-39,86,-232
17.223,17.20,1.32,3.68,-1.93,3.69,2.40,3.37,-2.96,0.00,0.00,164.00,438.00,56.00,76.00,405.00,1042.00,4095.00,4095.00,,,,,,,,,,,,0,0,0,,-2244,15596,3308,-113,125,-165
17.284,17.26,1.24,4.95,-6.74,13.25,-13.62,-0.20,0.83,0.00,0.00,208.00,474.00,112.00,80.00,352.00,1084.00,4095.00,4095.00,,,,,,,,,,,,0,0,0,,-2260,15652,3156,-20,166,-230
17.367,17.31,1.19,-4.18,3.12,-12.22,5.28,0.28,1.53,0.00,0.00,144.00,522.00,64.00,132.00,336.00,1044.00,4095.00,4095.00,,,,,,,,,,,,0,0,0,,-2256,15540,3284,-143,63,-167
17.387,17.37,1.30,-0.58,2.70,-5.81,11.81,3.43,-2.00,0.00,0.00,138.00,458.00,40.00,86.00,384.00,1013.00,4095.00,4095.00,,,,,,,,,,,,0,0,0,,-2300,15588,3112,-163,46,-179
17.449,17.42,1.30,4.37,-2.60,23.18,-10.75,1.13,-0.54,0.00,0.00,168.00,434.00,80.00,50.00,370.00,1067.00,4095.00,4095.00,,,,,,,,,,,,0,0,0,,-2292,15552,3236,-104,125,-182
17.51,17.48,1.19,0.38,-0.48,-0.81,0.33,-0.82,2.35,0.00,0.00,161.00,480.00,68.00,96.00,328.00,1067.00,4095.00,4095.00,,,,,,,,,,,,0,0,0,,-2236,15532,3172,-106,83,-163
17.571,17.53,1.28,-5.91,8.34,-25.60,33.21,2.99,-1.16,0.00,0.00,112.00,486.00,18.00,106.00,370.00,1008.00,4095.00,4095.00,,,,,,,,,,,,0,0,0,,-2252,15568,3244,-92,72,-130
17.612,17.59,1.32,5.85,-3.21,22.12,-7.66,1.98,-1.79,0.00,0.00,169.00,416.00,69.00,48.00,390.00,1067.00,4095.00,4095.00,,,,,,,,,,,,0,0,0,,-2200,15576,3208,-53,163,-75
17.673,17.64,1.16,3.24,-4.69,15.30,-8.32,-1.86,3.15,0.00,0.00,192.00,480.00,81.00,64.00,320.00,1088.00,4095.00,4095.00,,,,,,,,,,,,0,0,0,,-2172,15680,3092,-180,196,-147
17.776,17.70,1.18,-9.21,12.30,-27.96,32.06,1.62,-0.19,0.00,0.00,96.00,498.00,20.00,120.00,360.00,1037.00,4095.00,4095.00,,,,,,,,,,,,0,0,0,,-2280,15600,3152,-201,69,-150
17.795,17.75,1.28,5.20,-3.74,4.18,-0.23,3.27,-2.69,0.00,0.00,176.00,433.00,64.00,80.00,400.00,1039.00,4095.00,4095.00,,,,,,,,,,,,0,0,0,,-2236,15572,3244,-6,28,-164
17.835,17.81,1.21,5.22,-6.83,12.21,-12.07,-0.28,1.23,0.00,0.00,208.00,470.00,105.00,80.00,345.00,1076.00,4095.00,4095.00,,,,,,,,,,,,0,0,0,,-2212,15484,3428,-78,180,-140
17.897,17.86,1.24,-5.07,5.31,-15.08,10.08,1.86,0.14,0.00,0.00,130.00,510.00,52.00,130.00,352.00,1018.00,4095.00,4095.00,,,,,,,,,,,,0,0,0,,-2160,15624,3172,-95,161,-117
17.98,17.92,1.40,2.40,-0.21,-1.90,8.73,4.52,-2.74,0.00,0.00,153.00,440.00,44.00,80.00,392.00,990.00,4095.00,4095.00,,,,,,,,,,,,0,0,0,,-2260,15592,3220,-90,40,-170
18.021,17.97,1.41,6.83,-6.74,18.06,-12.39,1.52,0.10,0.00,0.00,201.00,440.00,96.00,64.00,355.00,1033.00,4095.00,4095.00,,,,,,,,,,,,0,0,0,,-2104,15656,3180,-161,104,-160
18.061,18.03,1.33,0.12,1.17,0.10,0.57,-0.16,2.58,0.00,0.00,148.00,464.00,66.00,92.00,320.00,1033.00,4095.00,4095.00,,,,,,,,,,,,0,0,0,,-2240,15576,3236,-138,88,-159
18.122,18.08,1.44,-4.25,7.62,-23.29,33.49,3.60,-0.86,0.00,0.00,113.00,464.00,17.00,96.00,360.00,976.00,4095.00,4095.00,,,,,,,,,,,,0,0,0,,-2240,15504,3288,-47,123,-129
18.183,18.14,1.48,5.36,-2.49,29.08,-17.93,2.10,-0.86,0.00,0.00,164.00,416.00,106.00,48.00,370.00,1036.00,4095.00,4095.00,,,,,,,,,,,,0,0,0,,-2208,15640,3212,-88,38,-141
18.225,18.19,1.33,2.79,-2.93,6.20,-5.03,-1.45,3.48,0.00,0.00,176.00,466.00,80.00,84.00,312.00,1061.00,4095.00,4095.00,,,,,,,,,,,,0,0,0,,-2256,15648,3188,-75,103,-133
18.285,18.25,1.42,-9.08,12.25,-31.57,37.39,3.07,-0.68,0.00,0.00,96.00,496.00,16.00,120.00,360.00,992.00,4095.00,4095.00,,,,,,,,,,,,0,0,0,,-2140,15592,3132,-96,253,-78
18.367,18.30,1.50,5.27,-3.77,7.71,-2.54,3.02,-1.57,0.00,0.00,176.00,432.00,68.00,74.00,378.00,1018.00,4095.00,4095.00,,,,,,,,,,,,0,0,0,,-2108,15620,3168,-239,151,-156
18.388,18.36,1.43,3.51,-4.78,9.71,-8.39,0.19,1.34,0.00,0.00,192.00,476.00,90.00,80.00,340.00,1053.00,4095.00,4095.00,,,,,,,,,,,,0,0,0,,-2212,15652,3224,-106,-53,-277
18.43,18.41,1.51,-4.68,5.46,-15.97,11.10,2.96,0.09,0.00,0.00,128.00,500.00,50.00,131.00,346.00,976.00,4095.00,4095.00,,,,,,,,,,,,0,0,0,,-2256,15532,3440,12,50,-182
18.512,18.47,1.69,6.25,-2.33,2.96,5.49,5.17,-2.87,0.00,0.00,160.00,400.00,48.00,72.00,390.00,968.00,4095.00,4095.00,,,,,,,,,,,,0,0,0,,-2152,15648,3408,-106,269,-124
18.552,18.52,1.68,7.98,-7.76,26.77,-17.49,1.42,0.71,0.00,0.00,208.00,432.00,108.00,52.00,344.00,1020.00,4095.00,4095.00,,,,,,,,,,,,0,0,0,,-2164,15596,3064,0,144,-117
18.613,18.58,1.62,-0.21,2.30,-1.79,1.78,0.61,3.03,0.00,0.00,140.00,456.00,64.00,96.00,308.00,990.00,4095.00,4095.00,,,,,,,,,,,,0,0,0,,-2108,15572,3212,-139,17,-196
18.655,18.63,1.78,-1.08,4.25,-18.76,30.91,4.74,-1.30,0.00,0.00,128.00,448.00,18.00,86.00,361.00,944.00,4095.00,4095.00,,,,,,,,,,,,0,0,0,,-2212,15592,3220,-179,91,-172
18.716,18.69,1.87,6.25,-2.33,25.27,-7.33,3.52,-1.04,0.00,0.00,160.00,400.00,64.00,42.00,364.00,984.00,4095.00,4095.00,,,,,,,,,,,,0,0,0,,-2280,15612,3344,-96,171,-171
18.777,18.74,1.77,2.03,-1.48,3.77,-0.10,0.00,3.47,0.00,0.00,165.00,462.00,64.00,81.00,304.00,1002.00,4095.00,4095.00,,,,,,,,,,,,0,0,0,,-2296,15660,3268,-41,120,-172
18.861,18.80,1.90,-7.07,10.82,-32.79,43.12,4.33,-0.69,0.00,0.00,100.00,476.00,12.00,108.00,352.00,944.00,4095.00,4095.00,,,,,,,,,,,,0,0,0,,-2224,15524,3216,-93,21,-167
18.881,18.85,1.99,6.55,-2.78,20.42,-3.56,3.58,-1.66,0.00,0.00,163.00,400.00,57.00,46.00,376.00,998.00,4095.00,4095.00,,,,,,,,,,,,0,0,0,,-2208,15584,3284,-120,142,-82
18.942,18.91,1.93,4.35,-5.06,-6.77,2.06,0.77,1.09,0.00,0.00,192.00,464.00,69.00,116.00,341.00,1036.00,4095.00,4095.00,,,,,,,,,,,,0,0,0,,-2152,15548,3252,-179,276,-79
18.982,18.96,1.96,-4.18,4.73,-16.13,11.91,2.68,0.51,0.00,0.00,132.00,500.00,48.00,129.00,340.00,976.00,4095.00,4095.00,,,,,,,,,,,,0,0,0,,-2112,15616,3284,-256,106,-139
19.065,19.02,2.15,4.81,-1.85,3.98,2.97,5.75,-3.53,0.00,0.00,160.00,418.00,54.00,74.00,400.00,963.00,4095.00,4095.00,,,,,,,,,,,,0,0,0,,-2036,15664,3344,-7,-55,-239
19.127,19.07,2.14,7.98,-7.76,18.72,-13.37,1.88,0.56,0.00,0.00,208.00,432.00,100.00,64.00,344.00,1006.00,4095.00,4095.00,,,,,,,,,,,,0,0,0,,-2164,15528,3316,60,160,-167
19.147,19.13,2.14,-2.49,3.61,-10.15,7.05,2.24,1.77,0.00,0.00,136.00,482.00,56.00,116.00,320.00,960.00,4095.00,4095.00,,,,,,,,,,,,0,0,0,,-2136,15632,3136,-42,219,-188
19.229,19.18,2.30,-1.49,6.21,-18.30,32.93,5.23,-1.10,0.00,0.00,116.00,432.00,16.00,80.00,354.00,921.00,4095.00,4095.00,,,,,,,,,,,,0,0,0,,-2196,15656,3176,75,121,-148
19.29,19.24,2.38,6.58,-2.44,34.18,-10.32,3.96,-0.78,0.00,0.00,160.00,396.00,64.00,32.00,356.00,960.00,4095.00,4095.00,,,,,,,,,,,,0,0,0,,-2144,15548,3136,-116,74,-156
19.331,19.29,2.30,3.72,-2.16,4.03,-1.84,0.75,3.47,0.00,0.00,166.00,440.00,70.00,84.00,300.00,973.00,4095.00,4095.00,,,,,,,,,,,,0,0,0,,-2236,15620,3136,-125,150,-171
19.371,19.35,2.45,-6.30,11.13,-29.04,45.22,5.23,-0.73,0.00,0.00,97.00,458.00,10.00,88.00,347.00,912.00,4095.00,4095.00,,,,,,,,,,,,0,0,0,,-2308,15588,3124,-35,137,-169
19.433,19.40,2.56,8.10,-2.96,37.57,-9.00,4.72,-2.23,0.00,0.00,160.00,378.00,56.00,27.00,380.00,969.00,4095.00,4095.00,,,,,,,,,,,,0,0,0,,-2276,15624,3148,-35,100,-178
19.476,19.46,2.51,3.51,-3.59,9.88,-6.73,1.53,1.11,0.00,0.00,180.00,461.00,82.00,76.00,336.00,1005.00,4095.00,4095.00,,,,,,,,,,,,0,0,0,,-2208,15608,3252,-72,118,-100
19.537,19.51,2.52,-3.48,5.06,-14.90,13.10,2.72,0.71,0.00,0.00,128.00,482.00,44.00,119.00,336.00,969.00,4095.00,4095.00,,,,,,,,,,,,0,0,0,,-2196,15628,3264,-36,154,-133
19.598,19.57,2.65,4.16,-1.86,7.33,1.17,5.15,-3.14,0.00,0.00,162.00,429.00,56.00,68.00,396.00,976.00,4095.00,4095.00,,,,,,,,,,,,0,0,0,,-2248,15576,3116,-57,244,-64
19.66,19.62,2.61,6.21,-7.17,12.60,-10.74,1.75,0.82,0.00,0.00,208.00,456.00,97.00,76.00,340.00,1004.00,4095.00,4095.00,,,,,,,,,,,,0,0,0,,-2248,15584,3196,-229,141,-91
19.701,19.68,2.59,-3.43,3.92,-11.21,4.94,2.24,1.77,0.00,0.00,136.00,496.00,64.00,128.00,320.00,960.00,4095.00,4095.00,,,,,,,,,,,,0,0,0,,-2160,15716,3344,-64,93,-195
19.763,19.73,2.73,1.33,2.05,-11.73,23.23,5.42,-1.06,0.00,0.00,138.00,432.00,24.00,80.00,352.00,913.00,4095.00,4095.00,,,,,,,,,,,,0,0,0,,-2228,15692,3344,-22,102,-207
19.827,19.79,2.78,4.55,-0.57,27.52,-9.74,3.78,-0.51,0.00,0.00,150.00,408.00,70.00,41.00,352.00,960.00,4095.00,4095.00,,,,,,,,,,,,0,0,0,,-2204,15596,3268,-42,103,-214
19.887,19.84,2.69,3.05,-1.26,4.68,-0.97,0.95,3.40,0.00,0.00,160.00,441.00,66.00,80.00,300.00,967.00,4095.00,4095.00,,,,,,,,,,,,0,0,0,,-2292,15656,3168,27,134,-211
19.97,19.90,2.82,-4.45,9.22,inf,inf,5.31,-0.65,0.00,0.00,104.00,448.00,0.00,91.00,345.00,907.00,4095.00,4095.00,,,,,,,,,,,,0,0,0,,-2164,15664,3124,-100,113,-163
19.991,19.95,2.92,8.19,-2.99,36.09,-13.14,4.81,-1.87,0.00,0.00,160.00,377.00,72.00,32.00,372.00,956.00,4095.00,4095.00,,,,,,,,,,,,0,0,0,,-2276,15644,3236,-90,110,-180
20.032,20.01,2.83,3.98,-3.54,6.99,-5.30,1.08,2.75,0.00,0.00,178.00,452.00,80.00,82.00,310.00,979.00,4095.00,4095.00,,,,,,,,,,,,0,0,0,,-2200,15608,3240,-4,139,-218
20.094,20.06,2.88,-3.34,5.01,-11.50,10.35,3.90,-0.18,0.00,0.00,128.00,480.00,48.00,112.00,345.00,947.00,4095.00,4095.00,,,,,,,,,,,,0,0,0,,-2184,15584,2876,-79,102,-165
20.154,20.12,3.02,5.68,-3.04,9.32,0.50,5.69,-3.32,0.00,0.00,168.00,417.00,56.00,64.00,396.00,960.00,4095.00,4095.00,,,,,,,,,,,,0,0,0,,-2280,15712,3044,-111,61,-118
20.195,20.17,2.92,4.91,-5.25,17.68,-14.09,0.99,1.24,0.00,0.00,192.00,456.00,106.00,68.00,337.00,1023.00,4095.00,4095.00,,,,,,,,,,,,0,0,0,,-2252,15460,3136,-130,130,-149
20.258,20.23,2.89,-3.46,3.66,-17.86,12.49,2.27,1.53,0.00,0.00,138.00,500.00,48.00,136.00,324.00,965.00,4095.00,4095.00,,,,,,,,,,,,0,0,0,,-2128,15660,3112,-289,141,-111
20.339,20.28,3.06,2.02,1.03,-7.06,16.35,6.34,-3.26,0.00,0.00,144.00,432.00,32.00,80.00,390.00,934.00,4095.00,4095.00,,,,,,,,,,,,0,0,0,,-2224,15696,3312,-291,111,-133
20.36,20.34,3.09,6.17,-3.32,30.32,-9.03,3.58,-0.44,0.00,0.00,169.00,412.00,64.00,36.00,352.00,966.00,4095.00,4095.00,,,,,,,,,,,,0,0,0,,-2200,15680,3328,-74,97,-218
20.42,20.39,3.01,1.71,0.14,1.06,0.82,1.51,2.97,0.00,0.00,152.00,448.00,64.00,88.00,304.00,957.00,4095.00,4095.00,,,,,,,,,,,,0,0,0,,-2268,15604,3156,-94,90,-195
20.481,20.45,3.14,-2.51,7.20,-57.99,84.68,5.68,-1.14,0.00,0.00,112.00,438.00,2.00,96.00,352.00,906.00,4095.00,4095.00,,,,,,,,,,,,0,0,0,,-2160,15596,3280,-81,95,-168
20.544,20.50,3.22,7.84,-3.55,37.40,-11.41,4.71,-1.64,0.00,0.00,166.00,388.00,64.00,29.00,368.00,954.00,4095.00,4095.00,,,,,,,,,,,,0,0,0,,-2132,15584,3248,-60,113,-196
20.583,20.56,3.10,4.01,-3.34,7.78,-6.47,0.83,3.19,0.00,0.00,176.00,449.00,84.00,82.00,304.00,977.00,4095.00,4095.00,,,,,,,,,,,,0,0,0,,-2076,15648,3168,-181,78,-182
20.687,20.61,3.13,-6.89,11.52,-29.32,36.63,3.77,0.14,0.00,0.00,96.00,464.00,16.00,112.00,340.00,944.00,4095.00,4095.00,,,,,,,,,,,,0,0,0,,-2192,15612,3384,-167,56,-204
20.709,20.67,3.26,5.87,-3.33,11.98,-3.43,5.63,-3.12,0.00,0.00,170.00,417.00,66.00,64.00,392.00,957.00,4095.00,4095.00,,,,,,,,,,,,0,0,0,,-2156,15624,3248,-94,128,-181
20.748,20.72,3.15,5.83,-6.77,13.82,-14.46,1.01,1.28,0.00,0.00,205.00,458.00,116.00,80.00,336.00,1021.00,4095.00,4095.00,,,,,,,,,,,,0,0,0,,-2316,15604,3200,-135,67,-151
20.811,20.78,3.12,0.42,-2.13,-13.37,8.14,2.65,0.73,0.00,0.00,176.00,501.00,56.00,128.00,336.00,971.00,4095.00,4095.00,,,,,,,,,,,,0,0,0,,-2244,15648,3024,-101,50,-122
20.872,20.83,3.26,2.30,-0.06,-0.89,6.79,5.97,-3.46,0.00,0.00,152.00,440.00,48.00,81.00,397.00,953.00,4095.00,4095.00,,,,,,,,,,,,0,0,0,,-2200,15684,3272,-74,183,-42
20.933,20.89,3.25,6.77,-5.97,28.78,-17.47,3.04,-0.26,0.00,0.00,193.00,432.00,104.00,48.00,352.00,982.00,4095.00,4095.00,,,,,,,,,,,,0,0,0,,-2264,15588,3216,-219,202,-148
20.995,20.94,3.15,1.41,0.24,-1.79,1.78,1.18,2.71,0.00,0.00,152.00,452.00,64.00,96.00,310.00,976.00,4095.00,4095.00,,,,,,,,,,,,0,0,0,,-2152,15680,3060,-188,31,-188
21.099,21.00,3.26,-2.66,7.25,-18.30,32.93,5.35,-1.04,0.00,0.00,112.00,440.00,16.00,80.00,352.00,915.00,4095.00,4095.00,,,,,,,,,,,,0,0,0,,-2236,15548,3328,-42,46,-177
21.12,21.05,3.30,5.76,-0.48,28.55,-8.43,4.11,-1.03,0.00,0.00,146.00,388.00,64.00,38.00,360.00,961.00,4095.00,4095.00,,,,,,,,,,,,0,0,0,,-2116,15576,3256,-116,190,-129
21.141,21.11,3.16,4.08,-3.37,9.34,-7.85,0.41,3.58,0.00,0.00,176.00,448.00,88.00,80.00,300.00,983.00,4095.00,4095.00,,,,,,,,,,,,0,0,0,,-2200,15644,3068,-95,159,-92
21.182,21.16,3.27,-10.15,15.53,-33.98,43.52,5.46,-1.07,0.00,0.00,82.00,474.00,12.00,112.00,352.00,912.00,4095.00,4095.00,,,,,,,,,,,,0,0,0,,-2152,15532,3120,-107,75,-154
21.245,21.22,3.35,6.07,-3.18,-11.00,30.47,4.85,-1.89,0.00,0.00,168.00,412.00,16.00,64.00,372.00,955.00,4095.00,4095.00,,,,,,,,,,,,0,0,0,,-2216,15636,3272,-158,71,-152
21.308,21.27,3.25,5.58,-6.23,11.42,-10.91,1.36,1.17,0.00,0.00,200.00,456.00,100.00,80.00,336.00,1010.00,4095.00,4095.00,,,,,,,,,,,,0,0,0,,-2188,15660,3152,-110,114,-140
21.35,21.33,3.28,-4.81,5.51,-15.58,10.25,3.75,-0.50,0.00,0.00,128.00,502.00,52.00,132.00,352.00,961.00,4095.00,4095.00,,,,,,,,,,,,0,0,0,,-2224,15552,3328,-56,143,-143
21.432,21.38,3.41,4.33,-2.37,-0.56,6.29,5.98,-3.28,0.00,0.00,166.00,432.00,49.00,81.00,393.00,948.00,4095.00,4095.00,,,,,,,,,,,,0,0,0,,-2232,15712,3216,-144,47,-75
21.473,21.44,3.35,7.54,-7.97,26.77,-17.49,2.08,-0.04,0.00,0.00,212.00,442.00,108.00,52.00,354.00,1014.00,4095.00,4095.00,,,,,,,,,,,,0,0,0,,-2248,15564,3256,-129,149,-66
21.512,21.49,3.23,0.42,0.57,-1.79,1.78,1.00,2.19,0.00,0.00,152.00,466.00,64.00,96.00,320.00,997.00,4095.00,4095.00,,,,,,,,,,,,0,0,0,,-2172,15540,3136,-150,237,-39
21.576,21.55,3.31,-1.66,4.45,-17.69,25.24,4.81,-1.17,0.00,0.00,128.00,456.00,24.00,96.00,358.00,938.00,4095.00,4095.00,,,,,,,,,,,,0,0,0,,-2012,15568,3148,-209,123,-163
21.658,21.60,3.34,9.20,-6.70,36.51,-23.91,3.96,-1.39,0.00,0.00,192.00,400.00,128.00,42.00,368.00,976.00,4095.00,4095.00,,,,,,,,,,,,0,0,0,,-2232,15660,3316,-88,-19,-258
21.699,21.66,3.19,3.33,-2.25,7.39,-5.43,0.33,3.36,0.00,0.00,168.00,448.00,80.00,81.00,304.00,992.00,4095.00,4095.00,,,,,,,,,,,,0,0,0,,-2176,15692,3312,-13,125,-177
21.802,21.71,3.29,-7.12,11.21,-29.32,36.63,5.29,-0.70,0.00,0.00,98.00,472.00,16.00,112.00,346.00,909.00,4095.00,4095.00,,,,,,,,,,,,0,0,0,,-2012,15612,3228,-145,215,-143
21.823,21.77,3.37,7.56,-3.89,18.63,-3.28,4.85,-2.47,0.00,0.00,170.00,396.00,58.00,49.00,384.00,970.00,4095.00,4095.00,,,,,,,,,,,,0,0,0,,-2160,15688,3060,-51,91,-151
21.863,21.82,3.29,4.51,-4.33,10.35,-9.79,1.81,0.58,0.00,0.00,184.00,452.00,96.00,81.00,344.00,1008.00,4095.00,4095.00,,,,,,,,,,,,0,0,0,,-2304,15484,3152,-133,88,-170
21.946,21.88,3.29,-3.19,3.57,-15.87,11.83,3.24,0.10,0.00,0.00,138.00,496.00,48.00,128.00,344.00,965.00,4095.00,4095.00,,,,,,,,,,,,0,0,0,,-2204,15640,3208,-155,109,-165
21.967,21.93,3.41,5.51,-3.42,3.95,4.04,5.58,-3.47,0.00,0.00,172.00,424.00,51.00,72.00,400.00,968.00,4095.00,4095.00,,,,,,,,,,,,0,0,0,,-2212,15632,3348,-43,175,-199
22.028,21.99,3.30,7.47,-7.85,17.04,-14.22,1.35,0.31,0.00,0.00,211.00,442.00,108.00,70.00,352.00,1034.00,4095.00,4095.00,,,,,,,,,,,,0,0,0,,-2172,15596,3148,-26,82,-180
22.091,22.04,3.19,-1.10,1.70,-2.63,1.49,1.00,2.19,0.00,0.00,147.00,480.00,66.00,100.00,320.00,997.00,4095.00,4095.00,,,,,,,,,,,,0,0,0,,-2268,15612,3272,-70,39,-186
22.174,22.10,3.25,-1.69,4.17,-17.69,25.24,4.45,-1.65,0.00,0.00,130.00,460.00,24.00,96.00,370.00,964.00,4095.00,4095.00,,,,,,,,,,,,0,0,0,,-2292,15576,3124,-115,164,-115
22.195,22.15,3.23,4.98,-2.81,27.63,-10.80,2.84,-1.01,0.00,0.00,168.00,426.00,74.00,42.00,368.00,1010.00,4095.00,4095.00,,,,,,,,,,,,0,0,0,,-2160,15708,3120,-181,220,-86
22.235,22.21,3.11,2.65,-2.88,1.00,-2.33,0.74,2.28,0.00,0.00,176.00,468.00,76.00,96.00,320.00,1005.00,4095.00,4095.00,,,,,,,,,,,,0,0,0,,-2144,15664,3300,-221,79,-150
22.341,22.26,3.19,-5.82,8.98,-31.48,39.83,4.84,-1.28,0.00,0.00,108.00,476.00,14.00,112.00,360.00,940.00,4095.00,4095.00,,,,,,,,,,,,0,0,0,,-2168,15616,3292,4,-30,-260
22.361,22.32,3.27,8.05,-3.95,30.32,-9.03,4.73,-2.86,0.00,0.00,169.00,389.00,64.00,36.00,393.00,985.00,4095.00,4095.00,,,,,,,,,,,,0,0,0,,-2348,15580,3272,-12,185,-160
22.402,22.37,3.16,3.58,-3.61,7.63,-8.88,1.17,1.23,0.00,0.00,180.00,460.00,96.00,88.00,336.00,1016.00,4095.00,4095.00,,,,,,,,,,,,0,0,0,,-2300,15676,3144,-78,203,-124
22.443,22.43,3.19,-4.36,5.07,-16.55,11.67,3.69,-0.69,0.00,0.00,130.00,499.00,49.00,132.00,356.00,968.00,4095.00,4095.00,,,,,,,,,,,,0,0,0,,-2172,15620,3160,9,84,-162
22.525,22.48,3.31,4.90,-3.22,6.73,-1.09,5.60,-3.57,0.00,0.00,172.00,432.00,64.00,74.00,402.00,970.00,4095.00,4095.00,,,,,,,,,,,,0,0,0,,-2172,15592,3164,-105,152,-155
22.566,22.54,3.19,6.79,-7.36,18.88,-13.60,0.88,0.79,0.00,0.00,208.00,448.00,101.00,64.00,346.00,1040.00,4095.00,4095.00,,,,,,,,,,,,0,0,0,,-2136,15700,3240,-141,78,-139
22.627,22.59,3.09,-2.77,2.64,-11.21,4.94,1.13,2.15,0.00,0.00,144.00,500.00,64.00,128.00,320.00,993.00,4095.00,4095.00,,,,,,,,,,,,0,0,0,,-2224,15672,3080,43,135,-166
22.689,22.65,3.16,-0.63,2.85,-13.27,14.32,4.50,-1.57,0.00,0.00,137.00,457.00,40.00,108.00,368.00,960.00,4095.00,4095.00,,,,,,,,,,,,0,0,0,,-2156,15640,3224,-64,121,-126
22.73,22.70,3.14,5.28,-2.01,24.52,-11.20,2.74,-0.98,0.00,0.00,160.00,412.00,80.00,48.00,368.00,1013.00,4095.00,4095.00,,,,,,,,,,,,0,0,0,,-2088,15648,3308,-60,48,-89
22.791,22.76,2.97,1.55,-1.65,-2.90,-0.28,-0.26,2.61,0.00,0.00,168.00,473.00,73.00,106.00,320.00,1036.00,4095.00,4095.00,,,,,,,,,,,,0,0,0,,-2212,15596,3220,-27,162,-104
22.853,22.81,3.04,-5.50,8.21,-29.32,36.63,4.41,-1.74,0.00,0.00,112.00,480.00,16.00,112.00,372.00,968.00,4095.00,4095.00,,,,,,,,,,,,0,0,0,,-2116,15676,3112,-202,176,-123
22.895,22.87,3.10,7.37,-3.61,27.12,-8.24,4.29,-2.33,0.00,0.00,168.00,396.00,65.00,40.00,385.00,988.00,4095.00,4095.00,,,,,,,,,,,,0,0,0,,-2108,15704,3212,-169,91,-144
22.996,22.92,2.97,-1.61,3.72,9.05,-10.11,0.55,1.28,0.00,0.00,133.00,464.00,100.00,86.00,339.00,1040.00,4095.00,4095.00,,,,,,,,,,,,0,0,0,,-2268,15544,3272,20,77,-222
23.016,22.98,2.98,-3.91,4.64,-15.87,11.83,3.12,-0.49,0.00,0.00,132.00,496.00,48.00,128.00,356.00,985.00,4095.00,4095.00,,,,,,,,,,,,0,0,0,,-2168,15596,3136,-14,132,-220
23.057,23.03,3.08,4.90,-3.22,5.86,-0.80,4.88,-3.24,0.00,0.00,172.00,432.00,64.00,76.00,400.00,989.00,4095.00,4095.00,,,,,,,,,,,,0,0,0,,-2168,15716,3144,42,171,-218
23.119,23.09,2.96,5.93,-7.07,16.38,-15.32,0.85,0.48,0.00,0.00,208.00,460.00,116.00,74.00,352.00,1050.00,4095.00,4095.00,,,,,,,,,,,,0,0,0,,-2184,15576,2928,42,132,-206
23.182,23.14,2.89,-4.18,3.12,-12.22,5.28,1.43,1.14,0.00,0.00,144.00,522.00,64.00,132.00,336.00,1008.00,4095.00,4095.00,,,,,,,,,,,,0,0,0,,-2080,15612,3032,-114,90,-198
23.265,23.20,2.95,-1.37,4.35,-7.37,15.88,4.12,-1.54,0.00,0.00,128.00,452.00,33.00,82.00,370.00,974.00,4095.00,4095.00,,,,,,,,,,,,0,0,0,,-2184,15620,3200,-156,107,-193
23.326,23.25,2.93,5.51,-3.42,13.39,-5.51,2.50,-1.10,0.00,0.00,172.00,424.00,72.00,64.00,372.00,1026.00,4095.00,4095.00,,,,,,,,,,,,0,0,0,,-2228,15548,3256,-126,80,-153
23.347,23.31,2.74,2.11,-1.84,1.83,-3.56,-0.83,3.27,0.00,0.00,168.00,465.00,80.00,96.00,312.00,1041.00,4095.00,4095.00,,,,,,,,,,,,0,0,0,,-2196,15644,3176,-151,93,-128
23.388,23.36,2.80,-5.50,8.21,-24.91,30.13,4.05,-1.52,0.00,0.00,112.00,480.00,21.00,112.00,370.00,976.00,4095.00,4095.00,,,,,,,,,,,,0,0,0,,-2228,15592,3132,-59,123,-180
23.449,23.42,2.79,7.47,-4.50,26.87,-7.87,2.57,-2.27,0.00,0.00,176.00,404.00,64.00,40.00,396.00,1056.00,4095.00,4095.00,,,,,,,,,,,,0,0,0,,-2136,15648,3108,1,183,-131
23.511,23.47,2.68,2.33,-4.57,4.79,-7.92,0.57,0.37,0.00,0.00,194.00,496.00,96.00,96.00,356.00,1065.00,4095.00,4095.00,,,,,,,,,,,,0,0,0,,-2168,15616,3068,-196,152,-112
23.551,23.53,2.70,-4.29,5.05,-16.88,12.16,2.97,-1.05,0.00,0.00,130.00,498.00,48.00,132.00,368.00,1006.00,4095.00,4095.00,,,,,,,,,,,,0,0,0,,-2144,15656,3036,-193,62,-141
23.674,23.58,2.78,5.12,-3.72,5.86,-0.80,4.43,-3.54,0.00,0.00,176.00,434.00,64.00,76.00,410.00,1015.00,4095.00,4095.00,,,,,,,,,,,,0,0,0,,-2260,15700,3248,-137,119,-152
23.695,23.64,2.68,5.64,-6.98,13.54,-14.04,0.78,0.19,0.00,0.00,208.00,464.00,114.00,80.00,358.00,1061.00,4095.00,4095.00,,,,,,,,,,,,0,0,0,,-2208,15636,3200,-196,112,-167
23.716,23.69,2.61,-4.05,3.08,-13.67,5.77,1.17,1.23,0.00,0.00,144.00,520.00,64.00,138.00,336.00,1016.00,4095.00,4095.00,,,,,,,,,,,,0,0,0,,-2140,15680,3232,-94,113,-126
23.777,23.75,2.66,0.25,1.63,-9.01,14.83,3.74,-1.51,0.00,0.00,144.00,456.00,36.00,90.00,372.00,988.00,4095.00,4095.00,,,,,,,,,,,,0,0,0,,-2156,15636,3080,-108,109,-174
23.84,23.80,2.64,4.52,-2.65,14.27,-6.80,2.18,-0.99,0.00,0.00,168.00,432.00,76.00,64.00,372.00,1036.00,4095.00,4095.00,,,,,,,,,,,,0,0,0,,-2164,15616,3220,-107,61,-190
23.88,23.86,2.47,1.09,-1.06,1.83,-3.56,-0.66,3.10,0.00,0.00,164.00,474.00,80.00,96.00,314.00,1039.00,4095.00,4095.00,,,,,,,,,,,,0,0,0,,-2100,15732,3204,-65,69,-253
23.943,23.91,2.55,-4.94,7.37,-28.13,36.23,3.97,-1.59,0.00,0.00,116.00,480.00,16.00,108.00,372.00,981.00,4095.00,4095.00,,,,,,,,,,,,0,0,0,,-2224,15656,3072,-148,101,-232
24.006,23.97,2.57,6.82,-3.65,19.57,-7.58,2.99,-2.32,0.00,0.00,170.00,405.00,72.00,53.00,394.00,1040.00,4095.00,4095.00,,,,,,,,,,,,0,0,0,,-2200,15540,3176,-130,61,-212
24.069,24.02,2.38,3.24,-4.69,4.79,-7.92,-1.27,2.72,0.00,0.00,192.00,480.00,96.00,96.00,324.00,1075.00,4095.00,4095.00,,,,,,,,,,,,0,0,0,,-2312,15644,3100,-141,62,-150
24.111,24.08,2.35,-3.09,2.75,-11.21,4.94,1.70,-0.43,0.00,0.00,144.00,505.00,64.00,128.00,364.00,1040.00,4095.00,4095.00,,,,,,,,,,,,0,0,0,,-2252,15636,3260,-174,171,-152
24.174,24.13,2.40,4.08,-3.37,4.68,-0.97,3.44,-2.84,0.00,0.00,176.00,448.00,66.00,80.00,402.00,1036.00,4095.00,4095.00,,,,,,,,,,,,0,0,0,,-2164,15640,3076,-217,95,-138
24.276,24.19,2.28,5.25,-7.20,13.54,-14.04,-0.08,1.00,0.00,0.00,212.00,474.00,114.00,80.00,348.00,1074.00,4095.00,4095.00,,,,,,,,,,,,0,0,0,,-2232,15544,3472,-53,2,-183
24.298,24.24,2.23,-3.74,3.49,-15.74,8.29,1.30,0.97,0.00,0.00,140.00,508.00,58.00,140.00,340.00,1018.00,4095.00,4095.00,,,,,,,,,,,,0,0,0,,-2260,15532,3296,-64,154,-162
24.38,24.30,2.35,1.57,0.68,-7.30,12.31,4.77,-2.73,0.00,0.00,148.00,444.00,40.00,90.00,390.00,980.00,4095.00,4095.00,,,,,,,,,,,,0,0,0,,-2264,15540,3052,-107,190,-117
24.401,24.35,2.34,4.64,-2.91,24.52,-11.20,2.15,-0.83,0.00,0.00,170.00,433.00,80.00,48.00,369.00,1033.00,4095.00,4095.00,,,,,,,,,,,,0,0,0,,-2192,15636,3040,-100,91,-170
24.442,24.41,2.21,1.51,-1.20,0.12,-1.04,-0.28,2.51,0.00,0.00,164.00,468.00,72.00,96.00,322.00,1040.00,4095.00,4095.00,,,,,,,,,,,,0,0,0,,-2252,15540,3312,-118,66,-131
24.504,24.46,2.31,-4.81,7.81,-27.51,36.03,4.14,-1.65,0.00,0.00,113.00,472.00,16.00,106.00,372.00,976.00,4095.00,4095.00,,,,,,,,,,,,0,0,0,,-2272,15544,3260,-155,118,-117
24.544,24.52,2.35,6.12,-2.52,23.51,-7.30,3.03,-2.24,0.00,0.00,162.00,404.00,66.00,45.00,392.00,1036.00,4095.00,4095.00,,,,,,,,,,,,0,0,0,,-2164,15656,3204,-34,175,-154
24.626,24.57,2.19,3.10,-4.64,6.90,-8.63,-0.86,2.47,0.00,0.00,192.00,482.00,96.00,90.00,326.00,1065.00,4095.00,4095.00,,,,,,,,,,,,0,0,0,,-2196,15668,3200,-26,77,-180
24.646,24.63,2.18,-4.41,5.37,-14.57,9.91,2.14,-0.42,0.00,0.00,128.00,496.00,52.00,128.00,361.00,1022.00,4095.00,4095.00,,,,,,,,,,,,0,0,0,,-2180,15604,3288,-50,94,-139
24.729,24.68,2.21,3.71,-2.82,6.09,-3.05,2.64,-1.87,0.00,0.00,172.00,448.00,72.00,80.00,387.00,1042.00,4095.00,4095.00,,,,,,,,,,,,0,0,0,,-2112,15756,3112,-83,267,-97
24.769,24.74,2.11,5.15,-7.50,9.91,-12.66,0.31,0.40,0.00,0.00,216.00,480.00,113.00,89.00,357.00,1075.00,4095.00,4095.00,,,,,,,,,,,,0,0,0,,-2116,15680,2996,-249,158,-177
24.83,24.79,2.07,-3.86,3.01,-12.22,5.28,1.23,0.67,0.00,0.00,144.00,517.00,64.00,132.00,346.00,1029.00,4095.00,4095.00,,,,,,,,,,,,0,0,0,,-2200,15664,3148,-71,-84,-252
24.891,24.85,2.23,0.83,1.43,-3.49,9.27,5.25,-3.36,0.00,0.00,144.00,448.00,44.00,84.00,400.00,978.00,4095.00,4095.00,,,,,,,,,,,,0,0,0,,-2228,15628,3468,-36,124,-143
24.953,24.90,2.23,5.27,-3.77,23.69,-9.97,2.23,-0.40,0.00,0.00,176.00,432.00,76.00,48.00,360.00,1018.00,4095.00,4095.00,,,,,,,,,,,,0,0,0,,-2120,15672,3180,-139,251,-134
25.015,24.96,2.09,0.87,0.06,-1.91,0.43,-0.57,3.07,0.00,0.00,155.00,464.00,69.00,100.00,314.00,1036.00,4095.00,4095.00,,,,,,,,,,,,0,0,0,,-2080,15668,3120,-61,78,-168
25.036,25.01,2.22,-4.11,7.41,-22.48,29.31,4.85,-2.08,0.00,0.00,114.00,464.00,21.00,104.00,376.00,960.00,4095.00,4095.00,,,,,,,,,,,,0,0,0,,-2192,15636,3036,-164,8,-228
25.118,25.07,2.28,7.04,-3.50,22.81,-8.68,3.40,-1.99,0.00,0.00,168.00,400.00,72.00,48.00,384.00,1014.00,4095.00,4095.00,,,,,,,,,,,,0,0,0,,-2200,15584,3228,-177,101,-147
25.159,25.12,2.11,3.23,-3.49,4.79,-7.92,-1.15,3.50,0.00,0.00,180.00,465.00,96.00,96.00,310.00,1048.00,4095.00,4095.00,,,,,,,,,,,,0,0,0,,-2128,15536,3192,-89,153,-156
25.221,25.18,2.13,-8.87,9.34,-20.54,18.71,2.41,-0.31,0.00,0.00,112.00,532.00,36.00,128.00,357.00,1008.00,4095.00,4095.00,,,,,,,,,,,,0,0,0,,-2124,15588,3184,-101,62,-165
25.284,25.23,2.19,4.52,-3.51,5.01,-0.51,3.40,-2.79,0.00,0.00,176.00,442.00,64.00,78.00,401.00,1036.00,4095.00,4095.00,,,,,,,,,,,,0,0,0,,-2212,15572,3184,-49,25,-115
25.325,25.29,2.07,7.04,-8.14,66.37,-31.98,-0.13,0.60,0.00,0.00,216.00,453.00,115.00,16.00,356.00,1088.00,4095.00,4095.00,,,,,,,,,,,,0,0,0,,-2152,15660,3420,-8,211,-42
25.386,25.34,2.03,-4.50,3.88,-14.09,8.05,1.10,0.82,0.00,0.00,139.00,518.00,57.00,132.00,344.00,1030.00,4095.00,4095.00,,,,,,,,,,,,0,0,0,,-2160,15664,3080,-172,249,-157
25.428,25.40,2.16,2.83,-1.18,-6.64,13.03,4.78,-3.20,0.00,0.00,160.00,444.00,38.00,86.00,400.00,992.00,4095.00,4095.00,,,,,,,,,,,,0,0,0,,-2120,15596,3204,-93,0,-95
25.469,25.45,2.17,5.43,-3.82,19.47,-9.50,2.32,-0.68,0.00,0.00,176.00,430.00,80.00,56.00,365.00,1022.00,4095.00,4095.00,,,,,,,,,,,,0,0,0,,-2132,15680,3288,29,31,-184
25.53,25.51,2.08,1.55,-0.29,-2.30,1.38,0.44,2.38,0.00,0.00,156.00,456.00,66.00,99.00,320.00,1014.00,4095.00,4095.00,,,,,,,,,,,,0,0,0,,-2256,15628,3112,-43,251,-140
25.591,25.56,2.21,-4.11,7.74,-24.61,35.05,4.65,-1.52,0.00,0.00,112.00,460.00,16.00,97.00,366.00,953.00,4095.00,4095.00,,,,,,,,,,,,0,0,0,,-2152,15612,3000,59,175,-43
25.654,25.62,2.28,5.52,-2.09,27.12,-8.24,3.53,-2.03,0.00,0.00,160.00,409.00,65.00,40.00,384.00,1010.00,4095.00,4095.00,,,,,,,,,,,,0,0,0,,-2192,15608,3140,-53,66,-96
25.694,25.67,2.10,3.39,-3.65,8.11,-7.85,-1.22,3.88,0.00,0.00,181.00,464.00,90.00,84.00,304.00,1040.00,4095.00,4095.00,,,,,,,,,,,,0,0,0,,-2132,15672,3200,-119,177,-136
25.757,25.73,2.16,-8.28,11.98,-23.89,27.32,3.27,-0.75,0.00,0.00,96.00,484.00,24.00,116.00,360.00,986.00,4095.00,4095.00,,,,,,,,,,,,0,0,0,,-2152,15624,3052,-46,119,-146
25.84,25.78,2.26,4.62,-2.80,2.58,0.31,4.13,-2.98,0.00,0.00,169.00,432.00,64.00,84.00,400.00,1012.00,4095.00,4095.00,,,,,,,,,,,,0,0,0,,-2108,15596,3228,-67,116,-179
25.861,25.84,2.14,5.30,-6.95,11.27,-12.95,-0.20,1.26,0.00,0.00,209.00,470.00,112.00,85.00,344.00,1072.00,4095.00,4095.00,,,,,,,,,,,,0,0,0,,-2088,15656,3040,-62,127,-179
25.923,25.89,2.10,-5.33,5.11,-13.67,5.77,1.48,0.27,0.00,0.00,132.00,518.00,64.00,138.00,352.00,1030.00,4095.00,4095.00,,,,,,,,,,,,0,0,0,,-2072,15624,2996,0,128,-201
25.985,25.95,2.23,1.71,0.14,-3.13,8.73,4.57,-3.22,0.00,0.00,152.00,448.00,45.00,84.00,402.00,1001.00,4095.00,4095.00,,,,,,,,,,,,0,0,0,,-2024,15576,2996,-40,207,-170
26.048,26.00,2.21,5.37,-3.90,23.45,-12.59,1.87,-0.38,0.00,0.00,177.00,432.00,88.00,52.00,362.00,1032.00,4095.00,4095.00,,,,,,,,,,,,0,0,0,,-2132,15708,2984,-158,116,-147
26.11,26.06,2.15,1.25,-0.65,0.82,0.33,0.98,1.63,0.00,0.00,160.00,466.00,66.00,90.00,330.00,1013.00,4095.00,4095.00,,,,,,,,,,,,0,0,0,,-2012,15612,3032,-56,95,-200
26.213,26.11,2.27,-4.11,7.41,-24.27,34.94,4.64,-1.62,0.00,0.00,114.00,464.00,16.00,96.00,368.00,956.00,4095.00,4095.00,,,,,,,,,,,,0,0,0,,-2108,15684,3156,-93,68,-220
26.236,26.17,2.32,6.17,-2.31,inf,inf,3.28,-1.36,0.00,0.00,160.00,401.00,69.00,0.00,372.00,1002.00,4095.00,4095.00,,,,,,,,,,,,0,0,0,,-2212,15680,3184,-111,112,-179
26.275,26.22,2.16,4.35,-5.06,7.26,-8.76,-0.95,3.49,0.00,0.00,192.00,464.00,96.00,89.00,309.00,1040.00,4095.00,4095.00,,,,,,,,,,,,0,0,0,,-2136,15772,3188,-62,127,-236
26.337,26.28,2.22,-8.64,13.30,-40.56,53.21,3.40,-0.79,0.00,0.00,90.00,474.00,8.00,112.00,360.00,982.00,4095.00,4095.00,,,,,,,,,,,,0,0,0,,-2284,15664,3092,-156,124,-170
26.379,26.33,2.34,4.52,-2.65,5.86,-0.80,4.62,-3.15,0.00,0.00,168.00,432.00,64.00,76.00,400.00,997.00,4095.00,4095.00,,,,,,,,,,,,0,0,0,,-2324,15672,3104,-113,133,-225
26.421,26.39,2.23,5.43,-6.90,10.98,-13.82,0.06,1.01,0.00,0.00,208.00,467.00,118.00,88.00,347.00,1068.00,4095.00,4095.00,,,,,,,,,,,,0,0,0,,-2228,15660,3100,-110,142,-210
26.483,26.44,2.21,-4.08,4.14,-13.43,5.69,1.87,0.35,0.00,0.00,136.00,506.00,64.00,137.00,348.00,1012.00,4095.00,4095.00,,,,,,,,,,,,0,0,0,,-2268,15576,3000,-157,104,-170
26.586,26.50,2.34,2.13,-0.48,-3.27,7.21,4.75,-3.19,0.00,0.00,156.00,448.00,49.00,88.00,400.00,993.00,4095.00,4095.00,,,,,,,,,,,,0,0,0,,-2060,15664,3100,-163,39,-133
26.607,26.55,2.33,5.75,-5.82,26.15,-16.59,2.15,-0.83,0.00,0.00,195.00,448.00,104.00,52.00,369.00,1033.00,4095.00,4095.00,,,,,,,,,,,,0,0,0,,-2108,15568,3156,-109,160,-130
26.627,26.61,2.22,0.16,1.03,-1.54,1.40,0.28,2.43,0.00,0.00,149.00,465.00,65.00,96.00,320.00,1019.00,4095.00,4095.00,,,,,,,,,,,,0,0,0,,-2060,15716,3136,-262,158,-165
26.69,26.66,2.33,-3.90,7.66,-24.27,34.94,4.34,-1.21,0.00,0.00,112.00,457.00,16.00,96.00,362.00,957.00,4095.00,4095.00,,,,,,,,,,,,0,0,0,,-2208,15672,3120,-148,-5,-241
26.751,26.72,2.37,6.65,-2.92,28.09,-9.67,3.19,-1.38,0.00,0.00,164.00,400.00,69.00,40.00,373.00,1006.00,4095.00,4095.00,,,,,,,,,,,,0,0,0,,-2200,15600,3184,-5,26,-228
26.812,26.77,2.21,3.98,-3.54,3.94,-4.27,-0.93,3.79,0.00,0.00,178.00,452.00,80.00,90.00,304.00,1031.00,4095.00,4095.00,,,,,,,,,,,,0,0,0,,-2160,15624,3152,-144,185,-159
26.876,26.83,2.29,-8.00,11.89,-34.85,43.81,3.76,-0.71,0.00,0.00,96.00,480.00,12.00,115.00,356.00,966.00,4095.00,4095.00,,,,,,,,,,,,0,0,0,,-2132,15716,3084,-88,127,-151
26.939,26.88,2.38,4.49,-1.74,6.73,-1.09,4.25,-2.41,0.00,0.00,160.00,422.00,64.00,74.00,387.00,992.00,4095.00,4095.00,,,,,,,,,,,,0,0,0,,-2256,15584,3092,-139,18,-180
26.96,26.94,2.31,5.03,-6.23,12.73,-13.77,0.82,0.49,0.00,0.00,202.00,466.00,114.00,82.00,352.00,1051.00,4095.00,4095.00,,,,,,,,,,,,0,0,0,,-2176,15736,3124,-175,45,-151
27.023,26.99,2.31,-3.91,3.81,-13.88,8.31,2.46,-0.27,0.00,0.00,138.00,507.00,56.00,130.00,356.00,1005.00,4095.00,4095.00,,,,,,,,,,,,0,0,0,,-2156,15560,3228,-79,116,-197
27.065,27.05,2.45,2.33,-0.79,-1.29,6.92,5.15,-3.33,0.00,0.00,158.00,448.00,48.00,82.00,400.00,981.00,4095.00,4095.00,,,,,,,,,,,,0,0,0,,-2176,15596,3068,-98,102,-190
27.128,27.10,2.42,6.75,-6.62,18.72,-13.37,1.71,-0.33,0.00,0.00,200.00,440.00,100.00,64.00,362.00,1037.00,4095.00,4095.00,,,,,,,,,,,,0,0,0,,-2328,15612,3060,-114,19,-128
27.19,27.16,2.33,0.14,0.67,-1.22,-0.59,0.59,1.87,0.00,0.00,152.00,470.00,72.00,100.00,328.00,1022.00,4095.00,4095.00,,,,,,,,,,,,0,0,0,,-2136,15624,3176,-71,189,-66
27.233,27.21,2.42,-3.28,6.18,-17.71,24.49,4.26,-1.49,0.00,0.00,120.00,464.00,25.00,98.00,368.00,967.00,4095.00,4095.00,,,,,,,,,,,,0,0,0,,-2164,15572,3048,-287,192,-148
27.317,27.27,2.44,5.52,-2.09,28.12,-12.41,2.78,-0.99,0.00,0.00,160.00,409.00,80.00,43.00,368.00,1012.00,4095.00,4095.00,,,,,,,,,,,,0,0,0,,-2288,15580,3100,-138,-36,-188
27.379,27.32,2.26,3.79,-3.27,3.48,-3.17,-1.19,4.06,0.00,0.00,176.00,452.00,76.00,89.00,301.00,1034.00,4095.00,4095.00,,,,,,,,,,,,0,0,0,,-2184,15596,3276,-12,34,-184
27.4,27.38,2.34,-7.45,11.71,-29.61,36.73,3.78,-0.51,0.00,0.00,96.00,472.00,16.00,113.00,352.00,960.00,4095.00,4095.00,,,,,,,,,,,,0,0,0,,-2172,15628,3276,-112,255,-137
27.462,27.43,2.45,4.73,-1.82,10.48,-2.35,4.60,-2.49,0.00,0.00,160.00,419.00,64.00,66.00,386.00,980.00,4095.00,4095.00,,,,,,,,,,,,0,0,0,,-2200,15620,3140,-48,115,-125
27.524,27.49,2.34,5.74,-6.47,12.36,-12.30,0.38,1.50,0.00,0.00,202.00,456.00,106.00,80.00,336.00,1041.00,4095.00,4095.00,,,,,,,,,,,,0,0,0,,-2160,15676,3156,-110,14,-180
27.566,27.54,2.35,-4.41,5.37,-17.67,11.68,2.35,0.83,0.00,0.00,128.00,496.00,50.00,138.00,336.00,980.00,4095.00,4095.00,,,,,,,,,,,,0,0,0,,-2140,15604,3132,-139,81,-149
27.69,27.60,2.48,3.58,-1.44,-0.49,6.65,5.12,-2.94,0.00,0.00,160.00,434.00,48.00,80.00,392.00,972.00,4095.00,4095.00,,,,,,,,,,,,0,0,0,,-2284,15624,3188,-62,178,-168
27.711,27.65,2.49,7.98,-7.76,24.04,-16.23,2.56,-0.56,0.00,0.00,208.00,432.00,106.00,56.00,361.00,1009.00,4095.00,4095.00,,,,,,,,,,,,0,0,0,,-2244,15732,3060,-85,121,-170
27.732,27.71,2.40,0.12,1.17,1.81,0.56,0.69,2.24,0.00,0.00,148.00,464.00,64.00,86.00,321.00,1008.00,4095.00,4095.00,,,,,,,,,,,,0,0,0,,-2204,15584,3192,-51,28,-127
27.793,27.76,2.48,-3.83,6.99,-15.19,21.55,4.10,-1.43,0.00,0.00,116.00,464.00,28.00,96.00,368.00,972.00,4095.00,4095.00,,,,,,,,,,,,0,0,0,,-2184,15676,3152,-78,193,-82
27.855,27.82,2.50,5.56,-2.78,23.69,-9.97,2.79,-1.19,0.00,0.00,166.00,416.00,76.00,48.00,372.00,1017.00,4095.00,4095.00,,,,,,,,,,,,0,0,0,,-1976,15604,3028,-243,263,-171
27.917,27.87,2.33,3.18,-2.85,4.68,-4.52,-0.86,3.64,0.00,0.00,174.00,458.00,80.00,88.00,306.00,1032.00,4095.00,4095.00,,,,,,,,,,,,0,0,0,,-2184,15576,3132,-177,35,-186
27.957,27.93,2.42,-7.67,11.40,-29.32,36.63,4.12,-0.62,0.00,0.00,98.00,480.00,16.00,112.00,352.00,950.00,4095.00,4095.00,,,,,,,,,,,,0,0,0,,-2208,15624,3260,-20,-37,-169
28.038,27.98,2.50,10.18,-9.87,11.48,-2.69,4.02,-1.85,0.00,0.00,224.00,419.00,64.00,64.00,377.00,986.00,4095.00,4095.00,,,,,,,,,,,,0,0,0,,-2204,15548,3100,-96,246,-127
28.08,28.04,2.41,6.32,-6.66,14.70,-11.83,0.69,1.28,0.00,0.00,202.00,448.00,99.00,72.00,338.00,1034.00,4095.00,4095.00,,,,,,,,,,,,0,0,0,,-2200,15604,3020,-68,197,-112
28.123,28.09,2.32,-4.04,4.82,-15.21,10.85,0.60,1.42,0.00,0.00,131.00,496.00,50.00,128.00,336.00,1034.00,4095.00,4095.00,,,,,,,,,,,,0,0,0,,-2208,15676,3084,-121,-16,-179
28.185,28.15,2.51,3.73,-1.49,-0.89,6.79,6.07,-3.68,0.00,0.00,160.00,432.00,48.00,81.00,401.00,955.00,4095.00,4095.00,,,,,,,,,,,,0,0,0,,-2016,15692,3132,-165,94,-200
28.268,28.20,2.48,7.67,-7.30,19.97,-15.21,1.91,0.44,0.00,0.00,204.00,432.00,108.00,64.00,346.00,1008.00,4095.00,4095.00,,,,,,,,,,,,0,0,0,,-2160,15556,3232,-110,139,-175
28.288,28.26,2.40,-0.92,3.35,1.06,0.82,1.03,2.18,0.00,0.00,134.00,456.00,64.00,88.00,320.00,996.00,4095.00,4095.00,,,,,,,,,,,,0,0,0,,-2156,15652,3144,-27,135,-180
28.349,28.31,2.48,-2.69,6.30,-21.42,33.98,3.87,-0.64,0.00,0.00,118.00,452.00,16.00,88.00,354.00,960.00,4095.00,4095.00,,,,,,,,,,,,0,0,0,,-2204,15572,3068,-63,44,-188
28.41,28.37,2.48,5.84,-2.65,31.77,-11.17,2.61,-1.03,0.00,0.00,164.00,410.00,70.00,36.00,370.00,1020.00,4095.00,4095.00,,,,,,,,,,,,0,0,0,,-2132,15596,3228,-87,111,-101
28.452,28.42,2.16,2.56,-2.43,3.94,-4.27,-4.00,7.99,0.00,0.00,172.00,464.00,80.00,90.00,256.00,1040.00,4095.00,4095.00,,,,,,,,,,,,0,0,0,,-2052,15540,3044,-79,289,-79
28.514,28.48,2.26,-8.14,11.94,-63.04,86.38,4.18,-0.90,0.00,0.00,96.00,482.00,2.00,112.00,357.00,955.00,4095.00,4095.00,,,,,,,,,,,,0,0,0,,-2064,15624,3132,-189,141,-157
28.556,28.53,2.35,5.89,-3.97,11.48,-2.69,4.09,-2.22,0.00,0.00,176.00,424.00,64.00,64.00,384.00,993.00,4095.00,4095.00,,,,,,,,,,,,0,0,0,,-2156,15648,3080,-8,-54,-274
28.62,28.59,2.36,5.83,-5.94,11.09,-10.42,2.49,-1.19,0.00,0.00,196.00,448.00,98.00,80.00,374.00,1029.00,4095.00,4095.00,,,,,,,,,,,,0,0,0,,-2200,15676,3164,58,172,-199
28.682,28.64,2.39,-3.43,3.92,-15.87,11.83,3.05,-0.05,0.00,0.00,136.00,496.00,48.00,128.00,348.00,976.00,4095.00,4095.00,,,,,,,,,,,,0,0,0,,-2196,15696,3028,-60,238,-145
28.723,28.70,2.54,5.05,-2.83,1.19,6.08,5.36,-2.84,0.00,0.00,168.00,425.00,48.00,76.00,388.00,960.00,4095.00,4095.00,,,,,,,,,,,,0,0,0,,-2132,15680,3032,14,114,-177
28.784,28.75,2.53,7.98,-7.76,24.34,-16.68,2.24,-0.09,0.00,0.00,208.00,432.00,108.00,56.00,354.00,1009.00,4095.00,4095.00,,,,,,,,,,,,0,0,0,,-2132,15620,3088,-151,71,-168
28.845,28.81,2.43,0.37,2.11,-1.79,1.78,0.64,3.02,0.00,0.00,140.00,448.00,64.00,96.00,308.00,989.00,4095.00,4095.00,,,,,,,,,,,,0,0,0,,-2192,15616,3148,-160,129,-154
28.887,28.86,2.56,-1.08,4.25,-21.42,33.98,4.98,-1.73,0.00,0.00,128.00,448.00,16.00,88.00,368.00,946.00,4095.00,4095.00,,,,,,,,,,,,0,0,0,,-2236,15588,3116,-60,122,-174
28.95,28.92,2.61,6.88,-3.45,30.64,-10.52,3.56,-1.25,0.00,0.00,168.00,402.00,69.00,37.00,368.00,988.00,4095.00,4095.00,,,,,,,,,,,,0,0,0,,-2216,15688,3012,-62,73,-188
29.03,28.97,2.42,3.43,-3.15,5.85,-6.25,-1.22,3.88,0.00,0.00,176.00,457.00,86.00,88.00,304.00,1040.00,4095.00,4095.00,,,,,,,,,,,,0,0,0,,-2044,15616,3128,-59,25,-129
29.051,29.03,2.53,-9.30,13.12,-29.61,36.73,4.54,-1.78,0.00,0.00,92.00,489.00,16.00,113.00,372.00,964.00,4095.00,4095.00,,,,,,,,,,,,0,0,0,,-2232,15560,3128,-33,170,-80
29.153,29.08,2.58,4.13,-2.08,6.73,-1.09,3.60,-2.05,0.00,0.00,164.00,432.00,64.00,74.00,384.00,1008.00,4095.00,4095.00,,,,,,,,,,,,0,0,0,,-2136,15728,3152,-178,243,-168
29.174,29.14,2.45,5.75,-6.65,13.25,-13.62,-0.09,1.66,0.00,0.00,204.00,458.00,112.00,80.00,336.00,1056.00,4095.00,4095.00,,,,,,,,,,,,0,0,0,,-2160,15616,3196,-158,38,-192
29.216,29.19,2.46,-4.41,5.37,-15.87,11.83,2.78,0.20,0.00,0.00,128.00,496.00,48.00,128.00,345.00,980.00,4095.00,4095.00,,,,,,,,,,,,0,0,0,,-2276,15720,3264,-2,-7,-213
29.278,29.25,2.62,4.19,-1.64,5.86,-0.80,5.63,-3.58,0.00,0.00,160.00,426.00,64.00,76.00,402.00,969.00,4095.00,4095.00,,,,,,,,,,,,0,0,0,,-2188,15604,3136,-13,164,-151
29.319,29.30,2.57,8.13,-7.81,20.56,-16.08,1.58,0.55,0.00,0.00,208.00,430.00,112.00,64.00,346.00,1018.00,4095.00,4095.00,,,,,,,,,,,,0,0,0,,-2188,15652,2952,-39,194,-149
29.382,29.36,2.46,0.54,1.53,-0.40,1.31,0.40,3.04,0.00,0.00,144.00,452.00,64.00,92.00,309.00,998.00,4095.00,4095.00,,,,,,,,,,,,0,0,0,,-2252,15604,2984,-79,60,-233
29.463,29.41,2.57,-1.08,4.25,-20.99,29.71,4.70,-1.23,0.00,0.00,128.00,448.00,20.00,97.00,360.00,944.00,4095.00,4095.00,,,,,,,,,,,,0,0,0,,-2232,15744,3112,-142,55,-188
29.524,29.47,2.60,6.81,-2.98,29.53,-9.88,3.13,-1.11,0.00,0.00,164.00,398.00,68.00,38.00,368.00,1001.00,4095.00,4095.00,,,,,,,,,,,,0,0,0,,-2244,15724,3164,-127,75,-155
29.566,29.52,2.45,3.29,-3.10,3.94,-4.27,-0.43,3.38,0.00,0.00,176.00,459.00,80.00,90.00,308.00,1022.00,4095.00,4095.00,,,,,,,,,,,,0,0,0,,-2288,15620,3184,-90,180,-141
29.605,29.58,2.53,-9.73,13.66,-30.75,37.12,4.15,-1.04,0.00,0.00,90.00,490.00,16.00,117.00,360.00,960.00,4095.00,4095.00,,,,,,,,,,,,0,0,0,,-2308,15576,3036,-108,58,-147
29.667,29.63,2.60,5.32,-3.14,9.27,-2.23,3.90,-2.53,0.00,0.00,170.00,424.00,65.00,69.00,392.00,1009.00,4095.00,4095.00,,,,,,,,,,,,0,0,0,,-2160,15628,3272,-140,72,-98
29.707,29.69,2.50,5.22,-6.83,8.39,-9.13,0.62,-0.06,0.00,0.00,208.00,470.00,96.00,86.00,364.00,1075.00,4095.00,4095.00,,,,,,,,,,,,0,0,0,,-2016,15628,3148,-149,246,-79
29.769,29.74,2.50,-4.70,4.90,-14.77,9.63,2.44,-0.06,0.00,0.00,132.00,508.00,53.00,130.00,352.00,1000.00,4095.00,4095.00,,,,,,,,,,,,0,0,0,,-2096,15620,3124,-256,145,-158
29.892,29.80,2.64,4.23,-2.22,1.12,4.28,5.31,-3.38,0.00,0.00,165.00,432.00,53.00,80.00,400.00,976.00,4095.00,4095.00,,,,,,,,,,,,0,0,0,,-2104,15664,3172,-70,-101,-255
29.912,29.85,2.58,7.83,-7.71,20.56,-16.08,1.41,0.29,0.00,0.00,208.00,434.00,112.00,64.00,352.00,1032.00,4095.00,4095.00,,,,,,,,,,,,0,0,0,,-2188,15564,3188,-21,88,-189
29.932,29.91,2.47,-0.99,1.54,-2.13,1.89,0.48,2.65,0.00,0.00,148.00,480.00,64.00,97.00,315.00,1005.00,4095.00,4095.00,,,,,,,,,,,,0,0,0,,-2144,15592,3032,-140,230,-142
30.015,29.96,2.57,-2.68,6.61,-17.05,28.39,4.33,-0.69,0.00,0.00,116.00,448.00,20.00,86.00,352.00,944.00,4095.00,4095.00,,,,,,,,,,,,0,0,0,,-2188,15640,2864,-52,98,-164
30.055,30.02,2.56,6.45,-2.63,25.77,-8.06,2.43,-0.26,0.00,0.00,162.00,400.00,66.00,42.00,356.00,1006.00,4095.00,4095.00,,,,,,,,,,,,1,1,0,,-2080,15636,2972,-176,15,-208
30.117,30.07,2.41,2.66,-2.24,4.68,-4.52,-0.54,3.53,0.00,0.00,170.00,460.00,80.00,88.00,306.00,1022.00,4095.00,4095.00,,,,,,,,,,,,1,1,0,,-2128,15612,3264,-181,94,-190
30.158,30.13,2.48,-9.44,13.77,-31.02,37.21,3.87,-0.33,0.00,0.00,89.00,483.00,16.00,118.00,348.00,952.00,4095.00,4095.00,,,,,,,,,,,,1,1,0,,-2216,15584,3168,-55,160,-179
30.261,30.18,2.53,5.17,-2.20,11.48,-2.69,3.56,-2.04,0.00,0.00,162.00,416.00,64.00,64.00,384.00,1009.00,4095.00,4095.00,,,,,,,,,,,,1,1,0,,-2172,15576,2972,-58,117,-168
30.282,30.24,2.41,4.06,-4.97,11.74,-11.38,0.14,0.93,0.00,0.00,192.00,468.00,102.00,80.00,348.00,1067.00,4095.00,4095.00,,,,,,,,,,,,1,1,0,,-2224,15536,3208,-19,39,-133
30.344,30.29,2.39,-6.09,5.94,-15.27,9.79,1.89,0.39,0.00,0.00,128.00,522.00,53.00,132.00,347.00,1010.00,4095.00,4095.00,,,,,,,,,,,,1,1,0,,-2252,15640,3204,-45,178,-103
30.384,30.35,2.49,2.09,-1.16,0.81,4.73,4.37,-2.79,0.00,0.00,162.00,457.00,52.00,80.00,394.00,997.00,4095.00,4095.00,,,,,,,,,,,,1,1,0,,-2140,15624,2992,-116,277,-142
30.445,30.40,2.41,7.53,-7.61,19.36,-14.30,1.07,0.41,0.00,0.00,208.00,438.00,104.00,64.00,352.00,1043.00,4095.00,4095.00,,,,,,,,,,,,1,1,0,,-2220,15612,3016,-115,42,-155
30.507,30.46,2.30,-0.32,1.82,5.63,-2.38,0.12,3.07,0.00,0.00,144.00,464.00,70.00,80.00,310.00,1008.00,4095.00,4095.00,,,,,,,,,,,,1,1,0,,-2192,15636,3248,10,28,-166
30.548,30.51,2.42,-2.13,5.80,-17.01,27.47,4.60,-1.25,0.00,0.00,120.00,448.00,21.00,88.00,361.00,948.00,4095.00,4095.00,,,,,,,,,,,,1,1,0,,-2128,15632,3196,-40,201,-203
30.63,30.57,2.44,6.08,-2.28,28.78,-10.68,3.00,-1.07,0.00,0.00,160.00,402.00,72.00,40.00,368.00,1005.00,4095.00,4095.00,,,,,,,,,,,,1,1,0,,-2144,15612,3060,-26,122,-84
30.65,30.62,2.29,2.65,-1.58,2.75,-2.92,-0.58,3.67,0.00,0.00,164.00,452.00,76.00,91.00,304.00,1020.00,4095.00,4095.00,,,,,,,,,,,,1,1,0,,-2160,15712,2976,-18,37,-162
30.711,30.68,2.39,-8.44,11.85,-74.28,102.96,4.28,-1.09,0.00,0.00,97.00,489.00,1.00,112.00,360.00,956.00,4095.00,4095.00,,,,,,,,,,,,1,1,0,,-2080,15680,3140,-132,65,-178
30.793,30.73,2.46,5.36,-2.49,11.48,-2.69,3.76,-2.30,0.00,0.00,164.00,416.00,64.00,64.00,388.00,1008.00,4095.00,4095.00,,,,,,,,,,,,1,1,0,,-2204,15660,3160,-52,86,-173
30.815,30.79,2.33,4.49,-5.11,12.05,-11.85,-0.25,1.71,0.00,0.00,192.00,462.00,104.00,80.00,336.00,1061.00,4095.00,4095.00,,,,,,,,,,,,1,1,0,,-2184,15656,2984,31,139,-185
30.877,30.84,2.33,-5.20,5.64,-16.90,9.99,2.37,-0.14,0.00,0.00,128.00,508.00,54.00,140.00,354.00,1005.00,4095.00,4095.00,,,,,,,,,,,,1,1,0,,-2180,15588,3004,-55,141,-134
30.918,30.90,2.44,2.83,-1.18,-1.42,6.21,4.65,-3.39,0.00,0.00,160.00,444.00,50.00,84.00,405.00,1002.00,4095.00,4095.00,,,,,,,,,,,,1,1,0,,-2120,15640,3060,-35,138,-125
30.981,30.95,2.35,6.22,-7.26,26.12,-17.95,0.51,0.49,0.00,0.00,209.00,457.00,112.00,54.00,354.00,1064.00,4095.00,4095.00,,,,,,,,,,,,1,1,0,,-2188,15704,2980,241,187,-52
31.043,31.01,2.23,-0.55,0.90,-15.06,6.24,0.00,2.41,0.00,0.00,152.00,480.00,64.00,144.00,322.00,1031.00,4095.00,4095.00,,,,,,,,,,,,1,1,0,,-2028,15592,2940,15,9,9
31.104,31.06,2.38,-4.39,7.83,-20.65,29.60,5.15,-3.14,0.00,0.00,112.00,464.00,20.00,96.00,396.00,976.00,4095.00,4095.00,,,,,,,,,,,,1,1,0,,-2056,15744,3096,-198,148,-63
31.166,31.12,2.38,6.42,-2.96,33.11,-13.14,2.37,-1.05,0.00,0.00,165.00,404.00,76.00,36.00,372.00,1030.00,4095.00,4095.00,,,,,,,,,,,,1,1,0,,-2060,15896,3024,28,157,-243
31.227,31.17,2.19,1.48,-1.63,3.37,-5.84,-1.34,3.92,0.00,0.00,168.00,474.00,88.00,96.00,304.00,1044.00,4095.00,4095.00,,,,,,,,,,,,1,1,0,,-2056,15732,2964,215,24,-322
31.288,31.23,2.25,-8.68,12.12,-31.02,37.21,3.37,-0.37,0.00,0.00,96.00,490.00,16.00,118.00,352.00,972.00,4095.00,4095.00,,,,,,,,,,,,1,1,0,,-2208,15732,3044,182,102,-311
31.35,31.28,2.31,4.52,-2.65,11.48,-2.69,3.50,-2.02,0.00,0.00,168.00,432.00,64.00,64.00,384.00,1011.00,4095.00,4095.00,,,,,,,,,,,,1,1,0,,-2264,15648,2752,35,168,-279
31.37,31.34,2.20,3.37,-4.73,11.58,-11.15,0.17,0.71,0.00,0.00,192.00,478.00,101.00,80.00,352.00,1072.00,4095.00,4095.00,,,,,,,,,,,,1,1,0,,-2284,15592,2788,-43,131,-248
31.411,31.39,2.18,-3.26,3.60,-16.90,9.99,1.71,0.40,0.00,0.00,138.00,497.00,54.00,140.00,348.00,1017.00,4095.00,4095.00,,,,,,,,,,,,1,1,0,,-2204,15628,2828,-55,90,-206
31.471,31.45,2.29,3.52,-2.54,-0.49,6.65,4.32,-3.23,0.00,0.00,170.00,448.00,48.00,80.00,404.00,1011.00,4095.00,4095.00,,,,,,,,,,,,1,1,0,,-2272,15704,3024,-177,46,-182
31.532,31.50,2.20,5.80,-7.20,20.56,-16.08,0.62,-0.26,0.00,0.00,210.00,464.00,112.00,64.00,368.00,1081.00,4095.00,4095.00,,,,,,,,,,,,1,1,0,,-2208,15684,2960,-47,94,-168
31.593,31.56,2.06,-1.59,1.74,-4.41,2.66,-0.66,2.63,0.00,0.00,148.00,489.00,64.00,104.00,322.00,1052.00,4095.00,4095.00,,,,,,,,,,,,1,1,0,,-2196,15664,2972,124,205,-226
31.655,31.61,2.13,-3.34,5.01,-17.82,22.43,3.46,-1.52,0.00,0.00,128.00,480.00,28.00,104.00,374.00,999.00,4095.00,4095.00,,,,,,,,,,,,1,1,0,,-2180,15808,2804,-237,106,-201
31.716,31.67,2.13,4.94,-3.01,25.50,-12.65,2.10,-1.16,0.00,0.00,170.00,429.00,85.00,48.00,376.00,1044.00,4095.00,4095.00,,,,,,,,,,,,1,1,0,,-2172,15484,2884,-341,43,-178
31.757,31.72,1.98,2.03,-2.68,1.55,-3.93,-0.95,2.84,0.00,0.00,176.00,477.00,82.00,98.00,320.00,1058.00,4095.00,4095.00,,,,,,,,,,,,1,1,0,,-2312,15696,2932,-281,33,-120
31.799,31.78,2.08,-7.25,10.16,-31.02,37.21,3.99,-1.19,0.00,0.00,104.00,488.00,16.00,118.00,364.00,970.00,4095.00,4095.00,,,,,,,,,,,,1,1,0,,-2068,15940,2888,-336,-175,-414
31.86,31.83,2.18,6.12,-4.05,11.48,-2.69,4.20,-3.05,0.00,0.00,176.00,421.00,64.00,64.00,401.00,1011.00,4095.00,4095.00,,,,,,,,,,,,1,1,0,,-2328,15560,3036,-93,-120,-410
31.922,31.89,2.13,6.79,-7.36,11.42,-10.91,1.22,0.35,0.00,0.00,208.00,448.00,100.00,80.00,352.00,1038.00,4095.00,4095.00,,,,,,,,,,,,1,1,0,,-2312,15496,2988,-177,146,-8
31.984,31.94,2.20,-4.96,4.71,-11.21,4.94,3.49,0.23,0.00,0.00,134.00,516.00,64.00,128.00,340.00,952.00,4095.00,4095.00,,,,,,,,,,,,1,1,0,,-2228,15628,3048,-215,445,154
32.045,32.00,2.38,5.27,-3.77,2.96,5.49,5.85,-2.81,0.00,0.00,176.00,432.00,48.00,72.00,384.00,941.00,4095.00,4095.00,,,,,,,,,,,,1,1,0,,-2148,15744,2864,-61,383,60
32.13,32.05,2.40,6.79,-7.36,18.72,-13.37,2.62,0.09,0.00,0.00,208.00,448.00,100.00,64.00,348.00,989.00,4095.00,4095.00,,,,,,,,,,,,1,1,0,,-2136,15700,2880,-110,59,-5
32.149,32.11,2.32,-0.60,1.92,1.21,3.23,0.94,2.91,0.00,0.00,144.00,468.00,56.00,82.00,308.00,980.00,4095.00,4095.00,,,,,,,,,,,,1,1,0,,-2124,15744,3092,-34,17,-53
32.191,32.16,2.47,-2.37,4.69,-22.52,34.35,5.16,-1.79,0.00,0.00,128.00,466.00,16.00,91.00,368.00,941.00,4095.00,4095.00,,,,,,,,,,,,1,1,0,,-2152,15624,3056,109,225,-123
32.253,32.22,2.52,4.54,-1.99,38.55,-11.79,3.65,-1.53,0.00,0.00,162.00,424.00,64.00,28.00,373.00,992.00,4095.00,4095.00,,,,,,,,,,,,1,1,0,,-2192,15724,2720,98,249,-113
32.294,32.27,2.39,1.55,-1.65,3.56,-1.15,-0.09,3.38,0.00,0.00,168.00,473.00,68.00,84.00,306.00,1008.00,4095.00,4095.00,,,,,,,,,,,,1,1,0,,-2060,15652,2684,-117,68,-196
32.354,32.33,2.52,-9.66,13.64,-51.80,69.79,4.95,-1.21,0.00,0.00,90.00,489.00,4.00,112.00,358.00,934.00,4095.00,4095.00,,,,,,,,,,,,1,1,0,,-2240,15728,2864,-121,25,-253
32.458,32.38,2.64,4.75,-3.17,19.31,-3.50,4.90,-2.78,0.00,0.00,172.00,434.00,58.00,48.00,390.00,976.00,4095.00,4095.00,,,,,,,,,,,,1,1,0,,-2212,15824,3056,-183,96,-207
32.48,32.44,2.56,4.20,-5.01,18.03,-13.50,0.95,1.09,0.00,0.00,192.00,466.00,102.00,66.00,340.00,1029.00,4095.00,4095.00,,,,,,,,,,,,1,1,0,,-2040,15700,3096,-82,114,-155
32.54,32.49,2.59,-4.84,4.67,-12.93,10.84,3.20,0.01,0.00,0.00,134.00,514.00,48.00,117.00,346.00,969.00,4095.00,4095.00,,,,,,,,,,,,1,1,0,,-2224,15752,2804,111,96,-175
32.581,32.55,2.74,3.25,-1.56,4.83,4.86,5.63,-3.12,0.00,0.00,162.00,441.00,48.00,68.00,392.00,957.00,4095.00,4095.00,,,,,,,,,,,,1,1,0,,-2092,15748,2984,-66,17,-223
32.623,32.60,2.69,6.48,-6.90,27.65,-15.80,1.83,0.15,0.00,0.00,204.00,448.00,97.00,48.00,352.00,1019.00,4095.00,4095.00,,,,,,,,,,,,1,1,0,,-2148,15672,2840,22,120,-317
32.685,32.66,2.60,-1.43,2.19,-0.40,1.31,0.85,2.71,0.00,0.00,144.00,480.00,64.00,92.00,312.00,989.00,4095.00,4095.00,,,,,,,,,,,,1,1,0,,-2248,15584,2856,-46,101,-187
32.746,32.71,2.71,-5.26,5.66,-14.92,23.55,4.75,-1.50,0.00,0.00,128.00,509.00,25.00,90.00,365.00,949.00,4095.00,4095.00,,,,,,,,,,,,1,1,0,,-2264,15500,3000,-40,-50,-101
32.829,32.77,2.74,4.28,-2.13,28.55,-8.43,3.25,-1.40,0.00,0.00,164.00,430.00,64.00,38.00,373.00,1004.00,4095.00,4095.00,,,,,,,,,,,,1,1,0,,-2296,15752,3080,-58,166,143
32.849,32.82,2.58,0.68,-0.92,3.41,-1.36,-0.33,3.22,0.00,0.00,164.00,480.00,69.00,85.00,310.00,1022.00,4095.00,4095.00,,,,,,,,,,,,1,1,0,,-2084,15860,2796,242,411,-44
32.91,32.88,2.67,-9.04,12.05,-40.56,53.21,4.38,-0.76,0.00,0.00,97.00,498.00,8.00,112.00,353.00,944.00,4095.00,4095.00,,,,,,,,,,,,1,1,0,,-2184,15752,2476,258,175,-131
32.971,32.93,2.77,2.61,-2.01,9.61,0.08,4.62,-2.39,0.00,0.00,168.00,458.00,57.00,64.00,384.00,977.00,4095.00,4095.00,,,,,,,,,,,,1,1,0,,-2032,15928,2720,270,-80,-79
33.033,32.99,2.67,3.32,-4.81,9.34,-7.85,0.75,1.37,0.00,0.00,193.00,480.00,88.00,80.00,336.00,1029.00,4095.00,4095.00,,,,,,,,,,,,1,1,0,,-2196,16016,2680,11,-356,-257
33.096,33.04,2.67,-5.58,5.62,-18.04,15.02,2.76,0.70,0.00,0.00,129.00,516.00,42.00,128.00,336.00,968.00,4095.00,4095.00,,,,,,,,,,,,1,1,0,,-2224,15808,2864,-15,-10,-472
33.22,33.10,2.82,2.67,-1.36,4.83,4.86,5.54,-3.18,0.00,0.00,162.00,449.00,48.00,68.00,394.00,962.00,4095.00,4095.00,,,,,,,,,,,,1,1,0,,-2300,15876,2648,-28,250,-427
33.241,33.15,2.78,6.21,-7.17,26.15,-16.59,2.15,0.04,0.00,0.00,208.00,456.00,104.00,52.00,352.00,1009.00,4095.00,4095.00,,,,,,,,,,,,1,1,0,,-2168,15652,2764,-302,150,-80
33.262,33.21,2.66,-1.43,2.19,-2.08,7.19,0.26,3.38,0.00,0.00,144.00,480.00,48.00,84.00,304.00,994.00,4095.00,4095.00,,,,,,,,,,,,1,1,0,,-2108,15776,2924,-231,77,-14
33.283,33.26,2.76,-2.93,4.87,-21.42,33.98,4.71,-1.28,0.00,0.00,128.00,474.00,16.00,88.00,361.00,945.00,4095.00,4095.00,,,,,,,,,,,,1,1,0,,-2240,15792,2732,132,186,-238
33.366,33.32,2.80,5.46,-4.04,34.18,-10.32,3.48,-1.48,0.00,0.00,178.00,432.00,64.00,32.00,373.00,997.00,4095.00,4095.00,,,,,,,,,,,,1,1,0,,-2228,15820,2620,59,161,-228
33.406,33.37,2.61,1.49,-2.49,7.80,-5.57,-0.88,3.53,0.00,0.00,176.00,485.00,80.00,80.00,308.00,1036.00,4095.00,4095.00,,,,,,,,,,,,1,1,0,,-2184,15720,2604,-169,128,-78
33.448,33.43,2.69,-9.20,11.54,-48.09,68.55,4.12,-0.93,0.00,0.00,100.00,508.00,4.00,100.00,358.00,958.00,4095.00,4095.00,,,,,,,,,,,,1,1,0,,-2240,15700,2580,-173,182,-156
33.55,33.48,2.78,4.08,-3.37,10.48,-2.35,4.56,-2.80,0.00,0.00,176.00,448.00,64.00,66.00,393.00,990.00,4095.00,4095.00,,,,,,,,,,,,1,1,0,,-2188,15668,2856,-421,-31,-199
33.57,33.54,2.68,4.19,-6.49,12.05,-11.85,0.79,0.92,0.00,0.00,208.00,485.00,104.00,80.00,344.00,1040.00,4095.00,4095.00,,,,,,,,,,,,1,1,0,,-2260,15728,2868,-224,-96,-217
33.611,33.59,2.71,-6.45,5.49,-16.99,15.57,3.16,0.02,0.00,0.00,132.00,536.00,40.00,121.00,346.00,970.00,4095.00,4095.00,,,,,,,,,,,,1,1,0,,-2196,15788,2912,-43,78,-184
33.673,33.65,2.83,1.89,-0.87,1.19,6.08,5.19,-2.59,0.00,0.00,160.00,457.00,48.00,76.00,384.00,960.00,4095.00,4095.00,,,,,,,,,,,,1,1,0,,-2200,15684,2772,-106,191,-180
33.735,33.70,2.82,5.93,-7.07,27.48,-15.56,2.71,-0.15,0.00,0.00,208.00,460.00,96.00,48.00,352.00,992.00,4095.00,4095.00,,,,,,,,,,,,1,1,0,,-2112,15840,2676,7,104,-163
33.797,33.76,2.70,-0.06,-0.21,3.37,0.04,0.30,3.37,0.00,0.00,160.00,485.00,64.00,82.00,304.00,993.00,4095.00,4095.00,,,,,,,,,,,,1,1,0,,-2216,15832,2788,-40,41,-177
33.858,33.81,2.79,-4.08,5.26,-21.79,34.10,4.51,-0.96,0.00,0.00,128.00,491.00,16.00,89.00,356.00,944.00,4095.00,4095.00,,,,,,,,,,,,1,1,0,,-2316,15676,2720,-16,132,-265
33.92,33.87,2.80,4.29,-2.58,30.32,-9.03,3.09,-0.89,0.00,0.00,168.00,435.00,64.00,36.00,364.00,997.00,4095.00,4095.00,,,,,,,,,,,,1,1,0,,-2260,15732,2648,3,111,-201
33.941,33.92,2.64,0.75,-2.24,4.43,-0.60,-0.38,3.30,0.00,0.00,176.00,496.00,65.00,80.00,309.00,1022.00,4095.00,4095.00,,,,,,,,,,,,1,1,0,,-2220,15864,2708,184,135,-196
34.003,33.98,2.72,-10.50,12.73,-38.65,50.40,4.08,-1.02,0.00,0.00,96.00,518.00,9.00,112.00,360.00,962.00,4095.00,4095.00,,,,,,,,,,,,1,1,0,,-2332,15536,2584,-3,170,-122
34.064,34.03,2.81,2.93,-2.98,8.43,1.82,4.55,-2.94,0.00,0.00,176.00,464.00,53.00,64.00,396.00,994.00,4095.00,4095.00,,,,,,,,,,,,1,1,0,,-2084,15688,2500,-222,130,-36
34.125,34.09,2.71,3.46,-6.24,14.54,-11.58,0.82,0.81,0.00,0.00,208.00,496.00,98.00,72.00,346.00,1042.00,4095.00,4095.00,,,,,,,,,,,,1,1,0,,-2112,15660,2628,-313,-26,119
34.167,34.14,2.73,-5.12,4.09,-15.87,11.83,3.21,-0.31,0.00,0.00,139.00,528.00,48.00,128.00,352.00,977.00,4095.00,4095.00,,,,,,,,,,,,1,1,0,,-2100,15984,3080,-301,274,-74
34.229,34.20,2.89,1.49,0.21,-3.47,12.97,5.88,-3.06,0.00,0.00,152.00,451.00,36.00,76.00,389.00,946.00,4095.00,4095.00,,,,,,,,,,,,1,1,0,,-2220,15752,2748,-61,366,-117
34.311,34.25,2.91,6.19,-6.80,27.48,-15.56,3.21,-0.31,0.00,0.00,204.00,452.00,96.00,48.00,352.00,977.00,4095.00,4095.00,,,,,,,,,,,,1,1,0,,-2280,15788,2636,-489,-71,-197
34.352,34.31,2.83,-0.85,0.88,-1.42,6.21,1.34,2.48,0.00,0.00,153.00,486.00,50.00,84.00,313.00,976.00,4095.00,4095.00,,,,,,,,,,,,1,1,0,,-2144,15868,2896,455,-13,-511
34.395,34.36,2.92,-4.66,6.96,-21.42,33.98,4.75,-0.83,0.00,0.00,118.00,480.00,16.00,88.00,352.00,932.00,4095.00,4095.00,,,,,,,,,,,,1,1,0,,-2156,15608,2640,145,88,-446
34.454,34.42,2.97,4.37,-2.60,34.18,-10.32,3.76,-1.32,0.00,0.00,168.00,434.00,64.00,32.00,368.00,982.00,4095.00,4095.00,,,,,,,,,,,,1,1,0,,-2432,15708,2892,-13,73,-119
34.496,34.47,2.79,1.28,-2.42,6.97,-4.34,-0.54,3.90,0.00,0.00,176.00,488.00,76.00,80.00,300.00,1012.00,4095.00,4095.00,,,,,,,,,,,,1,1,0,,-2260,15904,2684,115,123,-96
34.558,34.53,2.86,-9.73,12.47,inf,inf,4.09,-0.61,0.00,0.00,96.00,506.00,0.00,112.00,352.00,951.00,4095.00,4095.00,,,,,,,,,,,,1,1,0,,-2272,15572,2756,265,199,-85
34.682,34.58,2.94,2.93,-2.98,7.33,1.17,4.62,-2.59,0.00,0.00,176.00,464.00,56.00,68.00,388.00,982.00,4095.00,4095.00,,,,,,,,,,,,1,1,0,,-2300,15744,2536,-49,142,-39
34.702,34.64,2.85,4.22,-7.36,13.25,-13.62,0.98,1.08,0.00,0.00,218.00,496.00,112.00,80.00,340.00,1028.00,4095.00,4095.00,,,,,,,,,,,,1,1,0,,-2080,15860,2568,-79,218,-134
34.722,34.69,2.87,-5.96,5.33,-15.21,10.85,3.31,0.18,0.00,0.00,132.00,528.00,50.00,128.00,342.00,960.00,4095.00,4095.00,,,,,,,,,,,,1,1,0,,-2088,15860,2520,-374,34,-182
34.783,34.75,3.05,1.13,0.34,-4.95,15.64,6.41,-3.00,0.00,0.00,152.00,456.00,32.00,75.00,384.00,925.00,4095.00,4095.00,,,,,,,,,,,,1,1,0,,-2192,15740,2720,-394,-19,-190
34.846,34.80,3.08,5.49,-5.45,30.44,-14.95,3.75,0.09,0.00,0.00,192.00,448.00,88.00,42.00,341.00,946.00,4095.00,4095.00,,,,,,,,,,,,1,1,0,,-2136,15664,2660,-351,77,-298
34.888,34.86,3.02,0.77,0.21,4.18,-0.23,1.95,2.82,0.00,0.00,154.00,464.00,64.00,80.00,304.00,944.00,4095.00,4095.00,,,,,,,,,,,,1,1,0,,-2256,15748,2720,-373,62,-370
34.949,34.91,3.16,-3.83,6.99,-37.97,61.02,5.67,-0.72,0.00,0.00,116.00,464.00,5.00,82.00,344.00,896.00,4095.00,4095.00,,,,,,,,,,,,1,1,0,,-2284,15900,2740,-264,-5,-289
35.032,34.97,3.25,6.77,-3.85,43.85,-13.86,5.05,-1.55,0.00,0.00,172.00,408.00,65.00,24.00,364.00,939.00,4095.00,4095.00,,,,,,,,,,,,1,1,0,,-2308,15752,3028,-234,68,-276
35.052,35.02,3.12,3.10,-3.85,9.48,-6.13,0.64,4.13,0.00,0.00,184.00,472.00,80.00,76.00,290.00,960.00,4095.00,4095.00,,,,,,,,,,,,1,1,0,,-2360,15816,2748,-67,117,-371
35.135,35.08,3.19,-9.08,12.25,-24.27,34.94,4.52,-0.33,0.00,0.00,96.00,496.00,16.00,96.00,344.00,928.00,4095.00,4095.00,,,,,,,,,,,,1,1,0,,-2352,15708,2768,19,55,-265
35.156,35.13,3.32,3.80,-2.95,10.04,3.11,5.74,-2.77,0.00,0.00,173.00,448.00,48.00,58.00,384.00,944.00,4095.00,4095.00,,,,,,,,,,,,1,1,0,,-2392,15664,2936,-44,-53,-170
35.239,35.19,3.25,4.28,-6.69,18.06,-12.39,1.85,1.00,0.00,0.00,210.00,486.00,96.00,64.00,336.00,995.00,4095.00,4095.00,,,,,,,,,,,,1,1,0,,-2340,15644,2892,2,271,-172
35.3,35.24,3.26,-4.30,3.16,-12.93,10.84,3.59,0.64,0.00,0.00,144.00,524.00,48.00,117.00,332.00,938.00,4095.00,4095.00,,,,,,,,,,,,1,1,0,,-2256,15744,2848,-185,204,-137
35.341,35.30,3.44,1.05,1.10,-3.61,15.19,6.75,-2.47,0.00,0.00,146.00,448.00,32.00,72.00,371.00,900.00,4095.00,4095.00,,,,,,,,,,,,1,1,0,,-2304,15724,2732,-51,-29,-232
35.403,35.35,3.47,5.99,-4.83,47.21,-18.83,4.07,0.26,0.00,0.00,184.00,432.00,80.00,24.00,336.00,930.00,4095.00,4095.00,,,,,,,,,,,,1,1,0,,-2364,15760,2736,-22,23,-177
35.445,35.41,3.42,4.77,-0.89,4.26,1.56,2.54,3.24,0.00,0.00,152.00,408.00,58.00,76.00,294.00,912.00,4095.00,4095.00,,,,,,,,,,,,1,1,0,,-2412,15728,2576,-164,145,-148
35.507,35.46,3.62,-5.03,9.41,-30.35,49.78,7.32,-1.33,0.00,0.00,104.00,456.00,8.00,82.00,345.00,853.00,4095.00,4095.00,,,,,,,,,,,,1,1,0,,-2272,15804,2744,-50,158,-133
35.568,35.52,3.74,7.17,-3.33,49.65,-11.69,6.08,-1.49,0.00,0.00,166.00,396.00,52.00,18.00,356.00,900.00,4095.00,4095.00,,,,,,,,,,,,1,1,0,,-2356,15608,2680,-72,108,-222
35.63,35.57,3.63,3.58,-3.20,12.64,-7.20,1.61,3.80,0.00,0.00,176.00,455.00,80.00,69.00,290.00,932.00,4095.00,4095.00,,,,,,,,,,,,1,1,0,,-2332,15764,2664,-198,103,-241
35.65,35.63,3.72,-6.98,11.17,-30.50,45.71,5.43,-0.20,0.00,0.00,98.00,470.00,10.00,92.00,336.00,892.00,4095.00,4095.00,,,,,,,,,,,,1,1,0,,-2276,15616,2812,-281,71,-157
35.772,35.68,3.86,4.33,-2.37,12.83,-1.00,6.53,-2.65,0.00,0.00,166.00,432.00,57.00,58.00,376.00,912.00,4095.00,4095.00,,,,,,,,,,,,1,1,0,,-2372,15748,2760,-332,35,-183
35.792,35.74,3.79,5.50,-6.93,21.45,-13.72,2.44,1.70,0.00,0.00,208.00,466.00,97.00,58.00,320.00,954.00,4095.00,4095.00,,,,,,,,,,,,1,1,0,,-2360,15756,2960,-251,31,-158
35.813,35.79,3.80,-3.63,3.99,-11.50,10.35,3.92,1.21,0.00,0.00,136.00,499.00,48.00,112.00,320.00,912.00,4095.00,4095.00,,,,,,,,,,,,1,1,0,,-2344,15744,2948,17,123,-222
35.876,35.85,4.00,1.79,1.11,-2.69,14.88,7.76,-2.67,0.00,0.00,144.00,435.00,32.00,70.00,368.00,869.00,4095.00,4095.00,,,,,,,,,,,,1,1,0,,-2268,15600,2804,21,158,-174
35.958,35.90,3.99,6.26,-3.46,34.18,-10.32,3.84,0.55,0.00,0.00,170.00,412.00,64.00,32.00,332.00,931.00,4095.00,4095.00,,,,,,,,,,,,1,1,0,,-2320,15724,2800,303,173,-303
35.979,35.96,3.92,1.27,0.78,8.55,-1.70,2.54,4.40,0.00,0.00,148.00,448.00,64.00,70.00,276.00,884.00,4095.00,4095.00,,,,,,,,,,,,1,1,0,,-2348,15664,2724,221,137,-209
36.04,36.01,4.13,0.11,3.85,inf,inf,8.27,-1.16,0.00,0.00,128.00,432.00,0.00,78.00,336.00,818.00,4095.00,4095.00,,,,,,,,,,,,1,1,0,,-2348,15624,2560,52,87,-242
36.141,36.07,4.28,8.62,-3.13,72.26,-23.13,7.12,-1.63,0.00,0.00,160.00,372.00,64.00,10.00,352.00,867.00,4095.00,4095.00,,,,,,,,,,,,1,1,0,,-2444,15648,2624,57,121,-246
36.162,36.12,4.17,4.67,-3.56,13.62,-5.84,2.08,4.83,0.00,0.00,176.00,440.00,73.00,64.00,272.00,890.00,4095.00,4095.00,,,,,,,,,,,,1,1,0,,-2288,15656,2536,-219,90,-75
36.203,36.18,4.27,-3.83,7.64,-24.27,34.94,6.07,0.48,0.00,0.00,112.00,456.00,16.00,96.00,320.00,854.00,4095.00,4095.00,,,,,,,,,,,,1,1,0,,-2264,15720,2696,-220,131,-97
36.263,36.23,4.44,5.60,-2.12,12.38,2.32,7.80,-2.68,0.00,0.00,160.00,408.00,48.00,54.00,368.00,868.00,4095.00,4095.00,,,,,,,,,,,,1,1,0,,-2380,15692,2664,-230,84,-177
36.324,36.29,4.41,6.48,-6.99,21.62,-13.97,3.70,1.28,0.00,0.00,205.00,449.00,98.00,58.00,320.00,918.00,4095.00,4095.00,,,,,,,,,,,,1,1,0,,-2460,15640,2628,-181,66,-183
36.365,36.34,4.40,-1.95,2.89,-9.01,8.04,4.18,2.07,0.00,0.00,140.00,481.00,52.00,108.00,304.00,882.00,4095.00,4095.00,,,,,,,,,,,,1,1,0,,-2328,15660,2796,-181,107,-143
36.426,36.40,4.59,1.39,2.58,-9.59,27.82,8.36,-2.46,0.00,0.00,134.00,425.00,18.00,65.00,360.00,844.00,4095.00,4095.00,,,,,,,,,,,,1,1,0,,-2324,15832,2640,-249,157,-177
36.509,36.45,4.66,6.65,-2.92,43.59,-13.49,5.88,-0.35,0.00,0.00,164.00,400.00,64.00,24.00,336.00,880.00,4095.00,4095.00,,,,,,,,,,,,1,1,0,,-2296,15704,2756,-270,44,-186
36.528,36.51,4.60,2.02,1.03,7.63,-1.39,3.40,3.98,0.00,0.00,144.00,432.00,64.00,72.00,278.00,864.00,4095.00,4095.00,,,,,,,,,,,,1,1,0,,-2392,15716,2876,-87,25,-211
36.589,36.56,4.80,-2.65,8.61,-23.24,47.39,8.70,-0.97,0.00,0.00,104.00,424.00,8.00,66.00,330.00,800.00,4095.00,4095.00,,,,,,,,,,,,1,1,0,,-2344,15624,2824,-126,165,-186
36.651,36.62,4.93,8.36,-2.34,53.81,-13.45,7.44,-0.88,0.00,0.00,154.00,368.00,53.00,16.00,336.00,839.00,4095.00,4095.00,,,,,,,,,,,,1,1,0,,-2356,15740,2760,-53,91,-119
36.711,36.67,4.82,5.91,-4.19,15.89,-9.19,2.76,4.33,0.00,0.00,178.00,426.00,84.00,64.00,276.00,878.00,4095.00,4095.00,,,,,,,,,,,,1,1,0,,-2456,15720,2740,62,18,-176
36.752,36.73,4.92,-1.08,4.25,-13.03,18.36,6.71,0.74,0.00,0.00,128.00,448.00,32.00,96.00,312.00,827.00,4095.00,4095.00,,,,,,,,,,,,1,1,0,,-2432,15812,2796,114,143,-207
36.813,36.78,5.13,7.33,-2.70,16.90,0.05,9.24,-3.26,0.00,0.00,160.00,387.00,50.00,48.00,370.00,833.00,4095.00,4095.00,,,,,,,,,,,,1,1,0,,-2516,15632,2592,88,267,-207
36.874,36.84,5.09,7.80,-6.98,27.48,-15.56,4.26,1.74,0.00,0.00,200.00,426.00,96.00,48.00,309.00,887.00,4095.00,4095.00,,,,,,,,,,,,1,1,0,,-2384,15744,2432,-58,15,-151
36.98,36.89,5.09,-1.20,2.64,-4.41,2.66,5.09,2.19,0.00,0.00,140.00,470.00,64.00,104.00,297.00,848.00,4095.00,4095.00,,,,,,,,,,,,1,1,0,,-2364,15632,2648,-121,-22,-135
37.001,36.95,5.24,1.36,3.14,-1.74,14.56,8.14,-1.33,0.00,0.00,130.00,419.00,32.00,68.00,340.00,826.00,4095.00,4095.00,,,,,,,,,,,,1,1,0,,-2404,15788,2804,-215,210,-36
37.042,37.00,5.33,7.79,-3.08,43.59,-13.49,6.93,-0.71,0.00,0.00,162.00,384.00,64.00,24.00,336.00,852.00,4095.00,4095.00,,,,,,,,,,,,1,1,0,,-2404,15800,2624,-260,241,-120
37.103,37.06,5.24,3.32,-0.88,11.48,-2.69,3.63,4.17,0.00,0.00,156.00,432.00,64.00,64.00,274.00,852.00,4095.00,4095.00,,,,,,,,,,,,1,1,0,,-2316,15780,2612,-123,8,-183
37.163,37.11,5.44,-2.65,8.61,-31.53,50.18,9.12,-0.54,0.00,0.00,104.00,424.00,8.00,85.00,320.00,778.00,4095.00,4095.00,,,,,,,,,,,,1,1,0,,-2336,15684,2848,44,57,-204
37.266,37.17,5.60,11.19,-4.00,53.50,-12.99,8.63,-1.28,0.00,0.00,160.00,344.00,52.00,16.00,336.00,809.00,4095.00,4095.00,,,,,,,,,,,,1,1,0,,-2400,15656,2508,-96,164,-224
37.286,37.22,5.54,6.51,-4.18,18.89,-9.30,4.40,3.78,0.00,0.00,176.00,416.00,80.00,57.00,276.00,835.00,4095.00,4095.00,,,,,,,,,,,,1,1,0,,-2440,15736,2576,-151,0,-115
37.308,37.28,5.65,0.61,3.12,-9.43,17.14,7.87,0.83,0.00,0.00,132.00,432.00,32.00,86.00,304.00,788.00,4095.00,4095.00,,,,,,,,,,,,1,1,0,,-2408,15676,2720,-165,-29,-36
37.368,37.33,5.87,7.79,-3.08,16.90,0.05,10.03,-3.02,0.00,0.00,162.00,384.00,50.00,48.00,360.00,802.00,4095.00,4095.00,,,,,,,,,,,,1,1,0,,-2332,15708,2876,-150,188,-173
37.431,37.39,5.85,8.34,-6.88,27.48,-15.56,5.43,1.65,0.00,0.00,197.00,416.00,96.00,48.00,304.00,849.00,4095.00,4095.00,,,,,,,,,,,,1,1,0,,-2400,15744,2660,150,137,-251
37.491,37.44,5.86,3.91,0.66,-9.36,9.26,6.05,2.12,0.00,0.00,142.00,405.00,49.00,106.00,293.00,818.00,4095.00,4095.00,,,,,,,,,,,,1,1,0,,-2360,15664,2668,-23,20,-171
37.533,37.50,6.01,2.92,2.20,-3.72,22.14,8.95,-0.77,0.00,0.00,133.00,404.00,22.00,60.00,325.00,788.00,4095.00,4095.00,,,,,,,,,,,,1,1,0,,-2484,15700,2508,-20,126,-47
37.593,37.55,6.05,7.53,-3.67,53.01,-16.66,6.81,0.18,0.00,0.00,168.00,394.00,64.00,18.00,321.00,836.00,4095.00,4095.00,,,,,,,,,,,,1,1,0,,-2292,15684,2548,-125,226,-42
37.677,37.61,5.98,3.58,-1.44,11.48,-2.69,4.50,3.68,0.00,0.00,160.00,434.00,64.00,64.00,277.00,834.00,4095.00,4095.00,,,,,,,,,,,,1,1,0,,-2332,15728,2736,-398,95,15
37.698,37.66,6.17,-1.75,6.94,inf,inf,9.93,-0.81,0.00,0.00,112.00,428.00,0.00,80.00,320.00,759.00,4095.00,4095.00,,,,,,,,,,,,1,1,0,,-2280,15724,2756,-306,67,-116
37.781,37.72,6.37,14.05,-9.08,inf,inf,10.08,-1.77,0.00,0.00,200.00,352.00,53.00,0.00,336.00,774.00,4095.00,4095.00,,,,,,,,,,,,1,1,0,,-2216,15932,2828,-232,66,-249
37.823,37.77,6.32,5.48,-2.31,25.31,-12.36,5.41,2.65,0.00,0.00,162.00,412.00,84.00,48.00,288.00,827.00,4095.00,4095.00,,,,,,,,,,,,1,1,0,,-2308,15576,2816,-43,75,-261
37.864,37.83,6.44,0.57,3.70,-5.04,11.55,8.73,0.41,0.00,0.00,128.00,426.00,40.00,84.00,306.00,770.00,4095.00,4095.00,,,,,,,,,,,,1,1,0,,-2264,15688,2816,-53,68,-250
37.904,37.88,6.68,8.16,-2.15,21.72,1.64,11.20,-3.42,0.00,0.00,153.00,369.00,42.00,38.00,360.00,774.00,4095.00,4095.00,,,,,,,,,,,,1,1,0,,-2372,15760,2728,-279,66,-228
37.966,37.94,6.65,8.72,-6.73,32.04,-15.48,6.05,1.44,0.00,0.00,194.00,408.00,88.00,40.00,304.00,833.00,4095.00,4095.00,,,,,,,,,,,,1,1,0,,-2352,15744,2772,-130,126,-298
38.027,37.99,6.63,0.01,2.23,-7.13,8.88,6.37,2.85,0.00,0.00,140.00,453.00,48.00,98.00,280.00,792.00,4095.00,4095.00,,,,,,,,,,,,1,1,0,,-2352,15840,2624,63,95,-360
38.089,38.05,6.79,4.11,1.39,1.37,22.19,9.73,-0.28,0.00,0.00,136.00,394.00,20.00,49.00,312.00,754.00,4095.00,4095.00,,,,,,,,,,,,1,1,0,,-2468,15652,2508,53,-1,-291
38.15,38.10,6.85,7.17,-2.18,56.87,-17.96,7.96,-0.15,0.00,0.00,156.00,384.00,64.00,16.00,320.00,806.00,4095.00,4095.00,,,,,,,,,,,,1,1,0,,-2536,15612,2860,39,36,-265
38.21,38.16,6.56,4.34,-1.69,12.47,-4.14,1.13,9.23,0.00,0.00,160.00,424.00,68.00,64.00,218.00,821.00,4095.00,4095.00,,,,,,,,,,,,1,1,0,,-2484,15596,2604,51,262,-167
38.251,38.21,6.72,-3.05,9.47,-22.24,47.05,9.82,-0.31,0.00,0.00,100.00,421.00,8.00,64.00,312.00,752.00,4095.00,4095.00,,,,,,,,,,,,1,1,0,,-2336,15600,2684,-228,143,-84
38.394,38.27,6.88,10.97,-3.45,inf,inf,9.76,-2.20,0.00,0.00,156.00,342.00,52.00,0.00,346.00,793.00,4095.00,4095.00,,,,,,,,,,,,1,1,0,,-2404,15740,2756,-133,40,-89
38.415,38.32,6.85,7.55,-4.53,22.30,-10.90,6.40,1.69,0.00,0.00,176.00,403.00,82.00,52.00,298.00,816.00,4095.00,4095.00,,,,,,,,,,,,1,1,0,,-2412,15660,2792,-44,113,-162
38.435,38.38,6.92,0.88,3.59,-4.25,11.28,8.21,0.65,0.00,0.00,128.00,422.00,40.00,82.00,305.00,781.00,4095.00,4095.00,,,,,,,,,,,,1,1,0,,-2428,15532,2856,-248,58,-66
38.456,38.43,7.11,9.44,-3.52,27.53,-2.77,10.76,-2.48,0.00,0.00,161.00,364.00,48.00,34.00,345.00,768.00,4095.00,4095.00,,,,,,,,,,,,1,1,0,,-2328,15668,2876,-105,122,-32
38.517,38.49,7.07,10.03,-7.91,40.75,-20.02,6.29,1.85,0.00,0.00,202.00,400.00,96.00,32.00,296.00,816.00,4095.00,4095.00,,,,,,,,,,,,1,1,0,,-2420,15904,2836,-51,182,-182
38.558,38.54,7.08,-0.30,2.60,-5.79,7.68,7.31,2.27,0.00,0.00,138.00,454.00,50.00,96.00,284.00,775.00,4095.00,4095.00,,,,,,,,,,,,1,1,0,,-2400,15656,2720,106,13,-59
38.621,38.60,7.25,3.29,2.78,-1.58,27.30,10.43,-1.21,0.00,0.00,128.00,392.00,16.00,48.00,324.00,752.00,4095.00,4095.00,,,,,,,,,,,,1,1,0,,-2252,15796,2772,374,235,-78
38.702,38.65,7.32,7.24,-2.67,109.51,-33.20,8.65,-0.61,0.00,0.00,160.00,388.00,56.00,3.00,324.00,794.00,4095.00,4095.00,,,,,,,,,,,,1,1,0,,-2332,15756,2708,133,291,-179
38.742,38.71,7.21,4.65,-1.80,18.03,-6.01,5.19,3.99,0.00,0.00,160.00,420.00,68.00,54.00,269.00,805.00,4095.00,4095.00,,,,,,,,,,,,1,1,0,,-2356,15752,2720,-214,164,-128
38.782,38.76,7.37,-2.19,7.76,-14.85,31.77,10.29,-1.05,0.00,0.00,108.00,426.00,16.00,72.00,322.00,753.00,4095.00,4095.00,,,,,,,,,,,,1,1,0,,-2328,15700,2564,-144,130,-153
38.843,38.82,7.49,11.78,-4.88,inf,inf,9.77,-1.88,0.00,0.00,166.00,344.00,64.00,0.00,340.00,786.00,4095.00,4095.00,,,,,,,,,,,,1,1,0,,-2332,15864,2656,-261,29,-229
38.904,38.87,7.44,6.51,-4.18,25.69,-12.93,6.53,1.77,0.00,0.00,176.00,416.00,86.00,48.00,296.00,810.00,4095.00,4095.00,,,,,,,,,,,,1,1,0,,-2384,15780,2548,-79,66,-267
38.965,38.93,7.68,0.11,3.85,-5.15,13.53,12.17,-0.62,0.00,0.00,128.00,432.00,36.00,80.00,304.00,691.00,4095.00,4095.00,,,,,,,,,,,,1,1,0,,-2432,15604,2624,-223,-5,-129
39.027,38.98,7.87,8.98,-3.25,27.35,-0.25,11.59,-2.92,0.00,0.00,160.00,368.00,42.00,32.00,348.00,752.00,4095.00,4095.00,,,,,,,,,,,,1,1,0,,-2516,15728,2728,-110,127,63
39.089,39.04,7.84,10.68,-8.31,41.09,-20.52,7.21,1.05,0.00,0.00,204.00,394.00,98.00,32.00,304.00,804.00,4095.00,4095.00,,,,,,,,,,,,1,1,0,,-2360,15600,2764,-84,183,101
39.15,39.09,7.79,0.67,2.01,-1.56,3.84,6.88,2.81,0.00,0.00,140.00,444.00,57.00,90.00,278.00,777.00,4095.00,4095.00,,,,,,,,,,,,1,1,0,,-2300,15812,2588,-342,133,55
39.17,39.15,8.04,3.63,2.67,-2.25,27.53,12.84,-3.97,0.00,0.00,128.00,388.00,16.00,49.00,360.00,736.00,4095.00,4095.00,,,,,,,,,,,,1,1,0,,-2192,15792,2636,-45,-5,-155
39.232,39.20,8.11,9.34,-3.37,inf,inf,9.32,-0.84,0.00,0.00,160.00,364.00,64.00,0.00,324.00,778.00,4095.00,4095.00,,,,,,,,,,,,1,1,0,,-2148,15796,2696,-209,4,-189
39.292,39.26,7.94,4.96,-1.90,13.84,-6.16,4.76,4.48,0.00,0.00,160.00,416.00,74.00,64.00,264.00,808.00,4095.00,4095.00,,,,,,,,,,,,1,1,0,,-2376,15788,2628,60,209,-302
39.353,39.31,8.06,-3.26,8.82,-38.23,65.23,10.27,-0.93,0.00,0.00,104.00,432.00,4.00,74.00,320.00,751.00,4095.00,4095.00,,,,,,,,,,,,1,1,0,,-2360,15620,2616,-134,80,-197
39.435,39.37,8.15,12.17,-5.66,69.20,-18.62,9.87,-2.13,0.00,0.00,172.00,346.00,53.00,10.00,344.00,788.00,4095.00,4095.00,,,,,,,,,,,,1,1,0,,-2096,15768,2660,-241,120,-109
39.456,39.42,8.06,6.69,-4.45,24.52,-11.20,6.46,1.24,0.00,0.00,178.00,416.00,80.00,48.00,305.00,824.00,4095.00,4095.00,,,,,,,,,,,,1,1,0,,-2264,15748,2680,-338,79,-115
39.515,39.48,8.10,-1.23,4.30,-7.46,9.00,8.88,0.49,0.00,0.00,128.00,450.00,48.00,99.00,304.00,764.00,4095.00,4095.00,,,,,,,,,,,,1,1,0,,-2304,15696,2628,36,114,-269
39.557,39.53,8.29,9.08,-4.41,22.21,-0.98,11.74,-3.39,0.00,0.00,170.00,378.00,48.00,40.00,356.00,757.00,4095.00,4095.00,,,,,,,,,,,,1,1,0,,-2140,15728,2676,-46,172,-308
39.619,39.59,8.22,10.68,-8.31,63.44,-27.66,7.03,0.99,0.00,0.00,204.00,394.00,96.00,16.00,306.00,811.00,4095.00,4095.00,,,,,,,,,,,,1,1,0,,-2320,15884,2796,42,163,-362
