Time_Host,Time_Arduino,easingdata,CH1_Oxy,CH1_Deoxy,CH2_Oxy,CH2_Deoxy,CH3_Oxy,CH3_Deoxy,CH4_Oxy,CH4_Deoxy,CH1_PD730,CH1_PD850,CH2_PD730,CH2_PD850,CH3_PD730,CH3_PD850,CH4_PD730,CH4_PD850,Answers,airplane_playstate,trail_times,frameRate,Airplane X,Airplane Y,Correct,Wrong,Slow,AnswerRate,CorrectRate,VFTstates,VFTchoose,VFTCount,Culfstates,ax,ay,az,gx,gy,gz
1.337,0.04,0.00,0.00,0.00,0.00,0.00,0.00,0.00,0.00,0.00,3360.00,4095.00,741.00,1965.00,1088.00,3233.00,1498.00,3093.00,,,,,,,,,,,,0,0,0,,-212,16424,-648,63,215,20
1.357,0.10,0.00,0.00,0.00,0.00,0.00,0.00,0.00,0.00,0.00,3199.00,4095.00,726.00,1958.00,1040.00,3220.00,1485.00,3099.00,,,,,,,,,,,,0,0,0,,-268,16416,-896,40,457,-226
1.377,0.15,0.00,0.00,0.00,0.00,0.00,0.00,0.00,0.00,0.00,3343.00,4095.00,693.00,1980.00,1047.00,3216.00,1507.00,3071.00,,,,,,,,,,,,0,0,0,,-272,16292,-1048,-59,341,-100
1.397,0.21,0.00,0.00,0.00,0.00,0.00,0.00,0.00,0.00,0.00,3279.00,4095.00,722.00,1964.00,1088.00,3233.00,1490.00,3105.00,,,,,,,,,,,,0,0,0,,-312,16216,-876,-189,144,-121
1.419,0.26,0.00,0.00,0.00,0.00,0.00,0.00,0.00,0.00,0.00,3249.00,4095.00,734.00,1975.00,1072.00,3255.00,1488.00,3115.00,,,,,,,,,,,,0,0,0,,-208,16416,-972,-326,101,-115
1.438,0.32,0.00,0.00,0.00,0.00,0.00,0.00,0.00,0.00,0.00,3345.00,4095.00,720.00,1989.00,1081.00,3248.00,1506.00,3107.00,,,,,,,,,,,,0,0,0,,-224,16388,-756,-154,128,-120
1.459,1.06,0.00,0.00,0.00,0.00,0.00,0.00,0.00,0.00,0.00,3312.00,4095.00,725.00,1941.00,1089.00,3271.00,1511.00,3142.00,,,,,,,,,,,,0,0,0,,-484,16256,-1128,254,-157,-364
1.479,1.11,0.00,0.00,0.00,0.00,0.00,0.00,0.00,0.00,0.00,3168.00,4095.00,722.00,1966.00,1072.00,3277.00,1493.00,3150.00,,,,,,,,,,,,0,0,0,,-656,16240,-1188,211,-78,-288
1.539,1.17,0.00,0.00,0.00,0.00,0.00,0.00,0.00,0.00,0.00,3317.00,4095.00,706.00,1984.00,1088.00,3271.00,1517.00,3135.00,,,,,,,,,,,,0,0,0,,-592,16432,-1032,229,54,-112
1.602,1.22,0.00,0.00,0.00,0.00,0.00,0.00,0.00,0.00,0.00,3216.00,4095.00,725.00,1955.00,1095.00,3270.00,1520.00,3152.00,,,,,,,,,,,,0,0,0,,-588,16232,-1060,106,72,-280
1.643,1.28,-0.01,-0.22,0.32,0.58,-0.54,-0.15,0.02,-0.29,0.08,3235.00,4095.00,735.00,1951.00,1078.00,3267.00,1503.00,3146.00,,,,,,,,,,,,0,0,0,,-692,16324,-1176,183,-2,-53
1.704,1.33,-0.00,0.07,-0.11,-0.01,0.01,0.09,0.04,1.39,-0.51,3294.00,4095.00,721.00,1968.00,1072.00,3235.00,1505.00,2991.00,,,,,,,,,,,,0,0,0,,-592,16228,-984,300,29,119
1.746,1.39,0.03,-0.64,0.95,0.24,0.34,0.67,-0.72,0.33,-0.52,3151.00,4095.00,705.00,1931.00,1105.00,3226.00,1535.00,3120.00,,,,,,,,,,,,0,0,0,,-568,16560,-1228,323,160,59
1.867,1.45,0.02,0.16,-0.24,1.31,-1.06,-0.09,-0.07,-0.37,0.07,3312.00,4095.00,746.00,1922.00,1082.00,3267.00,1506.00,3157.00,,,,,,,,,,,,0,0,0,,-452,16392,-1432,260,143,-244
1.888,1.50,0.02,-0.39,0.58,0.02,0.05,-0.09,0.15,-0.17,0.06,3200.00,4095.00,719.00,1963.00,1069.00,3248.00,1501.00,3133.00,,,,,,,,,,,,0,0,0,,-588,16292,-1280,65,109,-167
1.909,1.55,0.05,-0.32,0.48,0.10,0.34,0.59,-0.54,0.68,-0.60,3214.00,4095.00,707.00,1942.00,1096.00,3221.00,1532.00,3083.00,,,,,,,,,,,,0,0,0,,-584,16212,-1388,215,69,38
1.97,1.61,0.05,0.01,-0.01,0.74,-0.37,0.05,-0.19,-0.14,-0.18,3280.00,4095.00,726.00,1930.00,1086.00,3259.00,1520.00,3149.00,,,,,,,,,,,,0,0,0,,-608,16392,-1372,309,245,82
2.031,1.66,0.04,-0.72,1.06,0.22,-0.14,-0.14,0.10,-0.17,0.19,3137.00,4095.00,724.00,1958.00,1073.00,3259.00,1491.00,3122.00,,,,,,,,,,,,0,0,0,,-492,16264,-1436,225,301,127
2.092,1.72,0.05,0.01,-0.01,-0.30,0.47,0.19,-0.27,0.03,-0.24,3280.00,4095.00,707.00,1966.00,1088.00,3248.00,1520.00,3133.00,,,,,,,,,,,,0,0,0,,-404,16404,-1592,138,279,33
2.135,1.77,0.05,-0.38,0.56,0.42,-0.26,0.11,-0.48,-0.17,-0.21,3203.00,4095.00,726.00,1949.00,1102.00,3277.00,1523.00,3155.00,,,,,,,,,,,,0,0,0,,-336,16384,-1632,50,180,-182
2.216,1.83,0.03,-0.34,0.51,0.26,-0.43,-0.40,-0.07,-0.65,0.13,3210.00,4095.00,735.00,1970.00,1088.00,3307.00,1509.00,3187.00,,,,,,,,,,,,0,0,0,,-480,16212,-1688,-67,72,-118
2.237,1.88,0.01,-0.01,0.02,-0.44,0.01,-0.33,-0.03,-0.20,-0.18,3276.00,4095.00,727.00,2002.00,1084.00,3294.00,1522.00,3157.00,,,,,,,,,,,,0,0,0,,-388,16328,-1532,-116,107,-367
2.299,1.94,0.04,-0.67,0.98,0.11,-0.00,0.63,-0.95,0.34,-0.75,3147.00,4095.00,720.00,1959.00,1120.00,3251.00,1554.00,3138.00,,,,,,,,,,,,0,0,0,,-408,16332,-1436,-268,184,-285
2.36,2.00,0.03,0.15,-0.22,1.29,-1.20,-0.08,-0.18,-0.51,0.07,3309.00,4095.00,752.00,1931.00,1088.00,3275.00,1510.00,3175.00,,,,,,,,,,,,0,0,0,,-356,16328,-1280,-311,118,-308
2.403,2.05,0.04,-0.40,0.59,0.09,0.03,0.05,0.00,-0.11,-0.01,3199.00,4095.00,719.00,1959.00,1075.00,3243.00,1505.00,3131.00,,,,,,,,,,,,0,0,0,,-572,16392,-1352,-272,72,-229
2.485,2.10,0.07,-0.38,0.56,0.11,0.44,0.68,-0.70,0.34,-0.52,3203.00,4095.00,703.00,1936.00,1104.00,3223.00,1535.00,3119.00,,,,,,,,,,,,0,0,0,,-492,16464,-1356,-114,163,-248
2.546,2.16,0.07,0.02,-0.02,0.82,-0.37,0.19,-0.27,-0.11,-0.12,3282.00,4095.00,725.00,1924.00,1088.00,3248.00,1514.00,3140.00,,,,,,,,,,,,0,0,0,,-492,16284,-1296,-82,192,-163
2.588,2.21,0.07,-0.64,0.94,1.18,-1.14,-0.07,0.09,-0.29,0.14,3152.00,4095.00,751.00,1936.00,1072.00,3250.00,1498.00,3141.00,,,,,,,,,,,,0,0,0,,-440,16376,-1492,-133,142,-162
2.63,2.27,0.08,0.01,-0.01,0.29,-0.01,0.32,-0.40,0.13,-0.27,3280.00,4095.00,718.00,1946.00,1093.00,3243.00,1520.00,3123.00,,,,,,,,,,,,0,0,0,,-388,16276,-1420,-259,153,-225
2.692,2.33,0.09,-0.37,0.55,-0.40,0.25,0.34,-0.50,-0.17,-0.18,3204.00,4095.00,717.00,1986.00,1099.00,3250.00,1521.00,3153.00,,,,,,,,,,,,0,0,0,,-448,16492,-1356,-198,181,-249
2.733,2.38,0.08,-0.34,0.50,0.30,-0.32,-0.23,-0.09,-0.48,0.07,3211.00,4095.00,730.00,1961.00,1086.00,3287.00,1509.00,3171.00,,,,,,,,,,,,0,0,0,,-480,16388,-1340,-246,208,-226
2.795,2.43,0.06,0.03,-0.04,-0.13,-0.10,-0.22,-0.03,-0.25,-0.12,3284.00,4095.00,727.00,1983.00,1082.00,3280.00,1518.00,3158.00,,,,,,,,,,,,0,0,0,,-480,16180,-1364,-212,147,-174
2.857,2.49,0.08,-0.63,0.93,-0.20,0.23,0.33,-0.77,-0.12,-0.37,3154.00,4095.00,715.00,1971.00,1115.00,3274.00,1535.00,3163.00,,,,,,,,,,,,0,0,0,,-436,16204,-1336,-236,141,-268
2.96,2.54,0.05,0.20,-0.29,0.90,-1.14,-0.41,-0.25,-0.79,0.04,3319.00,4095.00,755.00,1958.00,1099.00,3325.00,1520.00,3212.00,,,,,,,,,,,,0,0,0,,-480,16564,-1340,-105,122,-332
2.981,2.60,0.04,-0.32,0.48,-0.26,0.07,-0.23,0.11,-0.28,0.05,3214.00,4095.00,722.00,1984.00,1074.00,3269.00,1505.00,3147.00,,,,,,,,,,,,0,0,0,,-596,16400,-1336,-35,73,-369
3.022,2.65,0.07,-0.33,0.48,0.09,0.42,0.59,-0.64,0.29,-0.51,3213.00,4095.00,704.00,1939.00,1102.00,3229.00,1535.00,3123.00,,,,,,,,,,,,0,0,0,,-640,16228,-1248,2,-21,-147
3.085,2.71,0.08,0.10,-0.15,0.90,-0.40,0.39,-0.39,-0.14,-0.03,3299.00,4095.00,725.00,1919.00,1091.00,3233.00,1508.00,3137.00,,,,,,,,,,,,0,0,0,,-536,16472,-1224,42,185,-69
3.167,2.77,0.08,-0.65,0.96,0.70,-0.17,0.06,0.05,-0.28,0.22,3150.00,4095.00,719.00,1923.00,1072.00,3237.00,1491.00,3133.00,,,,,,,,,,,,0,0,0,,-580,16536,-1280,30,338,-10
3.187,2.82,0.10,0.07,-0.11,0.20,0.49,0.49,-0.37,0.27,-0.32,3294.00,4095.00,700.00,1927.00,1088.00,3219.00,1520.00,3110.00,,,,,,,,,,,,0,0,0,,-660,16292,-1444,10,263,-358
3.248,2.87,0.12,-0.33,0.49,0.79,-0.15,0.41,-0.39,-0.06,-0.18,3212.00,4095.00,717.00,1915.00,1091.00,3231.00,1518.00,3140.00,,,,,,,,,,,,0,0,0,,-496,16388,-1580,-143,67,-136
3.33,2.93,0.11,-0.30,0.44,0.72,-0.46,0.05,-0.14,-0.29,0.07,3219.00,4095.00,730.00,1936.00,1083.00,3255.00,1504.00,3147.00,,,,,,,,,,,,0,0,0,,-464,16408,-1340,-164,11,-303
3.351,2.98,0.11,0.06,-0.09,0.07,-0.01,0.13,-0.20,0.01,-0.23,3291.00,4095.00,721.00,1963.00,1085.00,3250.00,1520.00,3135.00,,,,,,,,,,,,0,0,0,,-612,16316,-1268,-179,21,-410
3.412,3.04,0.14,-0.65,0.97,0.15,0.32,0.61,-0.78,0.15,-0.46,3149.00,4095.00,707.00,1939.00,1110.00,3239.00,1535.00,3137.00,,,,,,,,,,,,0,0,0,,-704,16324,-1364,-8,-41,-324
3.474,3.10,0.12,0.17,-0.26,1.21,-1.13,-0.18,-0.19,-0.59,0.05,3314.00,4095.00,750.00,1933.00,1091.00,3290.00,1514.00,3187.00,,,,,,,,,,,,0,0,0,,-772,16100,-1388,19,101,-225
3.516,3.15,0.11,-0.38,0.56,-0.15,0.09,-0.22,0.04,-0.30,0.04,3203.00,4095.00,720.00,1975.00,1078.00,3274.00,1506.00,3150.00,,,,,,,,,,,,0,0,0,,-636,16272,-1348,-99,191,-86
3.557,3.20,0.12,-0.31,0.46,-0.10,0.35,0.34,-0.62,0.08,-0.44,3216.00,4095.00,709.00,1957.00,1106.00,3260.00,1535.00,3143.00,,,,,,,,,,,,0,0,0,,-524,16420,-1556,-154,268,-67
3.618,3.26,0.11,0.08,-0.13,0.49,-0.46,-0.00,-0.22,-0.30,-0.05,3296.00,4095.00,733.00,1954.00,1089.00,3269.00,1514.00,3159.00,,,,,,,,,,,,0,0,0,,-648,16212,-1212,-325,134,-241
3.699,3.31,0.11,-0.64,0.94,0.48,-0.13,0.04,0.07,-0.19,0.16,3152.00,4095.00,720.00,1937.00,1071.00,3238.00,1494.00,3127.00,,,,,,,,,,,,0,0,0,,-660,16352,-1340,-197,132,-163
3.719,3.37,0.18,0.13,-0.20,0.22,0.62,1.47,-1.61,0.31,-0.33,3306.00,4095.00,695.00,1919.00,1143.00,3201.00,1520.00,3106.00,,,,,,,,,,,,0,0,0,,-624,16420,-1180,-132,118,-107
3.801,3.42,0.20,-0.30,0.45,0.81,-0.00,0.59,-0.42,0.07,-0.16,3218.00,4095.00,711.00,1906.00,1089.00,3210.00,1513.00,3122.00,,,,,,,,,,,,0,0,0,,-608,16400,-1292,11,301,-431
3.843,3.48,0.20,-0.30,0.45,1.20,-0.55,0.18,-0.15,0.21,-0.19,3218.00,4095.00,727.00,1904.00,1081.00,3239.00,1511.00,3107.00,,,,,,,,,,,,0,0,0,,-460,16324,-1400,-27,198,-334
3.905,3.54,0.20,0.05,-0.07,0.47,-0.07,0.35,-0.10,0.08,-0.18,3289.00,4095.00,718.00,1935.00,1075.00,3213.00,1514.00,3122.00,,,,,,,,,,,,0,0,0,,-648,16224,-1328,-49,281,-291
3.966,3.59,0.23,-0.65,0.97,0.35,0.31,0.78,-0.89,0.34,-0.52,3149.00,4095.00,705.00,1925.00,1113.00,3226.00,1535.00,3119.00,,,,,,,,,,,,0,0,0,,-616,16384,-1472,-131,201,-184
4.069,3.64,0.22,0.20,-0.29,1.61,-1.28,0.05,-0.20,-0.23,-0.07,3319.00,4095.00,751.00,1911.00,1087.00,3261.00,1514.00,3152.00,,,,,,,,,,,,0,0,0,,-600,16408,-1200,-150,127,-170
4.09,3.70,0.22,-0.34,0.50,-0.30,0.21,0.09,-0.01,-0.01,-0.03,3211.00,4095.00,717.00,1980.00,1075.00,3239.00,1504.00,3120.00,,,,,,,,,,,,0,0,0,,-572,16428,-1320,-204,89,-87
4.132,3.75,0.24,-0.32,0.47,0.01,0.50,0.61,-0.65,0.33,-0.52,3215.00,4095.00,702.00,1941.00,1102.00,3227.00,1535.00,3120.00,,,,,,,,,,,,0,0,0,,-724,16352,-1192,-127,153,-110
4.194,3.81,0.23,0.09,-0.13,0.66,-0.36,0.16,-0.26,-0.23,-0.07,3297.00,4095.00,727.00,1936.00,1088.00,3251.00,1514.00,3152.00,,,,,,,,,,,,0,0,0,,-604,16484,-1324,-107,213,-223
4.215,3.87,0.22,-0.63,0.94,0.26,-0.13,-0.11,0.00,-0.32,0.06,3153.00,4095.00,723.00,1954.00,1078.00,3263.00,1505.00,3151.00,,,,,,,,,,,,0,0,0,,-640,16304,-1356,-68,181,-153
4.276,3.92,0.22,0.16,-0.24,-0.23,0.53,0.28,-0.37,0.13,-0.30,3312.00,4095.00,704.00,1958.00,1092.00,3245.00,1522.00,3125.00,,,,,,,,,,,,0,0,0,,-620,16388,-1352,-51,30,-422
4.339,3.98,0.24,-0.31,0.46,0.47,-0.07,0.65,-0.68,0.23,-0.49,3216.00,4095.00,718.00,1935.00,1103.00,3225.00,1535.00,3129.00,,,,,,,,,,,,0,0,0,,-868,16364,-1216,-49,36,-208
4.463,4.03,0.24,-0.25,0.37,1.07,-0.53,0.27,-0.19,-0.21,0.11,3229.00,4095.00,728.00,1913.00,1082.00,3232.00,1498.00,3133.00,,,,,,,,,,,,0,0,0,,-752,16328,-1016,11,95,-4
4.483,4.08,0.25,0.07,-0.10,0.62,-0.17,0.38,-0.08,0.25,-0.20,3293.00,4095.00,720.00,1929.00,1073.00,3207.00,1511.00,3103.00,,,,,,,,,,,,0,0,0,,-692,16308,-1176,-28,294,-12
4.503,4.14,0.28,-0.60,0.89,0.58,0.15,0.93,-0.80,0.36,-0.53,3159.00,4095.00,708.00,1915.00,1105.00,3200.00,1535.00,3117.00,,,,,,,,,,,,0,0,0,,-588,16308,-1312,-59,337,-220
4.564,4.20,0.28,0.25,-0.37,1.70,-1.27,0.27,-0.28,-0.25,0.03,3330.00,4095.00,749.00,1903.00,1087.00,3239.00,1506.00,3145.00,,,,,,,,,,,,0,0,0,,-536,16336,-1244,-96,109,-110
4.606,4.25,0.29,-0.31,0.46,0.25,-0.05,0.34,-0.01,0.04,-0.02,3216.00,4095.00,720.00,1951.00,1070.00,3207.00,1502.00,3114.00,,,,,,,,,,,,0,0,0,,-712,16340,-1236,-162,34,-208
4.667,4.30,0.31,-0.28,0.41,0.09,0.42,0.85,-0.64,0.47,-0.57,3223.00,4095.00,704.00,1939.00,1097.00,3197.00,1535.00,3106.00,,,,,,,,,,,,0,0,0,,-688,16360,-1372,-173,89,-257
4.727,4.36,0.32,0.13,-0.20,0.93,-0.28,0.47,-0.36,-0.13,-0.02,3306.00,4095.00,720.00,1911.00,1088.00,3221.00,1507.00,3135.00,,,,,,,,,,,,0,0,0,,-764,16192,-1316,-118,85,-248
4.789,4.41,0.31,-0.64,0.94,0.48,-0.13,0.11,0.03,-0.22,0.20,3152.00,4095.00,720.00,1937.00,1072.00,3233.00,1491.00,3127.00,,,,,,,,,,,,0,0,0,,-700,16360,-1200,11,36,-173
4.831,4.47,0.32,0.11,-0.16,-0.38,0.58,0.53,-0.42,0.23,-0.30,3301.00,4095.00,704.00,1967.00,1090.00,3218.00,1520.00,3114.00,,,,,,,,,,,,0,0,0,,-704,16300,-1196,93,152,-106
4.894,4.53,0.32,-0.33,0.48,0.47,-0.12,0.37,-0.43,0.06,-0.38,3213.00,4095.00,720.00,1938.00,1094.00,3239.00,1531.00,3141.00,,,,,,,,,,,,0,0,0,,-752,16296,-1220,-36,257,-178
4.957,4.58,0.30,-0.18,0.26,0.85,-0.78,-0.06,-0.23,-0.38,0.01,3243.00,4095.00,741.00,1943.00,1091.00,3278.00,1511.00,3163.00,,,,,,,,,,,,0,0,0,,-616,16396,-1432,-19,200,-132
5.018,4.63,0.30,0.11,-0.16,0.88,-0.44,0.25,-0.26,-0.01,-0.14,3301.00,4095.00,727.00,1923.00,1086.00,3239.00,1513.00,3130.00,,,,,,,,,,,,0,0,0,,-724,16264,-1376,-210,50,-325
5.099,4.69,0.34,-0.56,0.83,0.57,0.08,1.07,-1.00,0.42,-0.55,3167.00,4095.00,711.00,1920.00,1114.00,3199.00,1535.00,3111.00,,,,,,,,,,,,0,0,0,,-784,16176,-1112,-245,-2,-201
5.12,4.75,0.34,0.31,-0.46,1.44,-0.70,0.35,-0.29,-0.13,-0.07,3343.00,4095.00,730.00,1894.00,1086.00,3230.00,1511.00,3139.00,,,,,,,,,,,,0,0,0,,-832,16440,-1040,-182,155,-138
5.162,4.80,0.34,-0.31,0.46,0.40,0.03,0.40,-0.01,0.15,-0.06,3216.00,4095.00,715.00,1935.00,1069.00,3200.00,1502.00,3103.00,,,,,,,,,,,,0,0,0,,-724,16312,-1148,-137,211,69
5.224,4.86,0.37,-0.17,0.25,0.05,0.59,0.96,-0.65,0.49,-0.45,3245.00,4095.00,698.00,1933.00,1095.00,3183.00,1525.00,3094.00,,,,,,,,,,,,0,0,0,,-756,16344,-1336,-87,209,-202
5.286,4.91,0.38,0.12,-0.18,1.10,-0.41,0.49,-0.29,0.09,-0.15,3303.00,4095.00,723.00,1905.00,1083.00,3211.00,1511.00,3118.00,,,,,,,,,,,,0,0,0,,-876,16372,-1260,-32,90,-108
5.328,4.96,0.37,-0.61,0.90,0.79,-0.26,0.26,-0.00,-0.14,0.18,3158.00,4095.00,721.00,1920.00,1071.00,3216.00,1491.00,3119.00,,,,,,,,,,,,0,0,0,,-652,16336,-1264,-112,91,-203
5.39,5.02,0.39,0.18,-0.26,-0.01,0.43,0.67,-0.36,0.38,-0.35,3315.00,4095.00,705.00,1946.00,1084.00,3195.00,1520.00,3100.00,,,,,,,,,,,,0,0,0,,-744,16380,-1288,-87,94,-218
5.474,5.08,0.41,-0.31,0.46,0.83,-0.30,0.79,-0.66,0.13,-0.30,3217.00,4095.00,722.00,1919.00,1099.00,3205.00,1522.00,3125.00,,,,,,,,,,,,0,0,0,,-756,16320,-1312,-189,51,-157
5.535,5.13,0.40,-0.15,0.23,1.18,-0.94,0.15,-0.24,-0.20,-0.09,3248.00,4095.00,743.00,1926.00,1087.00,3251.00,1514.00,3149.00,,,,,,,,,,,,0,0,0,,-864,16296,-1024,-131,118,-163
5.556,5.18,0.39,0.13,-0.19,-0.03,0.02,0.24,-0.27,0.04,-0.20,3305.00,4095.00,721.00,1969.00,1087.00,3242.00,1517.00,3129.00,,,,,,,,,,,,0,0,0,,-840,16484,-1196,-173,121,-123
5.598,5.24,0.41,-0.55,0.81,-0.07,0.47,0.75,-0.91,0.13,-0.45,3170.00,4095.00,704.00,1948.00,1115.00,3232.00,1535.00,3139.00,,,,,,,,,,,,0,0,0,,-660,16156,-1192,-122,112,-190
5.66,5.29,0.39,0.33,-0.49,1.05,-1.12,-0.01,-0.32,-0.47,-0.03,3346.00,4095.00,752.00,1945.00,1095.00,3279.00,1517.00,3178.00,,,,,,,,,,,,0,0,0,,-780,16508,-1136,-79,64,-268
5.702,5.35,0.38,-0.31,0.46,0.08,-0.12,0.19,-0.01,-0.06,-0.02,3216.00,4095.00,725.00,1968.00,1073.00,3226.00,1505.00,3126.00,,,,,,,,,,,,0,0,0,,-804,16328,-1148,-151,36,-164
5.763,5.41,0.40,-0.14,0.20,0.91,-0.53,0.79,-0.47,0.35,-0.38,3251.00,4095.00,730.00,1925.00,1088.00,3189.00,1523.00,3106.00,,,,,,,,,,,,0,0,0,,-760,16272,-1040,-138,36,-25
5.824,5.46,0.41,0.17,-0.25,1.25,-0.43,0.66,-0.41,0.02,-0.10,3313.00,4095.00,722.00,1895.00,1087.00,3201.00,1509.00,3123.00,,,,,,,,,,,,0,0,0,,-852,16332,-988,-129,251,-197
5.906,5.51,0.41,-0.51,0.75,0.82,-0.24,0.33,-0.03,-0.08,0.16,3178.00,4095.00,720.00,1917.00,1071.00,3209.00,1491.00,3114.00,,,,,,,,,,,,0,0,0,,-800,16636,-1188,-130,381,-122
5.927,5.57,0.43,0.30,-0.44,0.56,0.29,0.84,-0.47,0.40,-0.36,3339.00,4095.00,703.00,1910.00,1087.00,3183.00,1520.00,3098.00,,,,,,,,,,,,0,0,0,,-664,16276,-1312,-173,332,-136
5.992,5.62,0.45,-0.29,0.43,0.96,-0.29,0.90,-0.76,0.20,-0.33,3220.00,4095.00,720.00,1909.00,1103.00,3200.00,1523.00,3120.00,,,,,,,,,,,,0,0,0,,-752,16412,-1168,-140,235,-194
6.034,5.68,0.45,-0.05,0.07,1.03,-0.59,0.43,-0.31,-0.15,-0.05,3269.00,4095.00,731.00,1919.00,1086.00,3222.00,1510.00,3140.00,,,,,,,,,,,,0,0,0,,-712,16192,-1204,-70,119,-193
6.118,5.74,0.45,0.16,-0.23,0.21,-0.09,0.38,-0.15,0.12,-0.19,3311.00,4095.00,722.00,1956.00,1077.00,3213.00,1514.00,3118.00,,,,,,,,,,,,0,0,0,,-712,16256,-1156,-5,44,-145
6.139,5.79,0.47,-0.49,0.72,0.21,0.20,0.99,-0.99,0.31,-0.51,3181.00,4095.00,711.00,1941.00,1115.00,3209.00,1535.00,3121.00,,,,,,,,,,,,0,0,0,,-788,16364,-1104,78,101,-102
6.202,5.84,0.46,0.36,-0.54,1.45,-1.28,0.13,-0.33,-0.42,0.04,3353.00,4095.00,753.00,1923.00,1093.00,3262.00,1510.00,3166.00,,,,,,,,,,,,0,0,0,,-708,16236,-1176,86,166,-178
6.263,5.90,0.44,-0.33,0.48,0.08,-0.12,0.13,-0.03,-0.25,0.09,3213.00,4095.00,725.00,1968.00,1075.00,3235.00,1501.00,3140.00,,,,,,,,,,,,0,0,0,,-772,16292,-1072,-77,133,-132
6.324,5.95,0.44,-0.08,0.12,0.03,0.26,0.46,-0.51,0.15,-0.43,3263.00,4095.00,711.00,1952.00,1097.00,3235.00,1533.00,3135.00,,,,,,,,,,,,0,0,0,,-780,16468,-1204,-45,210,-90
6.384,6.01,0.44,0.09,-0.13,0.83,-0.63,0.34,-0.40,-0.15,-0.18,3297.00,4095.00,735.00,1936.00,1093.00,3241.00,1520.00,3150.00,,,,,,,,,,,,0,0,0,,-716,16324,-928,-84,243,-68
6.425,6.07,0.43,-0.48,0.70,0.72,-0.36,0.29,-0.06,-0.19,0.16,3184.00,4095.00,726.00,1931.00,1074.00,3218.00,1494.00,3127.00,,,,,,,,,,,,0,0,0,,-804,16280,-1084,78,287,25
6.508,6.12,0.45,0.31,-0.46,0.48,0.11,0.82,-0.48,0.32,-0.34,3342.00,4095.00,711.00,1925.00,1088.00,3186.00,1520.00,3105.00,,,,,,,,,,,,0,0,0,,-636,16332,-1092,187,291,233
6.528,6.17,0.47,-0.37,0.54,1.05,-0.32,0.81,-0.63,0.10,-0.30,3205.00,4095.00,720.00,1904.00,1097.00,3200.00,1523.00,3129.00,,,,,,,,,,,,0,0,0,,-532,16288,-1272,271,474,258
6.65,6.23,0.45,-0.05,0.07,1.14,-0.83,0.22,-0.28,-0.21,-0.09,3269.00,4095.00,739.00,1923.00,1088.00,3245.00,1515.00,3151.00,,,,,,,,,,,,0,0,0,,-516,16260,-1396,173,550,106
6.671,6.29,0.45,0.05,-0.07,0.28,-0.14,0.41,-0.17,0.11,-0.20,3289.00,4095.00,723.00,1953.00,1078.00,3212.00,1515.00,3120.00,,,,,,,,,,,,0,0,0,,-476,16376,-1492,160,408,-16
6.711,6.34,0.49,-0.47,0.69,0.52,0.09,1.12,-1.07,0.23,-0.49,3185.00,4095.00,711.00,1923.00,1117.00,3199.00,1535.00,3129.00,,,,,,,,,,,,0,0,0,,-508,16336,-1576,6,156,-181
6.753,6.39,0.47,0.30,-0.44,1.24,-1.18,0.20,-0.29,-0.30,-0.09,3339.00,4095.00,752.00,1934.00,1089.00,3249.00,1517.00,3162.00,,,,,,,,,,,,0,0,0,,-472,16292,-1436,63,41,-322
6.815,6.45,0.46,-0.39,0.58,-0.07,0.21,0.25,-0.10,-0.21,0.02,3200.00,4095.00,714.00,1962.00,1077.00,3226.00,1506.00,3142.00,,,,,,,,,,,,0,0,0,,-640,16252,-1408,39,75,-440
6.877,6.50,0.47,-0.05,0.08,0.26,0.02,0.60,-0.54,0.05,-0.30,3268.00,4095.00,717.00,1946.00,1096.00,3220.00,1525.00,3136.00,,,,,,,,,,,,0,0,0,,-724,16256,-1400,-72,-47,-482
6.939,6.56,0.46,0.04,-0.05,0.70,-0.43,0.42,-0.60,-0.27,-0.13,3286.00,4095.00,729.00,1936.00,1103.00,3248.00,1520.00,3162.00,,,,,,,,,,,,0,0,0,,-780,16252,-1396,-222,-142,-373
7.002,6.62,0.44,-0.48,0.70,0.28,-0.34,-0.05,-0.03,-0.51,0.18,3184.00,4095.00,731.00,1964.00,1079.00,3259.00,1501.00,3165.00,,,,,,,,,,,,0,0,0,,-892,16136,-1148,-175,-69,-385
7.022,6.67,0.43,0.24,-0.35,-0.20,0.23,0.25,-0.34,-0.09,-0.28,3327.00,4095.00,715.00,1971.00,1091.00,3247.00,1527.00,3152.00,,,,,,,,,,,,0,0,0,,-756,16464,-1300,-83,-2,-182
7.082,6.72,0.44,-0.37,0.54,0.39,-0.22,0.64,-0.72,-0.07,-0.29,3205.00,4095.00,725.00,1949.00,1106.00,3230.00,1527.00,3150.00,,,,,,,,,,,,0,0,0,,-720,16276,-1264,-127,8,-260
7.144,6.78,0.43,0.02,-0.03,1.16,-0.94,0.24,-0.34,-0.27,-0.13,3283.00,4095.00,743.00,1927.00,1091.00,3248.00,1520.00,3162.00,,,,,,,,,,,,0,0,0,,-876,16204,-1316,-206,-30,-190
7.186,6.83,0.43,0.07,-0.11,0.48,-0.13,0.40,-0.07,0.05,-0.12,3294.00,4095.00,720.00,1937.00,1072.00,3204.00,1510.00,3121.00,,,,,,,,,,,,0,0,0,,-652,16380,-1312,-260,89,-100
7.247,6.89,0.47,-0.44,0.65,0.54,0.30,1.19,-1.03,0.31,-0.51,3191.00,4095.00,703.00,1911.00,1113.00,3186.00,1535.00,3121.00,,,,,,,,,,,,0,0,0,,-736,16320,-1236,-366,307,-195
7.308,6.95,0.47,0.35,-0.51,1.60,-1.16,0.45,-0.36,-0.30,-0.05,3350.00,4095.00,746.00,1905.00,1088.00,3223.00,1514.00,3159.00,,,,,,,,,,,,0,0,0,,-824,16360,-1188,-257,180,-229
7.391,7.00,0.46,-0.37,0.54,0.60,-0.22,0.44,-0.08,-0.04,0.01,3205.00,4095.00,722.00,1933.00,1072.00,3200.00,1502.00,3121.00,,,,,,,,,,,,0,0,0,,-740,16320,-1272,-136,28,-124
7.411,7.05,0.49,0.04,-0.05,0.42,0.34,0.97,-0.63,0.38,-0.40,3286.00,4095.00,703.00,1918.00,1094.00,3181.00,1524.00,3104.00,,,,,,,,,,,,0,0,0,,-708,16440,-1168,-49,14,-199
7.473,7.11,0.50,0.04,-0.06,1.13,-0.42,0.65,-0.48,-0.10,-0.12,3287.00,4095.00,723.00,1903.00,1091.00,3207.00,1514.00,3139.00,,,,,,,,,,,,0,0,0,,-680,16224,-1320,-43,38,-202
7.536,7.16,0.48,-0.44,0.65,0.98,-0.65,0.21,-0.05,-0.36,0.13,3191.00,4095.00,734.00,1926.00,1075.00,3227.00,1501.00,3151.00,,,,,,,,,,,,0,0,0,,-792,16316,-1228,20,35,-189
7.577,7.22,0.49,0.28,-0.41,0.39,0.03,0.52,-0.38,0.08,-0.24,3335.00,4095.00,715.00,1936.00,1088.00,3216.00,1519.00,3127.00,,,,,,,,,,,,0,0,0,,-836,16280,-1264,-53,97,-135
7.64,7.28,0.49,-0.46,0.67,0.31,-0.04,0.64,-0.69,-0.07,-0.31,3188.00,4095.00,719.00,1946.00,1104.00,3227.00,1529.00,3152.00,,,,,,,,,,,,0,0,0,,-772,16364,-1236,-89,188,-113
7.744,7.33,0.47,0.07,-0.11,0.92,-0.98,0.09,-0.42,-0.52,-0.03,3294.00,4095.00,748.00,1948.00,1099.00,3275.00,1518.00,3184.00,,,,,,,,,,,,0,0,0,,-760,16236,-1168,-133,252,-100
7.765,7.38,0.45,0.02,-0.03,-0.04,-0.23,0.05,-0.05,-0.17,-0.17,3283.00,4095.00,731.00,1983.00,1078.00,3247.00,1520.00,3152.00,,,,,,,,,,,,0,0,0,,-772,16488,-1360,-30,189,-320
7.806,7.44,0.49,-0.41,0.60,0.51,-0.16,1.13,-1.09,0.49,-0.80,3197.00,4095.00,721.00,1937.00,1118.00,3199.00,1554.00,3123.00,,,,,,,,,,,,0,0,0,,-832,16304,-1292,91,69,-214
7.869,7.50,0.49,0.37,-0.54,1.62,-1.26,0.53,-0.37,-0.30,-0.00,3354.00,4095.00,750.00,1909.00,1087.00,3213.00,1510.00,3154.00,,,,,,,,,,,,0,0,0,,-904,16104,-1260,60,18,-169
7.909,7.55,0.50,-0.46,0.68,0.79,-0.23,0.69,-0.20,-0.14,0.18,3187.00,4095.00,720.00,1919.00,1074.00,3179.00,1491.00,3119.00,,,,,,,,,,,,0,0,0,,-796,16320,-1200,111,45,-58
7.971,7.61,0.53,0.02,-0.03,0.57,0.44,1.05,-0.59,0.39,-0.36,3283.00,4095.00,697.00,1901.00,1090.00,3167.00,1520.00,3099.00,,,,,,,,,,,,0,0,0,,-828,16520,-1244,-49,75,-32
8.033,7.66,0.54,-0.04,0.06,1.06,-0.32,0.82,-0.45,-0.00,-0.09,3270.00,4095.00,720.00,1903.00,1086.00,3184.00,1509.00,3125.00,,,,,,,,,,,,0,0,0,,-784,16264,-1288,-215,190,-199
8.094,7.71,0.54,-0.47,0.69,1.13,-0.50,0.47,-0.09,-0.19,0.18,3185.00,4095.00,726.00,1907.00,1072.00,3197.00,1492.00,3125.00,,,,,,,,,,,,0,0,0,,-808,16232,-1216,-107,201,-237
8.135,7.77,0.55,0.20,-0.29,0.54,0.14,0.76,-0.36,0.14,-0.07,3319.00,4095.00,709.00,1919.00,1082.00,3184.00,1503.00,3105.00,,,,,,,,,,,,0,0,0,,-808,16384,-1144,-14,149,-209
8.176,7.83,0.57,-0.53,0.78,0.68,-0.06,1.08,-0.84,0.30,-0.46,3173.00,4095.00,715.00,1919.00,1104.00,3184.00,1531.00,3118.00,,,,,,,,,,,,0,0,0,,-752,16420,-1268,-7,16,-275
8.236,7.88,0.56,0.04,-0.06,1.73,-1.32,0.34,-0.32,-0.24,-0.15,3287.00,4095.00,751.00,1904.00,1088.00,3234.00,1520.00,3159.00,,,,,,,,,,,,0,0,0,,-696,16312,-1404,-77,-42,-247
8.299,7.93,0.55,-0.11,0.16,0.32,-0.22,0.32,-0.09,-0.04,-0.14,3257.00,4095.00,726.00,1955.00,1075.00,3216.00,1514.00,3134.00,,,,,,,,,,,,0,0,0,,-888,16268,-1340,-148,-15,-323
8.359,7.99,0.57,-0.48,0.70,0.28,0.17,1.02,-1.00,0.36,-0.73,3184.00,4095.00,711.00,1937.00,1115.00,3206.00,1552.00,3134.00,,,,,,,,,,,,0,0,0,,-872,16324,-1188,-193,116,-278
8.4,8.05,0.55,0.21,-0.31,1.34,-1.15,0.16,-0.34,-0.39,-0.07,3322.00,4095.00,749.00,1924.00,1093.00,3259.00,1518.00,3171.00,,,,,,,,,,,,0,0,0,,-936,16396,-1272,-178,147,-145
8.463,8.10,0.54,-0.56,0.83,0.37,-0.27,0.29,-0.12,-0.13,-0.02,3167.00,4095.00,727.00,1953.00,1077.00,3222.00,1507.00,3135.00,,,,,,,,,,,,0,0,0,,-840,16328,-1304,-161,99,-342
8.526,8.16,0.56,0.03,-0.05,0.57,0.05,0.90,-0.51,0.33,-0.35,3285.00,4095.00,712.00,1921.00,1088.00,3179.00,1521.00,3105.00,,,,,,,,,,,,0,0,0,,-1032,16252,-1256,-151,52,-180
8.589,8.21,0.58,-0.10,0.14,1.05,-0.32,0.96,-0.55,-0.00,-0.14,3259.00,4095.00,720.00,1904.00,1089.00,3174.00,1513.00,3129.00,,,,,,,,,,,,0,0,0,,-988,16296,-1048,-57,178,-74
8.651,8.27,0.58,-0.47,0.69,1.47,-0.69,0.61,-0.13,-0.15,0.22,3186.00,4095.00,729.00,1891.00,1072.00,3184.00,1488.00,3117.00,,,,,,,,,,,,0,0,0,,-764,16248,-1212,-88,289,-134
8.672,8.32,0.59,0.14,-0.21,0.20,0.30,0.80,-0.30,0.30,-0.27,3308.00,4095.00,707.00,1936.00,1078.00,3174.00,1515.00,3102.00,,,,,,,,,,,,0,0,0,,-824,16284,-1468,-77,242,-230
8.733,8.38,0.62,-0.57,0.84,0.81,-0.24,1.18,-0.85,0.37,-0.52,3166.00,4095.00,720.00,1918.00,1103.00,3173.00,1534.00,3115.00,,,,,,,,,,,,0,0,0,,-860,16344,-1184,-106,71,-125
8.836,8.43,0.62,0.08,-0.12,1.90,-1.36,0.52,-0.31,-0.21,-0.02,3295.00,4095.00,750.00,1893.00,1084.00,3210.00,1509.00,3145.00,,,,,,,,,,,,0,0,0,,-904,16248,-1160,-100,27,-194
8.856,8.49,0.61,-0.20,0.29,0.38,-0.07,0.61,-0.12,0.04,-0.06,3239.00,4095.00,719.00,1942.00,1071.00,3182.00,1505.00,3117.00,,,,,,,,,,,,0,0,0,,-880,16412,-1216,-77,118,-166
8.917,8.54,0.65,-0.50,0.74,0.09,0.68,1.25,-1.06,0.46,-0.56,3179.00,4095.00,694.00,1925.00,1114.00,3182.00,1535.00,3107.00,,,,,,,,,,,,0,0,0,,-880,16316,-1304,-122,111,-160
8.979,8.60,0.64,0.18,-0.26,1.62,-1.14,0.51,-0.38,-0.19,-0.11,3315.00,4095.00,745.00,1903.00,1088.00,3217.00,1516.00,3150.00,,,,,,,,,,,,0,0,0,,-844,16228,-1148,-87,110,-70
8.999,8.65,0.62,-0.63,0.94,0.55,-0.15,0.20,0.09,-0.29,0.25,3153.00,4095.00,720.00,1933.00,1067.00,3216.00,1489.00,3132.00,,,,,,,,,,,,0,0,0,,-916,16244,-1228,-90,219,-114
9.06,8.71,0.62,0.01,-0.01,0.18,0.29,0.71,-0.48,0.17,-0.29,3280.00,4095.00,708.00,1939.00,1090.00,3200.00,1521.00,3121.00,,,,,,,,,,,,0,0,0,,-920,16336,-1244,-137,250,-123
9.123,8.76,0.62,-0.21,0.31,1.05,-0.67,0.54,-0.59,-0.21,-0.19,3237.00,4095.00,734.00,1922.00,1100.00,3231.00,1523.00,3159.00,,,,,,,,,,,,0,0,0,,-828,16388,-1216,-128,198,-21
9.226,8.82,0.59,-0.46,0.68,0.89,-0.74,0.13,-0.03,-0.24,0.07,3187.00,4095.00,739.00,1938.00,1075.00,3235.00,1502.00,3140.00,,,,,,,,,,,,0,0,0,,-948,16280,-1144,-195,118,-299
9.247,8.87,0.60,0.16,-0.24,0.30,0.17,0.64,-0.39,0.17,-0.29,3312.00,4095.00,711.00,1936.00,1086.00,3201.00,1521.00,3121.00,,,,,,,,,,,,0,0,0,,-944,16276,-1296,-136,46,-183
9.31,8.93,0.63,-0.62,0.92,0.88,-0.10,1.19,-0.86,0.34,-0.52,3155.00,4095.00,714.00,1906.00,1103.00,3172.00,1535.00,3119.00,,,,,,,,,,,,0,0,0,,-868,16416,-944,-136,75,-34
9.329,8.98,0.62,0.16,-0.23,1.94,-1.30,0.44,-0.23,-0.23,-0.00,3311.00,4095.00,747.00,1887.00,1081.00,3213.00,1508.00,3146.00,,,,,,,,,,,,0,0,0,,-896,16356,-1100,-132,219,-35
9.39,9.04,0.62,-0.22,0.32,0.55,-0.20,0.64,-0.15,0.10,-0.01,3235.00,4095.00,722.00,1936.00,1072.00,3181.00,1500.00,3106.00,,,,,,,,,,,,0,0,0,,-888,16320,-1200,-111,220,-179
9.453,9.09,0.65,-0.39,0.58,0.74,0.15,1.29,-0.91,0.51,-0.58,3200.00,4095.00,706.00,1903.00,1104.00,3164.00,1535.00,3102.00,,,,,,,,,,,,0,0,0,,-784,16364,-1248,-94,123,-48
9.515,9.15,0.65,0.18,-0.27,1.75,-1.06,0.72,-0.43,-0.08,-0.03,3316.00,4095.00,740.00,1889.00,1087.00,3195.00,1506.00,3129.00,,,,,,,,,,,,0,0,0,,-836,16332,-1208,-38,125,-141
9.576,9.20,0.65,-0.63,0.94,1.00,-0.55,0.57,-0.11,-0.14,0.20,3153.00,4095.00,730.00,1920.00,1071.00,3186.00,1489.00,3117.00,,,,,,,,,,,,0,0,0,,-840,16260,-1156,-59,124,-130
9.618,9.26,0.66,0.09,-0.14,0.37,0.25,0.89,-0.47,0.47,-0.42,3298.00,4095.00,707.00,1926.00,1086.00,3177.00,1523.00,3094.00,,,,,,,,,,,,0,0,0,,-740,16320,-1192,-122,84,-134
9.66,9.31,0.66,-0.22,0.33,1.03,-0.31,0.67,-0.55,0.01,-0.22,3234.00,4095.00,720.00,1905.00,1095.00,3211.00,1519.00,3134.00,,,,,,,,,,,,0,0,0,,-828,16464,-1100,-114,83,-293
9.721,9.37,0.64,-0.40,0.59,0.76,0.67,0.15,0.02,-0.31,0.16,3199.00,4095.00,686.00,1875.00,1072.00,3229.00,1497.00,3142.00,,,,,,,,,,,,0,0,0,,-904,16232,-1124,-76,-9,-291
9.783,9.42,0.62,0.15,-0.22,0.15,-0.09,0.39,-0.30,-0.32,-0.11,3309.00,4095.00,723.00,1961.00,1086.00,3226.00,1519.00,3166.00,,,,,,,,,,,,0,0,0,,-924,16272,-980,-20,-21,-233
9.845,9.48,0.64,-0.64,0.95,0.36,-0.21,0.95,-1.08,-0.03,-0.40,3151.00,4095.00,725.00,1951.00,1121.00,3221.00,1535.00,3154.00,,,,,,,,,,,,0,0,0,,-844,16384,-1332,32,163,-123
9.967,9.53,0.61,0.17,-0.26,1.37,-1.40,0.07,-0.23,-0.41,-0.04,3314.00,4095.00,759.00,1935.00,1088.00,3260.00,1516.00,3171.00,,,,,,,,,,,,0,0,0,,-932,16160,-1200,-196,174,-209
9.988,9.59,0.60,-0.26,0.39,0.52,-0.37,0.45,-0.08,0.01,-0.07,3226.00,4095.00,729.00,1947.00,1072.00,3199.00,1507.00,3122.00,,,,,,,,,,,,0,0,0,,-896,16336,-1236,-211,103,-253
10.01,9.64,0.63,-0.36,0.53,0.12,0.25,1.12,-0.70,0.51,-0.58,3207.00,4095.00,710.00,1945.00,1095.00,3167.00,1535.00,3102.00,,,,,,,,,,,,0,0,0,,-824,16416,-980,-121,84,-117
10.05,9.70,0.64,0.21,-0.31,1.72,-0.90,0.74,-0.37,-0.04,-0.07,3322.00,4095.00,734.00,1883.00,1083.00,3187.00,1508.00,3127.00,,,,,,,,,,,,0,0,0,,-840,16352,-1036,-7,236,-347
10.112,9.75,0.62,-0.64,0.94,0.86,-0.33,0.35,0.25,-0.12,0.15,3152.00,4095.00,723.00,1919.00,1055.00,3184.00,1493.00,3120.00,,,,,,,,,,,,0,0,0,,-984,16244,-1212,-41,188,-177
10.175,9.81,0.64,0.12,-0.18,0.60,0.22,1.02,-0.58,0.43,-0.35,3303.00,4095.00,705.00,1910.00,1090.00,3170.00,1518.00,3093.00,,,,,,,,,,,,0,0,0,,-872,16340,-1152,-103,149,-154
10.237,9.86,0.65,-0.25,0.37,1.29,-0.47,0.79,-0.54,0.07,-0.19,3229.00,4095.00,723.00,1894.00,1092.00,3195.00,1515.00,3124.00,,,,,,,,,,,,0,0,0,,-872,16312,-1148,-102,93,-341
10.299,9.91,0.63,-0.31,0.46,0.87,-0.56,0.37,-0.16,-0.23,0.06,3216.00,4095.00,732.00,1930.00,1078.00,3216.00,1503.00,3140.00,,,,,,,,,,,,0,0,0,,-1000,16284,-1180,-60,-2,-267
10.32,9.97,0.62,0.12,-0.18,0.52,-0.17,0.40,-0.19,-0.08,-0.04,3303.00,4095.00,721.00,1936.00,1079.00,3214.00,1507.00,3130.00,,,,,,,,,,,,0,0,0,,-924,16172,-1032,-62,-36,-229
10.381,10.03,0.64,-0.65,0.97,0.71,-0.23,1.04,-1.01,0.14,-0.45,3149.00,4095.00,721.00,1925.00,1115.00,3204.00,1535.00,3138.00,,,,,,,,,,,,0,0,0,,-880,16292,-1128,-127,127,-193
10.442,10.08,0.61,0.23,-0.34,1.33,-1.24,0.05,-0.22,-0.48,-0.00,3326.00,4095.00,753.00,1930.00,1088.00,3262.00,1515.00,3177.00,,,,,,,,,,,,0,0,0,,-856,16356,-1096,-193,209,-309
10.504,10.14,0.59,-0.29,0.43,-0.02,-0.11,0.18,-0.09,-0.16,-0.11,3220.00,4095.00,726.00,1975.00,1078.00,3235.00,1515.00,3146.00,,,,,,,,,,,,0,0,0,,-952,16260,-968,-138,12,-354
10.545,10.19,0.60,-0.31,0.46,0.08,0.09,0.72,-0.88,0.10,-0.44,3216.00,4095.00,717.00,1957.00,1114.00,3234.00,1535.00,3142.00,,,,,,,,,,,,0,0,0,,-916,16420,-1104,-1,-101,-209
10.606,10.25,0.58,0.22,-0.32,0.97,-0.95,0.28,-0.40,-0.18,-0.17,3323.00,4095.00,746.00,1942.00,1094.00,3248.00,1520.00,3153.00,,,,,,,,,,,,0,0,0,,-1092,16100,-1028,-129,-34,-350
10.668,10.30,0.57,-0.62,0.91,0.54,-0.40,0.22,0.05,-0.21,0.11,3156.00,4095.00,730.00,1947.00,1069.00,3217.00,1498.00,3133.00,,,,,,,,,,,,0,0,0,,-1056,16168,-968,-104,63,-242
10.729,10.36,0.58,0.22,-0.33,0.63,0.08,0.80,-0.42,0.31,-0.32,3324.00,4095.00,710.00,1915.00,1085.00,3184.00,1519.00,3105.00,,,,,,,,,,,,0,0,0,,-980,16344,-1056,-94,172,-110
10.77,10.41,0.59,-0.22,0.33,1.25,-0.39,0.89,-0.62,-0.13,-0.12,3234.00,4095.00,720.00,1892.00,1095.00,3190.00,1515.00,3143.00,,,,,,,,,,,,0,0,0,,-992,16488,-1080,26,275,-243
10.831,10.47,0.58,-0.28,0.42,1.21,-0.85,0.29,-0.05,-0.31,0.12,3222.00,4095.00,739.00,1919.00,1073.00,3216.00,1500.00,3145.00,,,,,,,,,,,,0,0,0,,-992,16184,-1088,7,187,-210
10.891,10.52,0.61,0.18,-0.26,0.65,-0.34,1.29,-1.34,0.09,-0.18,3315.00,4095.00,726.00,1935.00,1130.00,3201.00,1514.00,3121.00,,,,,,,,,,,,0,0,0,,-1032,16320,-1308,-8,118,-166
10.933,10.58,0.64,-0.61,0.91,0.75,-0.19,1.12,-0.97,0.33,-0.52,3157.00,4095.00,719.00,1920.00,1111.00,3190.00,1535.00,3120.00,,,,,,,,,,,,0,0,0,,-1036,16176,-1040,-58,117,-217
10.993,10.63,0.62,0.22,-0.33,1.36,-1.35,0.25,-0.29,-0.32,-0.09,3324.00,4095.00,757.00,1933.00,1088.00,3242.00,1518.00,3165.00,,,,,,,,,,,,0,0,0,,-1016,16288,-1128,-186,45,-205
11.055,10.69,0.60,-0.28,0.41,0.33,-0.23,0.28,-0.04,-0.11,0.01,3223.00,4095.00,726.00,1954.00,1073.00,3217.00,1504.00,3130.00,,,,,,,,,,,,0,0,0,,-1128,16276,-1068,-184,-14,-293
11.117,10.74,0.61,-0.22,0.32,0.47,0.03,0.82,-0.75,0.25,-0.49,3235.00,4095.00,714.00,1930.00,1104.00,3210.00,1535.00,3127.00,,,,,,,,,,,,0,0,0,,-1128,16260,-968,-159,-42,-235
11.158,10.80,0.60,0.22,-0.32,0.99,-0.68,0.30,-0.29,-0.28,-0.12,3323.00,4095.00,735.00,1927.00,1087.00,3236.00,1519.00,3162.00,,,,,,,,,,,,0,0,0,,-1144,16252,-1044,-61,43,-97
11.241,10.85,0.52,-0.58,0.85,0.33,-0.20,-0.96,1.42,-0.42,0.14,3164.00,4095.00,725.00,1953.00,1014.00,3249.00,1502.00,3158.00,,,,,,,,,,,,0,0,0,,-1072,16240,-940,-47,293,-27
11.261,10.91,0.52,0.24,-0.36,-0.10,0.33,0.45,-0.46,-0.02,-0.22,3328.00,4095.00,710.00,1958.00,1094.00,3231.00,1520.00,3138.00,,,,,,,,,,,,0,0,0,,-1072,16476,-968,-89,377,-87
11.322,10.96,0.52,-0.26,0.39,0.64,-0.46,0.65,-0.64,-0.00,-0.29,3226.00,4095.00,731.00,1942.00,1101.00,3222.00,1525.00,3141.00,,,,,,,,,,,,0,0,0,,-1024,16216,-1104,-142,279,-117
11.406,11.02,0.51,-0.15,0.23,1.24,-0.94,0.31,-0.22,-0.16,-0.01,3248.00,4095.00,742.00,1921.00,1083.00,3229.00,1507.00,3138.00,,,,,,,,,,,,0,0,0,,-884,16236,-1012,-138,85,-33
11.427,11.07,0.51,0.18,-0.27,0.55,-0.20,0.38,-0.11,-0.01,-0.09,3316.00,4095.00,722.00,1936.00,1075.00,3210.00,1509.00,3126.00,,,,,,,,,,,,0,0,0,,-1076,16212,-972,-110,194,-69
11.488,11.13,0.53,-0.58,0.85,0.35,-0.00,0.99,-0.91,0.17,-0.46,3164.00,4095.00,717.00,1941.00,1110.00,3202.00,1535.00,3135.00,,,,,,,,,,,,0,0,0,,-1000,16360,-1036,-32,397,-202
11.549,11.18,0.51,0.39,-0.57,1.56,-1.36,0.21,-0.26,-0.46,0.09,3358.00,4095.00,755.00,1919.00,1087.00,3245.00,1507.00,3167.00,,,,,,,,,,,,0,0,0,,-1020,16204,-1080,14,217,-113
11.611,11.24,0.50,-0.28,0.42,0.34,-0.18,0.29,-0.03,-0.13,-0.01,3222.00,4095.00,724.00,1951.00,1072.00,3215.00,1506.00,3134.00,,,,,,,,,,,,0,0,0,,-1056,16260,-1044,-6,-13,-81
11.673,11.29,0.52,-0.15,0.23,0.30,0.17,0.83,-0.77,0.33,-0.52,3248.00,4095.00,711.00,1936.00,1105.00,3210.00,1535.00,3120.00,,,,,,,,,,,,0,0,0,,-1028,16312,-868,-103,56,-115
11.694,11.35,0.51,0.18,-0.26,1.07,-0.68,0.36,-0.34,0.14,-0.21,3315.00,4095.00,734.00,1921.00,1089.00,3233.00,1515.00,3117.00,,,,,,,,,,,,0,0,0,,-964,16292,-1024,75,160,-117
11.817,11.40,0.49,-0.56,0.82,0.84,-0.68,-0.00,0.02,-0.39,0.18,3168.00,4095.00,737.00,1938.00,1075.00,3248.00,1498.00,3151.00,,,,,,,,,,,,0,0,0,,-1032,16344,-1060,31,143,-1
11.837,11.46,0.48,0.26,-0.38,-0.03,0.18,0.37,-0.38,-0.76,0.03,3331.00,4095.00,715.00,1961.00,1091.00,3235.00,1520.00,3210.00,,,,,,,,,,,,0,0,0,,-960,16380,-1188,-8,170,-57
11.878,11.51,0.48,-0.30,0.44,0.21,0.04,0.49,-0.74,-0.23,-0.21,3219.00,4095.00,717.00,1949.00,1110.00,3251.00,1525.00,3163.00,,,,,,,,,,,,0,0,0,,-952,16388,-1096,-193,166,-110
11.939,11.57,0.45,-0.09,0.14,0.69,-0.78,-0.07,-0.40,-0.62,-0.05,3260.00,4095.00,743.00,1955.00,1101.00,3294.00,1523.00,3199.00,,,,,,,,,,,,0,0,0,,-872,16260,-1048,-163,229,-53
12.002,11.62,0.43,0.18,-0.27,-0.15,-0.30,0.02,-0.33,-0.34,-0.13,3316.00,4095.00,735.00,1995.00,1095.00,3276.00,1522.00,3171.00,,,,,,,,,,,,0,0,0,,-896,16388,-1224,-90,161,-324
12.063,11.68,0.45,-0.54,0.80,0.16,-0.07,0.77,-0.98,0.05,-0.43,3171.00,4095.00,722.00,1959.00,1119.00,3236.00,1535.00,3146.00,,,,,,,,,,,,0,0,0,,-1016,16304,-1104,-91,-33,-140
12.147,11.73,0.43,0.36,-0.54,1.64,-1.37,0.13,-0.28,-0.53,-0.01,3353.00,4095.00,754.00,1913.00,1090.00,3257.00,1517.00,3184.00,,,,,,,,,,,,0,0,0,,-912,16228,-1020,-126,-73,-36
12.168,11.79,0.43,-0.28,0.41,0.59,-0.37,0.30,-0.05,-0.09,-0.04,3223.00,4095.00,728.00,1941.00,1073.00,3215.00,1507.00,3131.00,,,,,,,,,,,,0,0,0,,-952,16352,-952,-143,216,-101
12.21,11.84,0.44,-0.12,0.18,0.51,0.28,0.74,-0.54,0.22,-0.42,3254.00,4095.00,704.00,1914.00,1093.00,3202.00,1530.00,3125.00,,,,,,,,,,,,0,0,0,,-840,16644,-1064,-211,386,-24
12.293,11.90,0.44,0.16,-0.24,1.34,-0.77,0.51,-0.43,-0.20,-0.10,3312.00,4095.00,734.00,1905.00,1091.00,3221.00,1515.00,3150.00,,,,,,,,,,,,0,0,0,,-868,16232,-1084,-73,323,-90
12.312,11.95,0.44,-0.51,0.75,1.00,-0.55,0.27,-0.04,-0.30,0.13,3177.00,4095.00,730.00,1920.00,1073.00,3218.00,1499.00,3143.00,,,,,,,,,,,,0,0,0,,-864,16288,-1184,-87,138,-80
12.375,12.01,0.45,0.30,-0.44,0.32,0.13,0.64,-0.40,0.09,-0.31,3339.00,4095.00,712.00,1936.00,1087.00,3203.00,1524.00,3131.00,,,,,,,,,,,,0,0,0,,-888,16328,-1008,-59,130,-188
12.417,12.06,0.45,-0.33,0.48,0.93,-0.38,0.57,-0.58,-0.10,-0.25,3213.00,4095.00,724.00,1916.00,1099.00,3227.00,1525.00,3151.00,,,,,,,,,,,,0,0,0,,-980,16392,-1204,-140,82,-84
12.54,12.12,0.43,-0.07,0.10,1.09,-0.91,0.10,-0.29,-0.48,-0.00,3265.00,4095.00,743.00,1931.00,1091.00,3262.00,1515.00,3177.00,,,,,,,,,,,,0,0,0,,-1052,16276,-1040,-112,110,-130
12.561,12.17,0.42,0.14,-0.20,0.03,-0.33,0.15,-0.17,-0.30,-0.05,3307.00,4095.00,734.00,1983.00,1083.00,3245.00,1514.00,3159.00,,,,,,,,,,,,0,0,0,,-920,16344,-992,-104,132,-143
12.582,12.23,0.43,-0.50,0.74,0.31,-0.07,0.57,-0.88,-0.03,-0.60,3179.00,4095.00,720.00,1947.00,1117.00,3253.00,1552.00,3171.00,,,,,,,,,,,,0,0,0,,-908,16288,-944,-171,122,-112
12.644,12.28,0.40,0.40,-0.59,1.17,-1.26,-0.12,-0.38,-0.68,-0.11,3360.00,4095.00,756.00,1943.00,1101.00,3299.00,1529.00,3211.00,,,,,,,,,,,,0,0,0,,-920,16340,-1044,-97,193,-57
12.705,12.34,0.38,-0.33,0.49,0.21,-0.31,-0.09,-0.07,-0.43,-0.01,3212.00,4095.00,731.00,1968.00,1082.00,3267.00,1514.00,3171.00,,,,,,,,,,,,0,0,0,,-936,16292,-868,-93,124,-274
12.746,12.39,0.39,-0.02,0.03,0.48,-0.10,0.69,-0.66,0.15,-0.44,3275.00,4095.00,719.00,1936.00,1101.00,3218.00,1534.00,3136.00,,,,,,,,,,,,0,0,0,,-1056,16316,-920,-56,32,-140
12.809,12.45,0.39,0.18,-0.26,1.42,-0.77,0.42,-0.31,-0.22,-0.13,3315.00,4095.00,733.00,1899.00,1086.00,3223.00,1518.00,3155.00,,,,,,,,,,,,0,0,0,,-1036,16212,-808,-42,117,-15
12.891,12.50,0.39,-0.48,0.71,0.88,-0.29,0.26,-0.02,-0.43,0.22,3183.00,4095.00,721.00,1915.00,1072.00,3218.00,1495.00,3151.00,,,,,,,,,,,,0,0,0,,-952,16296,-1084,-97,353,-89
12.912,12.56,0.40,0.32,-0.48,0.22,0.30,0.67,-0.43,0.12,-0.30,3345.00,4095.00,707.00,1935.00,1088.00,3201.00,1523.00,3127.00,,,,,,,,,,,,0,0,0,,-812,16156,-1192,-99,383,-215
12.974,12.61,0.41,-0.32,0.48,0.98,-0.32,0.65,-0.54,-0.12,-0.24,3214.00,4095.00,721.00,1909.00,1095.00,3213.00,1524.00,3151.00,,,,,,,,,,,,0,0,0,,-928,16316,-1008,-32,163,-61
13.036,12.66,0.40,0.02,-0.03,1.28,-0.88,0.23,-0.33,-0.48,-0.05,3283.00,4095.00,739.00,1915.00,1091.00,3249.00,1519.00,3181.00,,,,,,,,,,,,0,0,0,,-912,16340,-876,-96,44,-183
13.118,12.72,0.40,0.14,-0.20,0.85,-0.38,0.27,-0.12,-0.18,-0.17,3307.00,4095.00,725.00,1922.00,1078.00,3226.00,1520.00,3153.00,,,,,,,,,,,,0,0,0,,-876,16344,-908,-54,109,-261
13.16,12.78,0.41,-0.49,0.72,0.58,-0.16,0.73,-0.82,0.18,-0.68,3181.00,4095.00,720.00,1931.00,1110.00,3227.00,1553.00,3152.00,,,,,,,,,,,,0,0,0,,-980,16344,-972,-76,123,-190
13.18,12.83,0.40,0.41,-0.60,1.41,-1.27,0.09,-0.35,-0.65,-0.01,3362.00,4095.00,753.00,1925.00,1095.00,3269.00,1520.00,3199.00,,,,,,,,,,,,0,0,0,,-888,16284,-1028,48,183,-193
13.242,12.89,0.38,-0.38,0.56,0.10,-0.25,0.05,-0.12,-0.36,-0.02,3203.00,4095.00,730.00,1973.00,1082.00,3253.00,1513.00,3163.00,,,,,,,,,,,,0,0,0,,-896,16292,-1148,35,121,-94
13.303,12.94,0.38,0.01,-0.02,-0.09,0.22,0.32,-0.45,-0.10,-0.35,3281.00,4095.00,714.00,1963.00,1096.00,3247.00,1533.00,3159.00,,,,,,,,,,,,0,0,0,,-1008,16320,-976,-57,101,-150
13.365,13.00,0.36,0.15,-0.22,0.76,-0.65,0.10,-0.34,-0.58,-0.14,3309.00,4095.00,737.00,1943.00,1094.00,3266.00,1529.00,3201.00,,,,,,,,,,,,0,0,0,,-880,16508,-1020,2,124,-217
13.426,13.05,0.34,-0.50,0.74,0.31,-0.35,-0.19,0.01,-0.53,0.08,3179.00,4095.00,731.00,1962.00,1079.00,3273.00,1510.00,3177.00,,,,,,,,,,,,0,0,0,,-1064,16224,-980,-17,45,-272
13.488,13.11,0.35,0.32,-0.47,0.17,0.16,0.53,-0.40,0.03,-0.36,3344.00,4095.00,713.00,1946.00,1089.00,3216.00,1530.00,3143.00,,,,,,,,,,,,0,0,0,,-976,16128,-1028,41,-83,-71
13.529,13.16,0.36,-0.38,0.56,1.02,-0.28,0.70,-0.64,-0.13,-0.34,3203.00,4095.00,719.00,1904.00,1100.00,3216.00,1533.00,3162.00,,,,,,,,,,,,0,0,0,,-860,16384,-1100,33,7,-30
13.63,13.22,0.36,0.06,-0.09,1.53,-1.01,0.20,-0.27,-0.52,-0.06,3291.00,4095.00,741.00,1903.00,1088.00,3247.00,1521.00,3187.00,,,,,,,,,,,,0,0,0,,-988,16232,-1204,34,286,-200
13.65,13.27,0.35,0.07,-0.11,0.30,-0.09,0.32,-0.16,-0.53,-0.01,3294.00,4095.00,721.00,1949.00,1079.00,3222.00,1517.00,3184.00,,,,,,,,,,,,0,0,0,,-920,16292,-1148,-4,325,-170
13.69,13.33,0.38,-0.47,0.69,0.57,-0.03,0.90,-0.94,0.11,-0.66,3186.00,4095.00,715.00,1925.00,1114.00,3216.00,1553.00,3159.00,,,,,,,,,,,,0,0,0,,-936,16388,-1116,-144,315,-89
13.752,13.38,0.36,0.37,-0.55,2.03,-1.45,-0.02,-0.20,-0.68,0.03,3355.00,4095.00,752.00,1888.00,1088.00,3269.00,1518.00,3200.00,,,,,,,,,,,,0,0,0,,-976,16388,-1092,-148,246,-127
13.793,13.44,0.35,-0.36,0.53,0.24,-0.17,0.04,0.05,-0.38,-0.05,3207.00,4095.00,725.00,1958.00,1072.00,3239.00,1516.00,3168.00,,,,,,,,,,,,0,0,0,,-940,16568,-924,-130,140,-196
13.855,13.49,0.35,0.04,-0.06,0.27,0.12,0.53,-0.50,-0.16,-0.26,3287.00,4095.00,713.00,1940.00,1095.00,3225.00,1527.00,3158.00,,,,,,,,,,,,0,0,0,,-964,16356,-1044,-72,-64,-265
13.918,13.55,0.34,0.08,-0.12,1.38,-0.81,0.12,-0.33,-0.52,-0.14,3295.00,4095.00,735.00,1904.00,1093.00,3263.00,1527.00,3193.00,,,,,,,,,,,,0,0,0,,-984,16236,-980,421,-49,-3
13.98,13.60,0.31,-0.48,0.70,0.60,-0.55,-0.32,0.13,-0.85,0.19,3184.00,4095.00,735.00,1950.00,1075.00,3280.00,1509.00,3207.00,,,,,,,,,,,,0,0,0,,-816,16332,-1264,648,169,222
14.021,13.66,0.28,0.25,-0.36,-0.02,0.04,-0.23,0.16,-0.36,-0.27,3329.00,4095.00,720.00,1967.00,1071.00,3265.00,1534.00,3185.00,,,,,,,,,,,,0,0,0,,-676,16352,-1368,436,315,71
14.062,13.71,0.27,-0.40,0.59,0.38,-0.40,0.10,-0.51,-0.61,-0.20,3199.00,4095.00,732.00,1959.00,1104.00,3281.00,1535.00,3210.00,,,,,,,,,,,,0,0,0,,-820,16592,-1460,272,383,-246
14.124,13.77,0.24,0.02,-0.02,0.95,-1.09,-0.30,-0.21,-0.77,-0.03,3282.00,4095.00,752.00,1951.00,1094.00,3306.00,1525.00,3216.00,,,,,,,,,,,,0,0,0,,-920,16264,-1572,87,63,-211
14.186,13.82,0.24,0.01,-0.01,0.41,-0.38,0.13,-0.16,-0.38,-0.15,3280.00,4095.00,731.00,1956.00,1083.00,3247.00,1524.00,3177.00,,,,,,,,,,,,0,0,0,,-972,16044,-1220,120,-113,32
14.247,13.88,0.27,-0.49,0.72,0.64,-0.13,0.77,-0.85,0.03,-0.70,3181.00,4095.00,718.00,1925.00,1111.00,3225.00,1559.00,3173.00,,,,,,,,,,,,0,0,0,,-868,16304,-1300,258,81,136
14.289,13.93,0.26,0.28,-0.41,1.73,-1.35,0.09,-0.29,-1.78,0.36,3335.00,4095.00,752.00,1905.00,1091.00,3263.00,1521.00,3312.00,,,,,,,,,,,,0,0,0,,-816,16480,-1308,241,358,292
14.35,13.99,0.25,-0.48,0.70,0.33,-0.13,0.08,-0.06,-0.55,0.03,3184.00,4095.00,722.00,1949.00,1078.00,3244.00,1514.00,3183.00,,,,,,,,,,,,0,0,0,,-624,16192,-1376,246,395,170
14.432,14.04,0.26,-0.04,0.06,0.32,0.13,0.51,-0.53,-0.16,-0.35,3270.00,4095.00,712.00,1936.00,1097.00,3230.00,1535.00,3167.00,,,,,,,,,,,,0,0,0,,-612,16336,-1428,515,349,205
14.452,14.10,0.26,-0.06,0.09,1.95,-0.98,0.15,-0.29,-0.62,-0.18,3267.00,4095.00,734.00,1870.00,1090.00,3255.00,1533.00,3209.00,,,,,,,,,,,,0,0,0,,-520,16348,-1660,493,181,186
14.513,14.15,0.24,-0.54,0.80,0.67,-0.52,-0.15,-0.05,-0.63,-0.01,3171.00,4095.00,733.00,1943.00,1082.00,3273.00,1520.00,3197.00,,,,,,,,,,,,0,0,0,,-500,16464,-1764,203,142,-30
14.554,14.21,0.23,0.11,-0.16,0.08,0.01,0.04,-0.22,-0.37,-0.26,3301.00,4095.00,720.00,1961.00,1088.00,3263.00,1533.00,3185.00,,,,,,,,,,,,0,0,0,,-652,16276,-1632,-18,76,-99
14.615,14.26,0.22,-0.52,0.77,1.06,-1.25,0.12,-0.53,-0.67,-0.18,3175.00,4095.00,757.00,1951.00,1105.00,3280.00,1535.00,3216.00,,,,,,,,,,,,0,0,0,,-548,16256,-1600,-138,81,-163
14.718,14.32,0.19,0.00,-0.00,0.96,-1.21,-0.33,-0.33,-1.04,-0.01,3279.00,4095.00,757.00,1957.00,1102.00,3321.00,1531.00,3249.00,,,,,,,,,,,,0,0,0,,-624,16360,-1624,-99,127,-221
14.739,14.37,0.17,-0.09,0.13,-0.03,-0.44,-0.37,-0.12,-0.79,-0.08,3261.00,4095.00,739.00,1993.00,1090.00,3307.00,1530.00,3223.00,,,,,,,,,,,,0,0,0,,-516,16348,-1740,-150,238,-116
14.781,14.43,0.17,-0.53,0.78,-0.04,-0.08,0.34,-0.95,-0.39,-0.74,3173.00,4095.00,725.00,1975.00,1126.00,3289.00,1574.00,3229.00,,,,,,,,,,,,0,0,0,,-500,16320,-1544,-16,191,-495
14.842,14.48,0.15,0.19,-0.28,1.10,-1.31,-0.23,-0.36,-0.98,-0.05,3318.00,4095.00,759.00,1951.00,1102.00,3311.00,1533.00,3245.00,,,,,,,,,,,,0,0,0,,-600,16452,-1796,-50,33,-374
14.883,14.54,0.14,-0.48,0.71,0.57,-0.53,-0.04,-0.04,-0.73,0.03,3183.00,4095.00,735.00,1952.00,1079.00,3258.00,1519.00,3206.00,,,,,,,,,,,,0,0,0,,-704,16248,-1604,24,-96,-460
14.945,14.59,0.16,-0.02,0.04,0.42,0.02,0.50,-0.59,-0.37,-0.28,3274.00,4095.00,715.00,1934.00,1101.00,3237.00,1535.00,3187.00,,,,,,,,,,,,0,0,0,,-696,16340,-1568,23,68,-527
15.006,14.65,0.16,-0.08,0.12,1.03,-0.64,0.08,-0.33,-0.77,-0.05,3262.00,4095.00,733.00,1922.00,1094.00,3268.00,1527.00,3218.00,,,,,,,,,,,,0,0,0,,-696,16312,-1796,-79,176,-490
15.11,14.70,0.14,-0.49,0.72,0.76,-0.55,-0.27,0.07,-0.97,0.21,3182.00,4095.00,733.00,1938.00,1077.00,3278.00,1511.00,3221.00,,,,,,,,,,,,0,0,0,,-852,16216,-1604,-144,145,-290
15.131,14.76,0.13,0.16,-0.23,0.28,-0.03,0.08,-0.23,-0.54,-0.22,3311.00,4095.00,719.00,1948.00,1088.00,3259.00,1535.00,3204.00,,,,,,,,,,,,0,0,0,,-836,16200,-1624,-129,80,-97
15.173,14.81,0.14,-0.48,0.70,0.31,-0.20,0.23,-0.57,-0.48,-0.49,3184.00,4095.00,725.00,1954.00,1105.00,3269.00,1555.00,3218.00,,,,,,,,,,,,0,0,0,,-792,16328,-1684,-162,143,-121
15.234,14.87,0.11,0.02,-0.02,1.24,-1.35,-0.49,-0.12,-1.18,0.05,3282.00,4095.00,759.00,1943.00,1093.00,3324.00,1530.00,3262.00,,,,,,,,,,,,0,0,0,,-720,16356,-1584,-206,232,-92
15.297,14.92,0.09,-0.08,0.12,0.05,-0.36,-0.26,-0.12,-0.86,-0.12,3262.00,4095.00,735.00,1983.00,1088.00,3293.00,1535.00,3235.00,,,,,,,,,,,,0,0,0,,-848,16340,-1548,-241,255,-112
15.358,14.98,0.10,-0.48,0.70,-0.01,0.01,0.31,-0.93,-0.43,-0.73,3184.00,4095.00,721.00,1968.00,1125.00,3291.00,1574.00,3233.00,,,,,,,,,,,,0,0,0,,-732,16080,-1596,-113,251,-149
15.461,15.03,0.07,0.30,-0.44,0.85,-1.30,-0.56,-0.18,-1.29,0.03,3339.00,4095.00,762.00,1970.00,1098.00,3339.00,1535.00,3278.00,,,,,,,,,,,,0,0,0,,-808,16308,-1532,-61,204,-179
15.481,15.09,0.03,-0.45,0.66,0.12,-0.53,-0.65,0.06,-1.15,0.04,3189.00,4095.00,741.00,1987.00,1085.00,3328.00,1530.00,3259.00,,,,,,,,,,,,0,0,0,,-788,16412,-1664,-35,181,-75
15.501,15.14,0.03,0.01,-0.02,-0.10,-0.03,-0.07,-0.48,-0.57,-0.46,3281.00,4095.00,724.00,1977.00,1106.00,3301.00,1555.00,3227.00,,,,,,,,,,,,0,0,0,,-668,16156,-1560,-217,84,-289
15.563,15.20,0.02,-0.04,0.06,0.63,-0.61,0.00,-0.47,-0.96,-0.08,3271.00,4095.00,737.00,1951.00,1104.00,3291.00,1535.00,3245.00,,,,,,,,,,,,0,0,0,,-832,16172,-1496,-291,22,-19
15.603,15.25,0.01,-0.41,0.61,0.91,-0.75,-0.28,-0.06,-1.17,0.17,3196.00,4095.00,739.00,1937.00,1085.00,3291.00,1520.00,3250.00,,,,,,,,,,,,0,0,0,,-804,16304,-1324,-178,141,-81
15.666,15.31,0.01,0.27,-0.39,0.25,-0.05,0.01,-0.24,-0.76,-0.15,3333.00,4095.00,720.00,1951.00,1090.00,3269.00,1535.00,3225.00,,,,,,,,,,,,0,0,0,,-776,16344,-1312,-44,407,-208
15.708,15.36,0.02,-0.45,0.66,0.31,-0.15,0.19,-0.64,-0.60,-0.49,3190.00,4095.00,723.00,1951.00,1110.00,3281.00,1559.00,3234.00,,,,,,,,,,,,0,0,0,,-720,16256,-1468,-74,348,-39
15.811,15.41,-0.00,0.13,-0.19,1.24,-1.21,-0.40,-0.19,-1.26,0.02,3305.00,4095.00,753.00,1935.00,1095.00,3318.00,1535.00,3275.00,,,,,,,,,,,,0,0,0,,-732,16384,-1588,-63,325,-111
15.832,15.47,-0.02,-0.05,0.07,0.12,-0.31,-0.35,-0.07,-1.00,-0.07,3269.00,4095.00,732.00,1975.00,1087.00,3301.00,1535.00,3249.00,,,,,,,,,,,,0,0,0,,-736,16324,-1640,104,160,-115
15.873,15.53,-0.00,-0.41,0.61,0.20,-0.03,0.28,-0.80,-0.43,-0.82,3196.00,4095.00,720.00,1954.00,1118.00,3283.00,1582.00,3241.00,,,,,,,,,,,,0,0,0,,-736,16360,-1460,111,-11,-18
15.933,15.58,-0.02,0.30,-0.45,1.27,-1.44,-0.40,-0.34,-1.29,0.03,3341.00,4095.00,762.00,1945.00,1104.00,3331.00,1535.00,3278.00,,,,,,,,,,,,0,0,0,,-740,16320,-1660,55,34,-130
15.995,15.64,-0.03,-0.52,0.77,0.22,-0.52,-0.13,-0.18,-1.14,0.03,3175.00,4095.00,739.00,1978.00,1089.00,3282.00,1531.00,3259.00,,,,,,,,,,,,0,0,0,,-688,16280,-1568,46,151,-160
16.037,15.69,-0.04,0.06,-0.09,0.02,-0.15,-0.15,-0.42,-1.56,-0.10,3291.00,4095.00,727.00,1974.00,1104.00,3306.00,1553.00,3324.00,,,,,,,,,,,,0,0,0,,-656,16176,-1624,81,227,-187
16.098,15.75,-0.06,-0.06,0.09,0.14,-0.57,-0.49,-0.31,-1.31,0.03,3266.00,4095.00,742.00,1987.00,1104.00,3341.00,1535.00,3280.00,,,,,,,,,,,,0,0,0,,-736,16384,-1668,2,131,-91
16.223,15.80,-0.10,-0.39,0.58,0.27,-0.71,-0.91,0.10,-1.51,0.23,3200.00,4095.00,746.00,1984.00,1088.00,3359.00,1524.00,3288.00,,,,,,,,,,,,0,0,0,,-712,16340,-1748,-56,-13,-407
16.243,15.86,-0.11,0.19,-0.28,-0.27,0.05,-0.31,-0.22,-1.02,-0.06,3317.00,4095.00,723.00,1986.00,1095.00,3309.00,1535.00,3251.00,,,,,,,,,,,,0,0,0,,-844,16204,-1564,-53,-72,-266
16.285,15.91,-0.09,-0.48,0.70,0.27,-0.08,0.23,-0.75,-0.63,-0.61,3184.00,4095.00,721.00,1951.00,1116.00,3286.00,1570.00,3248.00,,,,,,,,,,,,0,0,0,,-808,16300,-1660,-82,4,-141
16.367,15.97,-0.12,0.12,-0.18,1.32,-1.36,-0.54,-0.11,-1.39,0.06,3303.00,4095.00,758.00,1937.00,1093.00,3329.00,1535.00,3288.00,,,,,,,,,,,,0,0,0,,-780,16448,-1520,-118,90,-156
16.388,16.02,-0.14,-0.09,0.13,0.04,-0.26,-0.55,0.10,-1.05,-0.04,3261.00,4095.00,731.00,1978.00,1081.00,3312.00,1534.00,3253.00,,,,,,,,,,,,0,0,0,,-716,16368,-1640,-137,113,-252
16.429,16.07,-0.12,-0.42,0.62,0.05,-0.06,0.25,-0.87,-0.53,-0.75,3195.00,4095.00,723.00,1967.00,1123.00,3294.00,1579.00,3248.00,,,,,,,,,,,,0,0,0,,-788,16288,-1432,-154,85,-202
16.49,16.13,-0.14,0.32,-0.47,1.20,-1.22,-0.58,-0.16,-1.34,0.04,3344.00,4095.00,754.00,1939.00,1097.00,3339.00,1535.00,3283.00,,,,,,,,,,,,0,0,0,,-744,16484,-1552,-146,43,-194
16.552,16.18,-0.16,-0.51,0.75,0.38,-0.52,-0.49,-0.07,-1.25,0.12,3177.00,4095.00,737.00,1966.00,1090.00,3320.00,1526.00,3264.00,,,,,,,,,,,,0,0,0,,-788,16332,-1644,-200,109,-197
16.612,16.24,-0.16,0.02,-0.02,-0.24,0.14,-0.10,-0.49,-0.73,-0.47,3282.00,4095.00,719.00,1979.00,1107.00,3306.00,1561.00,3249.00,,,,,,,,,,,,0,0,0,,-780,16288,-1468,-136,149,-245
16.654,16.30,-0.17,-0.08,0.12,0.62,-0.75,-0.46,-0.32,-1.45,0.19,3263.00,4095.00,743.00,1959.00,1104.00,3338.00,1526.00,3284.00,,,,,,,,,,,,0,0,0,,-780,16440,-1556,-82,96,-219
16.715,16.35,-0.21,-0.44,0.65,0.53,-0.92,-0.93,0.09,-1.48,0.19,3191.00,4095.00,751.00,1975.00,1089.00,3363.00,1527.00,3288.00,,,,,,,,,,,,0,0,0,,-748,16288,-1504,-140,91,-232
16.777,16.41,-0.23,0.18,-0.27,-0.75,0.19,-0.69,-0.09,-1.31,0.03,3316.00,4095.00,724.00,2017.00,1095.00,3347.00,1535.00,3280.00,,,,,,,,,,,,0,0,0,,-784,16324,-1504,-232,99,-124
16.819,16.46,-0.25,-0.53,0.78,-0.15,-0.22,-0.52,-0.48,-1.04,-0.58,3173.00,4095.00,732.00,1991.00,1115.00,3360.00,1579.00,3299.00,,,,,,,,,,,,0,0,0,,-720,16340,-1564,-159,178,-84
16.923,16.51,-0.28,0.15,-0.23,0.72,-1.28,-0.91,-0.13,-1.68,0.16,3310.00,4095.00,763.00,1979.00,1102.00,3381.00,1535.00,3317.00,,,,,,,,,,,,0,0,0,,-696,16236,-1548,-182,89,-334
16.944,16.57,-0.30,-0.07,0.11,-0.11,-0.46,-0.57,-0.01,-1.17,0.01,3264.00,4095.00,741.00,2001.00,1088.00,3325.00,1533.00,3264.00,,,,,,,,,,,,0,0,0,,-792,16204,-1584,-155,-10,-242
17.007,16.62,-0.26,-0.35,0.51,-0.07,0.06,0.33,-0.90,-0.65,-0.65,3209.00,4095.00,720.00,1970.00,1123.00,3286.00,1574.00,3255.00,,,,,,,,,,,,0,0,0,,-868,16444,-1436,-279,48,-141
17.027,16.68,-0.27,0.32,-0.47,1.31,-1.21,-0.44,-0.12,-1.27,0.02,3344.00,4095.00,752.00,1930.00,1092.00,3318.00,1535.00,3276.00,,,,,,,,,,,,0,0,0,,-832,16368,-1412,-191,283,-300
17.088,16.73,-0.28,-0.51,0.75,0.31,-0.45,-0.32,-0.11,-1.12,0.09,3177.00,4095.00,735.00,1967.00,1089.00,3301.00,1525.00,3250.00,,,,,,,,,,,,0,0,0,,-900,16340,-1476,-71,160,-302
17.151,16.79,-0.26,0.07,-0.11,0.29,-0.04,-0.03,-0.38,-0.82,-0.13,3294.00,4095.00,719.00,1947.00,1099.00,3287.00,1535.00,3231.00,,,,,,,,,,,,0,0,0,,-812,16300,-1548,-15,-38,-64
17.193,16.84,-0.26,-0.08,0.12,0.87,-0.56,-0.14,-0.44,-1.13,-0.03,3262.00,4095.00,732.00,1930.00,1105.00,3307.00,1535.00,3262.00,,,,,,,,,,,,0,0,0,,-776,16232,-1496,-67,-38,-201
17.296,16.90,-0.28,-0.39,0.57,0.81,-0.82,-0.62,0.02,-1.31,0.21,3201.00,4095.00,743.00,1948.00,1087.00,3328.00,1520.00,3264.00,,,,,,,,,,,,0,0,0,,-964,16312,-1440,-107,108,-215
17.317,16.95,-0.29,0.17,-0.26,0.03,-0.13,-0.50,-0.09,-1.02,-0.06,3314.00,4095.00,726.00,1972.00,1091.00,3322.00,1535.00,3251.00,,,,,,,,,,,,0,0,0,,-828,16208,-1652,-81,132,-155
17.358,17.01,-0.28,-0.51,0.75,0.21,-0.27,-0.10,-0.69,-0.81,-0.54,3177.00,4095.00,729.00,1965.00,1119.00,3323.00,1569.00,3265.00,,,,,,,,,,,,0,0,0,,-952,16244,-1436,-39,124,-152
17.421,17.07,-0.30,0.15,-0.22,0.97,-1.36,-0.82,-0.17,-1.53,0.11,3309.00,4095.00,763.00,1964.00,1102.00,3371.00,1535.00,3302.00,,,,,,,,,,,,0,0,0,,-1020,16388,-1508,-41,134,-76
17.483,17.12,-0.33,-0.15,0.23,-0.37,-0.32,-0.83,0.06,-1.28,0.02,3248.00,4095.00,739.00,2014.00,1089.00,3353.00,1535.00,3277.00,,,,,,,,,,,,0,0,0,,-896,16256,-1532,-211,176,-97
17.543,17.17,-0.32,-0.38,0.56,-0.14,-0.09,-0.08,-0.89,-0.92,-0.37,3203.00,4095.00,727.00,1984.00,1131.00,3339.00,1558.00,3265.00,,,,,,,,,,,,0,0,0,,-768,16440,-1576,-59,142,-346
17.586,17.23,-0.33,0.24,-0.35,0.80,-1.14,-0.56,-0.24,-1.24,0.01,3327.00,4095.00,756.00,1965.00,1101.00,3343.00,1535.00,3273.00,,,,,,,,,,,,0,0,0,,-892,16308,-1592,-148,-46,-218
17.688,17.28,-0.33,-0.53,0.78,0.25,-0.30,-0.36,0.04,-1.01,0.08,3173.00,4095.00,730.00,1964.00,1081.00,3293.00,1523.00,3237.00,,,,,,,,,,,,0,0,0,,-944,16124,-1372,-61,-86,-118
17.709,17.34,-0.31,0.09,-0.13,0.34,0.10,0.09,-0.40,-0.67,-0.18,3297.00,4095.00,713.00,1936.00,1098.00,3273.00,1535.00,3216.00,,,,,,,,,,,,0,0,0,,-932,16512,-1248,-125,209,-92
17.75,17.39,-0.30,-0.15,0.23,0.92,-0.40,0.00,-0.47,-0.89,-0.11,3248.00,4095.00,725.00,1918.00,1104.00,3291.00,1535.00,3238.00,,,,,,,,,,,,0,0,0,,-796,16224,-1456,-158,352,28
17.813,17.45,-0.30,-0.39,0.57,0.88,-0.72,-0.49,0.06,-1.18,0.22,3201.00,4095.00,738.00,1937.00,1082.00,3307.00,1516.00,3247.00,,,,,,,,,,,,0,0,0,,-792,16212,-1452,-122,305,-160
17.874,17.50,-0.27,0.16,-0.23,0.27,-0.08,0.40,-1.14,-0.84,-0.13,3311.00,4095.00,721.00,1951.00,1136.00,3297.00,1535.00,3233.00,,,,,,,,,,,,0,0,0,,-828,16392,-1548,-107,108,-104
17.915,17.56,-0.25,-0.59,0.87,0.52,-0.29,0.19,-0.75,-0.52,-0.52,3162.00,4095.00,726.00,1943.00,1117.00,3291.00,1559.00,3226.00,,,,,,,,,,,,0,0,0,,-796,16360,-1536,-29,25,-219
18.039,17.61,-0.27,0.16,-0.24,1.06,-1.27,-0.66,-0.05,-1.18,-0.01,3312.00,4095.00,758.00,1952.00,1092.00,3340.00,1535.00,3267.00,,,,,,,,,,,,0,0,0,,-884,16348,-1376,-63,-25,-189
18.06,17.67,-0.29,-0.21,0.31,0.22,-0.44,-0.63,0.16,-0.91,-0.00,3236.00,4095.00,736.00,1974.00,1079.00,3317.00,1527.00,3232.00,,,,,,,,,,,,0,0,0,,-864,16300,-1368,-12,100,-196
18.08,17.73,-0.27,-0.45,0.66,-0.01,0.09,0.01,-0.66,-0.38,-0.72,3190.00,4095.00,718.00,1964.00,1115.00,3306.00,1572.00,3226.00,,,,,,,,,,,,0,0,0,,-880,16328,-1292,-70,195,-190
18.144,17.78,-0.26,0.18,-0.27,0.79,-1.06,-0.04,-0.28,-1.15,-0.02,3316.00,4095.00,753.00,1962.00,1093.00,3279.00,1535.00,3264.00,,,,,,,,,,,,0,0,0,,-760,16280,-1420,-142,168,-120
18.185,17.83,-0.29,-0.64,0.94,-0.07,-0.45,-0.79,0.11,-1.20,0.18,3152.00,4095.00,740.00,1997.00,1085.00,3343.00,1520.00,3253.00,,,,,,,,,,,,0,0,0,,-860,16396,-1588,-109,231,-72
18.288,17.89,-0.29,0.07,-0.10,-0.12,0.08,-0.29,-0.36,-0.73,-0.16,3293.00,4095.00,720.00,1973.00,1103.00,3319.00,1535.00,3222.00,,,,,,,,,,,,0,0,0,,-924,16252,-1544,-149,118,-275
18.309,17.94,-0.27,-0.28,0.41,0.81,-0.57,0.06,-0.46,-0.92,0.01,3223.00,4095.00,733.00,1935.00,1102.00,3282.00,1526.00,3232.00,,,,,,,,,,,,0,0,0,,-908,16300,-1384,-173,8,-191
18.39,18.00,-0.28,-0.38,0.57,1.05,-0.95,-0.57,0.16,-0.90,0.14,3202.00,4095.00,745.00,1936.00,1078.00,3310.00,1515.00,3218.00,,,,,,,,,,,,0,0,0,,-964,16260,-1284,-126,104,-87
18.41,18.05,-0.28,0.09,-0.13,0.45,-0.12,-0.14,-0.16,-0.62,-0.15,3297.00,4095.00,720.00,1939.00,1088.00,3281.00,1531.00,3207.00,,,,,,,,,,,,0,0,0,,-888,16256,-1260,-121,263,-104
18.472,18.11,-0.25,-0.65,0.96,0.60,-0.17,0.23,-0.64,-0.32,-0.59,3150.00,4095.00,720.00,1930.00,1109.00,3275.00,1559.00,3207.00,,,,,,,,,,,,0,0,0,,-776,16256,-1448,-78,204,-169
18.534,18.16,-0.26,0.13,-0.20,1.35,-1.27,-0.44,-0.14,-1.05,0.05,3306.00,4095.00,754.00,1930.00,1093.00,3319.00,1526.00,3244.00,,,,,,,,,,,,0,0,0,,-964,16304,-1468,-126,66,-117
18.575,18.22,-0.27,-0.30,0.45,0.35,-0.41,-0.41,0.10,-0.72,0.03,3218.00,4095.00,733.00,1962.00,1078.00,3293.00,1519.00,3205.00,,,,,,,,,,,,0,0,0,,-924,16304,-1488,-89,82,-212
18.638,18.27,-0.24,-0.44,0.65,0.35,-0.00,0.21,-0.63,-0.18,-0.61,3191.00,4095.00,717.00,1941.00,1109.00,3277.00,1557.00,3191.00,,,,,,,,,,,,0,0,0,,-952,16232,-1392,-129,197,-173
18.7,18.33,-0.25,0.10,-0.15,1.22,-1.18,-0.34,-0.11,-0.79,-0.02,3300.00,4095.00,752.00,1935.00,1089.00,3303.00,1525.00,3218.00,,,,,,,,,,,,0,0,0,,-980,16272,-1296,-121,178,-124
18.783,18.39,-0.27,-0.67,0.98,0.44,-0.39,-0.71,0.27,-0.95,0.20,3147.00,4095.00,731.00,1954.00,1074.00,3318.00,1511.00,3219.00,,,,,,,,,,,,0,0,0,,-884,16368,-1360,-72,160,-146
18.804,18.44,-0.27,0.03,-0.05,1.24,-0.30,-0.18,-0.31,-0.53,-0.23,3285.00,4095.00,717.00,1889.00,1098.00,3300.00,1535.00,3203.00,,,,,,,,,,,,0,0,0,,-852,16220,-1308,-76,159,-95
18.845,18.50,-0.27,-0.34,0.51,0.77,-0.63,-0.30,-0.44,-0.85,-0.12,3210.00,4095.00,736.00,1941.00,1108.00,3327.00,1535.00,3234.00,,,,,,,,,,,,0,0,0,,-952,16268,-1428,-112,230,-133
18.927,18.55,-0.30,-0.40,0.59,0.64,-0.93,-0.85,0.06,-1.15,0.16,3199.00,4095.00,750.00,1967.00,1089.00,3355.00,1520.00,3248.00,,,,,,,,,,,,0,0,0,,-876,16508,-1452,-125,209,-114
18.968,18.60,-0.31,0.07,-0.10,0.09,-0.35,-0.62,0.04,-0.71,-0.12,3293.00,4095.00,734.00,1979.00,1086.00,3327.00,1531.00,3216.00,,,,,,,,,,,,0,0,0,,-952,16332,-1340,-157,78,-215
19.031,18.66,-0.28,-0.66,0.97,0.26,-0.03,0.31,-0.83,-0.33,-0.51,3148.00,4095.00,719.00,1949.00,1119.00,3282.00,1553.00,3202.00,,,,,,,,,,,,0,0,0,,-984,16116,-1352,-165,-31,-155
19.136,18.71,-0.29,0.14,-0.20,1.63,-1.39,-0.38,-0.11,-0.91,0.01,3307.00,4095.00,755.00,1915.00,1090.00,3308.00,1526.00,3231.00,,,,,,,,,,,,0,0,0,,-900,16464,-1212,-186,145,-90
19.156,18.77,-0.29,-0.33,0.48,0.31,-0.15,-0.27,0.09,-0.67,0.06,3213.00,4095.00,723.00,1951.00,1076.00,3276.00,1515.00,3195.00,,,,,,,,,,,,0,0,0,,-860,16252,-1332,-143,316,-34
19.198,18.82,-0.25,-0.39,0.58,0.31,0.27,0.35,-0.63,-0.14,-0.60,3200.00,4095.00,707.00,1930.00,1106.00,3259.00,1555.00,3185.00,,,,,,,,,,,,0,0,0,,-948,16208,-1420,-46,201,-240
19.239,18.88,-0.26,0.09,-0.13,1.21,-0.85,-0.28,-0.06,-0.63,-0.09,3297.00,4095.00,739.00,1919.00,1085.00,3291.00,1526.00,3203.00,,,,,,,,,,,,0,0,0,,-916,16256,-1444,4,63,-117
19.301,18.93,-0.27,-0.81,1.19,0.66,-0.44,-0.47,0.21,-0.84,0.24,3120.00,4095.00,730.00,1940.00,1073.00,3292.00,1505.00,3202.00,,,,,,,,,,,,0,0,0,,-820,16308,-1376,-40,78,-172
19.364,18.99,-0.26,0.04,-0.05,0.18,0.29,-0.09,-0.19,-0.33,-0.27,3286.00,4095.00,708.00,1939.00,1089.00,3278.00,1533.00,3181.00,,,,,,,,,,,,0,0,0,,-908,16308,-1464,-34,100,-224
19.406,19.05,-0.25,-0.37,0.54,0.65,-0.34,-0.05,-0.42,-0.65,-0.13,3205.00,4095.00,726.00,1935.00,1102.00,3293.00,1530.00,3209.00,,,,,,,,,,,,0,0,0,,-960,16244,-1468,-133,64,-216
19.489,19.10,-0.26,-0.39,0.58,0.76,-0.75,-0.57,0.00,-0.94,0.16,3200.00,4095.00,741.00,1948.00,1087.00,3323.00,1514.00,3221.00,,,,,,,,,,,,0,0,0,,-952,16324,-1208,-103,81,-209
19.51,19.16,-0.29,0.03,-0.05,0.18,-0.30,-0.74,0.27,-0.84,0.04,3285.00,4095.00,731.00,1970.00,1075.00,3322.00,1521.00,3218.00,,,,,,,,,,,,0,0,0,,-968,16432,-1204,-91,182,-201
19.573,19.21,-0.28,-0.67,0.99,0.04,-0.16,-0.04,-0.71,-0.46,-0.53,3146.00,4095.00,727.00,1973.00,1119.00,3317.00,1558.00,3219.00,,,,,,,,,,,,0,0,0,,-852,16224,-1328,-71,251,-88
19.634,19.26,-0.30,0.16,-0.23,1.04,-1.29,-0.82,-0.05,-1.20,0.15,3311.00,4095.00,759.00,1955.00,1095.00,3361.00,1522.00,3255.00,,,,,,,,,,,,0,0,0,,-876,16348,-1324,-71,169,-328
19.696,19.32,-0.32,-0.36,0.53,-0.08,-0.17,-0.60,0.23,-0.70,0.02,3207.00,4095.00,729.00,1983.00,1074.00,3306.00,1519.00,3203.00,,,,,,,,,,,,0,0,0,,-824,16348,-1360,-136,35,-147
19.757,19.37,-0.29,-0.36,0.54,0.36,-0.01,0.21,-0.51,-0.33,-0.30,3206.00,4095.00,717.00,1940.00,1102.00,3267.00,1535.00,3183.00,,,,,,,,,,,,0,0,0,,-996,16228,-1048,-126,108,-95
19.798,19.43,-0.29,0.08,-0.12,1.15,-0.63,-0.26,-0.03,-0.63,-0.05,3295.00,4095.00,731.00,1912.00,1083.00,3286.00,1523.00,3200.00,,,,,,,,,,,,0,0,0,,-820,16192,-1280,-158,329,-241
19.861,19.48,-0.29,-0.67,0.98,0.64,-0.21,-0.37,0.19,-0.82,0.25,3147.00,4095.00,721.00,1929.00,1072.00,3280.00,1504.00,3199.00,,,,,,,,,,,,0,0,0,,-908,16368,-1268,-59,387,-285
19.923,19.54,-0.29,0.09,-0.13,0.25,0.24,-0.21,0.16,0.11,-0.34,3297.00,4095.00,709.00,1936.00,1071.00,3263.00,1526.00,3131.00,,,,,,,,,,,,0,0,0,,-916,16212,-1292,-76,144,-15
19.944,19.59,-0.28,-0.36,0.53,0.91,-0.45,-0.01,-0.37,-0.51,-0.20,3207.00,4095.00,727.00,1921.00,1098.00,3283.00,1532.00,3198.00,,,,,,,,,,,,0,0,0,,-800,16424,-1196,-64,76,-170
20.006,19.65,-0.29,-0.31,0.46,1.09,-0.99,-0.52,0.06,-0.82,0.10,3216.00,4095.00,746.00,1935.00,1083.00,3312.00,1516.00,3211.00,,,,,,,,,,,,0,0,0,,-856,16260,-1224,-64,87,-108
20.067,19.70,-0.30,0.16,-0.24,0.09,-0.28,-0.46,0.17,-0.67,0.00,3312.00,4095.00,731.00,1975.00,1075.00,3294.00,1520.00,3201.00,,,,,,,,,,,,0,0,0,,-948,16288,-1320,-111,102,-167
20.108,19.76,-0.28,-0.69,1.02,0.13,-0.06,0.11,-0.68,-0.27,-0.59,3142.00,4095.00,722.00,1961.00,1114.00,3295.00,1558.00,3201.00,,,,,,,,,,,,0,0,0,,-860,16228,-1204,-116,69,-145
20.233,19.82,-0.30,0.21,-0.31,1.05,-1.19,-0.79,0.06,-1.21,0.19,3321.00,4095.00,755.00,1949.00,1088.00,3347.00,1519.00,3253.00,,,,,,,,,,,,0,0,0,,-896,16248,-1248,-78,172,-189
20.254,19.87,-0.33,-0.41,0.60,-0.17,-0.19,-0.79,0.28,-0.81,0.06,3197.00,4095.00,731.00,1991.00,1075.00,3327.00,1519.00,3213.00,,,,,,,,,,,,0,0,0,,-824,16284,-1176,-102,197,-142
20.296,19.92,-0.32,-0.32,0.47,-0.22,0.19,-0.29,-0.39,-0.64,-0.19,3215.00,4095.00,717.00,1975.00,1105.00,3322.00,1535.00,3213.00,,,,,,,,,,,,0,0,0,,-864,16484,-1484,-31,207,-76
20.357,19.98,-0.34,0.08,-0.13,0.53,-0.60,-0.62,-0.05,-0.88,-0.04,3296.00,4095.00,738.00,1958.00,1091.00,3334.00,1529.00,3231.00,,,,,,,,,,,,0,0,0,,-908,16176,-1296,-159,47,-218
20.398,20.03,-0.35,-0.69,1.01,0.05,-0.13,-0.54,0.25,-0.94,0.30,3143.00,4095.00,726.00,1971.00,1072.00,3297.00,1503.00,3209.00,,,,,,,,,,,,0,0,0,,-924,16340,-1392,-118,16,-107
20.439,20.09,-0.34,0.16,-0.24,0.08,0.37,-0.08,-0.11,-0.43,-0.11,3312.00,4095.00,706.00,1942.00,1084.00,3269.00,1522.00,3179.00,,,,,,,,,,,,0,0,0,,-808,16288,-1116,-142,210,-80
20.501,20.14,-0.32,-0.37,0.54,0.82,-0.24,-0.10,-0.19,-0.51,-0.22,3205.00,4095.00,720.00,1917.00,1089.00,3279.00,1534.00,3200.00,,,,,,,,,,,,0,0,0,,-796,16376,-1348,-43,438,-291
20.604,20.20,-0.33,-0.22,0.32,1.07,-0.88,-0.55,0.10,-0.78,0.03,3235.00,4095.00,742.00,1931.00,1081.00,3312.00,1520.00,3211.00,,,,,,,,,,,,0,0,0,,-832,16220,-1332,-56,212,-148
20.625,20.25,-0.34,0.04,-0.06,0.04,-0.03,-0.48,0.16,-0.73,0.02,3287.00,4095.00,722.00,1966.00,1076.00,3297.00,1520.00,3207.00,,,,,,,,,,,,0,0,0,,-916,16380,-1400,-7,121,-125
20.668,20.31,-0.32,-0.64,0.94,0.33,0.00,0.02,-0.50,-0.02,-0.97,3152.00,4095.00,717.00,1942.00,1105.00,3290.00,1583.00,3202.00,,,,,,,,,,,,0,0,0,,-936,16288,-1188,-46,103,-165
20.728,20.36,-0.34,0.21,-0.31,1.35,-1.37,-0.62,-0.03,-1.10,0.13,3322.00,4095.00,758.00,1935.00,1090.00,3333.00,1521.00,3244.00,,,,,,,,,,,,0,0,0,,-792,16464,-1316,-90,72,-191
20.789,20.42,-0.36,-0.39,0.58,0.05,-0.36,-0.69,0.30,-0.84,0.10,3200.00,4095.00,735.00,1983.00,1072.00,3312.00,1516.00,3213.00,,,,,,,,,,,,0,0,0,,-812,16208,-1400,-48,11,-224
20.829,20.48,-0.35,-0.27,0.40,-0.03,0.30,-0.29,-0.19,-0.58,-0.21,3225.00,4095.00,710.00,1954.00,1093.00,3304.00,1535.00,3207.00,,,,,,,,,,,,0,0,0,,-896,16212,-1244,-8,42,-170
20.891,20.53,-0.37,0.05,-0.07,0.66,-0.64,-0.67,-0.01,-1.02,0.08,3289.00,4095.00,738.00,1950.00,1090.00,3338.00,1523.00,3238.00,,,,,,,,,,,,0,0,0,,-980,16336,-1260,-11,174,-125
20.973,20.58,-0.40,-0.65,0.96,0.20,-0.49,-0.95,0.35,-1.06,0.22,3150.00,4095.00,738.00,1978.00,1074.00,3342.00,1513.00,3232.00,,,,,,,,,,,,0,0,0,,-848,16292,-1236,-35,170,-138
20.994,20.64,-0.41,0.11,-0.16,-0.40,0.22,-0.68,0.01,-0.50,-0.23,3301.00,4095.00,718.00,1987.00,1089.00,3337.00,1534.00,3199.00,,,,,,,,,,,,0,0,0,,-848,16428,-1400,-25,123,-262
21.054,20.69,-0.40,-0.42,0.63,0.33,-0.35,-0.28,-0.38,-0.72,-0.17,3194.00,4095.00,731.00,1961.00,1104.00,3319.00,1535.00,3221.00,,,,,,,,,,,,0,0,0,,-968,16252,-1288,-148,62,-146
21.115,20.75,-0.42,-0.15,0.23,0.95,-1.09,-0.63,0.09,-1.03,0.06,3248.00,4095.00,752.00,1951.00,1083.00,3323.00,1525.00,3241.00,,,,,,,,,,,,0,0,0,,-976,16236,-1080,-161,113,-53
21.156,20.80,-0.42,0.04,-0.06,0.14,-0.34,-0.47,0.14,-0.75,0.04,3287.00,4095.00,733.00,1975.00,1077.00,3298.00,1519.00,3207.00,,,,,,,,,,,,0,0,0,,-820,16220,-1176,-146,300,-265
21.217,20.86,-0.40,-0.59,0.87,0.46,-0.09,0.00,-0.56,-0.28,-0.65,3162.00,4095.00,719.00,1937.00,1109.00,3298.00,1563.00,3207.00,,,,,,,,,,,,0,0,0,,-872,16472,-1224,45,368,-237
21.279,20.91,-0.41,0.25,-0.36,1.21,-1.17,-0.74,0.08,-1.15,0.17,3329.00,4095.00,752.00,1936.00,1086.00,3339.00,1519.00,3247.00,,,,,,,,,,,,0,0,0,,-728,16312,-1352,71,207,-51
21.361,20.97,-0.43,-0.43,0.63,0.01,-0.32,-0.64,0.28,-0.87,0.15,3193.00,4095.00,734.00,1984.00,1072.00,3307.00,1513.00,3213.00,,,,,,,,,,,,0,0,0,,-828,16332,-1324,62,91,-215
21.382,21.02,-0.42,-0.17,0.26,0.04,0.25,-0.28,-0.13,-0.61,-0.20,3244.00,4095.00,711.00,1951.00,1089.00,3297.00,1535.00,3210.00,,,,,,,,,,,,0,0,0,,-880,16280,-1360,-21,20,-182
21.443,21.08,-0.43,0.02,-0.03,0.34,-0.43,-0.65,0.01,-1.06,0.13,3283.00,4095.00,734.00,1964.00,1088.00,3333.00,1520.00,3239.00,,,,,,,,,,,,0,0,0,,-868,16260,-1392,-116,21,-197
21.484,21.14,-0.46,-0.61,0.91,0.13,-0.39,-0.95,0.39,-1.22,0.39,3157.00,4095.00,735.00,1978.00,1072.00,3339.00,1503.00,3237.00,,,,,,,,,,,,0,0,0,,-872,16276,-1408,-217,129,-223
21.546,21.19,-0.47,0.18,-0.26,-0.24,0.14,-0.67,0.04,-0.67,-0.18,3315.00,4095.00,719.00,1979.00,1087.00,3333.00,1535.00,3216.00,,,,,,,,,,,,0,0,0,,-868,16292,-1196,-186,144,-76
21.609,21.25,-0.47,-0.44,0.65,0.12,-0.18,-0.53,-0.25,-0.99,-0.07,3191.00,4095.00,727.00,1968.00,1101.00,3340.00,1535.00,3248.00,,,,,,,,,,,,0,0,0,,-796,16252,-1252,-167,142,-59
21.691,21.30,-0.50,-0.10,0.15,0.37,-0.82,-1.08,0.09,-1.32,0.07,3258.00,4095.00,749.00,1982.00,1092.00,3383.00,1532.00,3278.00,,,,,,,,,,,,0,0,0,,-916,16552,-1220,-37,139,-106
21.711,21.35,-0.52,-0.00,0.01,-0.73,-0.05,-0.99,0.39,-0.89,-0.01,3278.00,4095.00,733.00,2028.00,1073.00,3345.00,1527.00,3230.00,,,,,,,,,,,,0,0,0,,-836,16260,-1236,-84,179,-138
21.774,21.41,-0.50,-0.55,0.81,0.06,0.01,0.01,-0.64,-0.42,-0.55,3170.00,4095.00,720.00,1962.00,1114.00,3305.00,1559.00,3216.00,,,,,,,,,,,,0,0,0,,-836,16260,-1260,-144,143,-86
21.814,21.46,-0.51,0.28,-0.41,1.05,-1.12,-0.78,0.18,-1.23,0.16,3335.00,4095.00,752.00,1945.00,1081.00,3335.00,1522.00,3258.00,,,,,,,,,,,,0,0,0,,-792,16316,-1020,-127,226,-158
21.876,21.52,-0.52,-0.45,0.66,0.08,-0.22,-0.69,0.30,-1.00,0.23,3190.00,4095.00,729.00,1973.00,1072.00,3313.00,1510.00,3223.00,,,,,,,,,,,,0,0,0,,-832,16564,-1136,-109,204,-59
21.937,21.57,-0.51,-0.07,0.11,-0.00,0.11,-0.36,-0.09,-0.67,-0.16,3264.00,4095.00,717.00,1962.00,1088.00,3303.00,1533.00,3214.00,,,,,,,,,,,,0,0,0,,-884,16212,-1148,-59,151,-211
22.0,21.63,-0.52,0.04,-0.05,0.74,-0.54,-0.56,0.03,-1.01,0.05,3286.00,4095.00,733.00,1939.00,1085.00,3319.00,1525.00,3239.00,,,,,,,,,,,,0,0,0,,-840,16376,-1332,-160,-26,-134
22.083,21.68,-0.54,-0.52,0.77,0.26,-0.41,-0.92,0.39,-1.25,0.39,3175.00,4095.00,734.00,1969.00,1071.00,3334.00,1504.00,3241.00,,,,,,,,,,,,0,0,0,,-840,16324,-1132,-150,36,-158
22.124,21.74,-0.54,0.21,-0.31,-0.25,0.20,-0.62,0.12,-0.75,-0.14,3322.00,4095.00,717.00,1977.00,1081.00,3319.00,1534.00,3223.00,,,,,,,,,,,,0,0,0,,-720,16388,-1016,-156,146,-155
22.145,21.80,-0.54,-0.45,0.66,0.01,0.03,-0.49,-0.21,-0.99,-0.07,3190.00,4095.00,720.00,1965.00,1098.00,3332.00,1535.00,3248.00,,,,,,,,,,,,0,0,0,,-764,16412,-1144,-50,158,-116
22.209,21.85,-0.57,0.00,-0.00,0.44,-0.79,-1.13,0.19,-1.41,0.17,3279.00,4095.00,747.00,1975.00,1087.00,3381.00,1526.00,3280.00,,,,,,,,,,,,0,0,0,,-792,16296,-1148,-43,144,-171
22.25,21.91,-0.59,-0.03,0.04,-0.48,-0.08,-1.08,0.36,-1.15,0.10,3273.00,4095.00,731.00,2010.00,1076.00,3358.00,1525.00,3253.00,,,,,,,,,,,,0,0,0,,-752,16364,-1484,-103,132,-204
22.312,21.96,-0.58,-0.47,0.69,-0.44,0.13,-0.36,-0.54,-0.77,-0.48,3185.00,4095.00,722.00,1995.00,1115.00,3344.00,1563.00,3255.00,,,,,,,,,,,,0,0,0,,-888,16376,-1300,-101,123,-90
22.374,22.01,-0.61,0.31,-0.46,0.62,-1.22,-1.26,0.22,-1.53,0.19,3342.00,4095.00,762.00,1984.00,1088.00,3395.00,1528.00,3294.00,,,,,,,,,,,,0,0,0,,-828,16436,-1280,-73,77,-293
22.434,22.07,-0.63,-0.45,0.66,-0.08,-0.32,-0.93,0.38,-1.14,0.18,3190.00,4095.00,735.00,1991.00,1072.00,3337.00,1518.00,3245.00,,,,,,,,,,,,0,0,0,,-932,16240,-1236,-137,54,-135
22.495,22.12,-0.62,0.04,-0.06,0.03,0.15,-0.48,-0.03,-0.63,-0.18,3287.00,4095.00,715.00,1957.00,1087.00,3314.00,1534.00,3211.00,,,,,,,,,,,,0,0,0,,-772,16256,-1028,-106,67,-93
22.536,22.18,-0.61,0.01,-0.02,0.58,-0.16,-0.43,-0.08,-0.88,-0.04,3281.00,4095.00,720.00,1931.00,1089.00,3312.00,1529.00,3231.00,,,,,,,,,,,,0,0,0,,-776,16412,-1024,-130,266,-222
22.599,22.23,-0.62,-0.48,0.70,0.59,-0.44,-0.77,0.45,-1.20,0.35,3184.00,4095.00,731.00,1945.00,1065.00,3310.00,1506.00,3238.00,,,,,,,,,,,,0,0,0,,-844,16564,-1236,-138,285,-234
22.661,22.29,-0.61,0.25,-0.37,-0.12,0.31,-0.48,0.18,-0.74,-0.09,3330.00,4095.00,711.00,1961.00,1075.00,3296.00,1529.00,3217.00,,,,,,,,,,,,0,0,0,,-860,16200,-1288,-43,104,-116
22.701,22.34,-0.59,-0.45,0.66,0.46,-0.09,-0.19,-0.31,-0.81,-0.14,3189.00,4095.00,719.00,1937.00,1098.00,3301.00,1535.00,3230.00,,,,,,,,,,,,0,0,0,,-816,16332,-1060,-47,30,-150
22.805,22.40,-0.61,0.09,-0.14,0.51,-0.42,-0.85,0.18,-1.24,0.11,3298.00,4095.00,731.00,1950.00,1082.00,3344.00,1527.00,3264.00,,,,,,,,,,,,0,0,0,,-856,16336,-1112,-11,41,-206
22.825,22.45,-0.62,-0.02,0.04,-0.13,-0.10,-0.79,0.34,-0.97,0.09,3274.00,4095.00,727.00,1983.00,1072.00,3323.00,1521.00,3231.00,,,,,,,,,,,,0,0,0,,-844,16360,-1320,-68,40,-169
22.867,22.51,-0.59,-0.48,0.70,-0.12,0.20,-0.20,-0.41,-0.65,-0.45,3184.00,4095.00,715.00,1966.00,1104.00,3311.00,1557.00,3237.00,,,,,,,,,,,,0,0,0,,-796,16240,-1172,-56,131,-129
22.93,22.57,-0.61,0.34,-0.51,0.76,-1.07,-0.96,0.18,-1.45,0.25,3349.00,4095.00,754.00,1965.00,1084.00,3358.00,1521.00,3279.00,,,,,,,,,,,,0,0,0,,-752,16256,-1292,-39,199,-118
22.972,22.62,-0.64,-0.49,0.72,-0.26,-0.06,-1.06,0.48,-1.11,0.09,3181.00,4095.00,727.00,1991.00,1069.00,3346.00,1525.00,3249.00,,,,,,,,,,,,0,0,0,,-828,16300,-1240,-134,194,-154
23.033,22.67,-0.64,0.09,-0.13,-0.32,0.14,-0.67,0.02,-0.93,-0.09,3297.00,4095.00,720.00,1985.00,1088.00,3335.00,1535.00,3242.00,,,,,,,,,,,,0,0,0,,-740,16464,-1220,-99,148,-192
23.093,22.73,-0.64,-0.04,0.06,0.31,-0.42,-0.69,0.03,-1.15,0.04,3271.00,4095.00,734.00,1966.00,1088.00,3337.00,1530.00,3259.00,,,,,,,,,,,,0,0,0,,-856,16136,-1256,-157,44,-258
23.176,22.78,-0.65,-0.42,0.63,1.79,-1.00,-0.79,0.46,-1.23,0.40,3194.00,4095.00,737.00,1883.00,1065.00,3312.00,1503.00,3238.00,,,,,,,,,,,,0,0,0,,-892,16108,-988,-122,-42,-149
23.198,22.84,-0.63,0.22,-0.32,0.02,0.37,-0.38,0.15,-0.75,0.03,3323.00,4095.00,707.00,1947.00,1075.00,3286.00,1520.00,3209.00,,,,,,,,,,,,0,0,0,,-868,16360,-1008,-51,189,-78
23.26,22.89,-0.60,-0.48,0.70,0.43,-0.08,-0.05,-0.27,-0.70,-0.17,3184.00,4095.00,719.00,1939.00,1093.00,3280.00,1535.00,3219.00,,,,,,,,,,,,0,0,0,,-864,16436,-1068,40,437,-286
23.301,22.95,-0.61,0.12,-0.18,1.25,-1.14,-0.73,0.25,-1.12,0.09,3303.00,4095.00,750.00,1931.00,1076.00,3323.00,1525.00,3250.00,,,,,,,,,,,,0,0,0,,-904,16376,-1264,-78,237,-158
23.363,23.00,-0.61,-0.10,0.14,0.02,-0.07,-0.63,0.45,-0.87,0.08,3259.00,4095.00,724.00,1970.00,1062.00,3291.00,1519.00,3219.00,,,,,,,,,,,,0,0,0,,-908,16352,-1100,-29,103,-125
23.425,23.06,-0.57,-0.41,0.60,0.18,0.05,0.15,-0.52,-0.41,-0.51,3197.00,4095.00,717.00,1951.00,1104.00,3276.00,1555.00,3211.00,,,,,,,,,,,,0,0,0,,-836,16260,-1224,-74,55,-176
23.529,23.11,-0.58,0.32,-0.47,1.15,-1.16,-0.79,0.28,-1.21,0.17,3344.00,4095.00,752.00,1939.00,1075.00,3327.00,1521.00,3255.00,,,,,,,,,,,,0,0,0,,-768,16344,-1236,-71,77,-195
23.55,23.17,-0.59,-0.57,0.84,0.06,-0.06,-0.77,0.48,-0.95,0.20,3165.00,4095.00,723.00,1966.00,1063.00,3307.00,1511.00,3219.00,,,,,,,,,,,,0,0,0,,-868,16412,-1156,-76,73,-168
23.592,23.23,-0.59,0.09,-0.13,-0.53,0.60,-0.45,0.05,-0.67,-0.11,3297.00,4095.00,705.00,1977.00,1082.00,3303.00,1529.00,3210.00,,,,,,,,,,,,0,0,0,,-916,16264,-1112,-46,116,-211
23.654,23.28,-0.59,-0.13,0.20,0.24,-0.22,-0.57,0.00,-1.09,0.07,3252.00,4095.00,727.00,1961.00,1087.00,3323.00,1526.00,3248.00,,,,,,,,,,,,0,0,0,,-844,16252,-1328,-75,153,-235
23.715,23.33,-0.61,-0.44,0.65,0.29,-0.47,-1.03,0.42,-1.32,0.33,3191.00,4095.00,736.00,1970.00,1072.00,3347.00,1511.00,3255.00,,,,,,,,,,,,0,0,0,,-736,16360,-1272,-73,189,-86
23.756,23.39,-0.62,0.19,-0.28,-0.57,0.25,-0.90,0.27,-1.71,1.05,3317.00,4095.00,719.00,1999.00,1078.00,3343.00,1463.00,3242.00,,,,,,,,,,,,0,0,0,,-804,16304,-1264,-87,165,-334
23.818,23.44,-0.60,-0.54,0.80,0.18,-0.15,-0.11,-0.39,-0.74,-0.16,3171.00,4095.00,725.00,1962.00,1101.00,3298.00,1535.00,3223.00,,,,,,,,,,,,0,0,0,,-948,16284,-1012,-102,33,-138
23.921,23.50,-0.61,0.18,-0.27,1.29,-1.20,-0.77,0.28,-1.36,0.24,3316.00,4095.00,752.00,1931.00,1075.00,3325.00,1519.00,3268.00,,,,,,,,,,,,0,0,0,,-948,16244,-960,-93,125,-29
23.942,23.55,-0.60,-0.18,0.27,0.26,-0.18,-0.46,0.33,-0.91,0.22,3242.00,4095.00,725.00,1957.00,1066.00,3280.00,1509.00,3213.00,,,,,,,,,,,,0,0,0,,-816,16308,-1104,-27,401,-258
23.963,23.61,-0.57,-0.40,0.60,0.21,0.28,0.01,-0.29,-0.38,-0.48,3198.00,4095.00,708.00,1937.00,1093.00,3274.00,1552.00,3205.00,,,,,,,,,,,,0,0,0,,-716,16412,-1292,-16,327,-334
24.048,23.66,-0.57,0.29,-0.42,1.26,-0.92,-0.51,0.19,-1.02,0.14,3337.00,4095.00,741.00,1919.00,1075.00,3299.00,1518.00,3233.00,,,,,,,,,,,,0,0,0,,-744,16332,-1196,-86,65,-99
24.089,23.72,-0.57,-0.60,0.89,0.39,-0.15,-0.70,0.60,-1.00,0.33,3159.00,4095.00,722.00,1945.00,1055.00,3287.00,1502.00,3214.00,,,,,,,,,,,,0,0,0,,-756,16344,-1184,-79,51,-160
24.15,23.77,-0.56,0.07,-0.11,1.28,-1.61,-0.29,0.10,-0.62,-0.08,3294.00,4095.00,769.00,1953.00,1076.00,3278.00,1525.00,3201.00,,,,,,,,,,,,0,0,0,,-804,16296,-1060,-62,123,-234
24.211,23.83,-0.55,-0.15,0.23,0.67,-0.29,-0.37,-0.06,-0.86,-0.02,3248.00,4095.00,724.00,1931.00,1087.00,3303.00,1527.00,3227.00,,,,,,,,,,,,0,0,0,,-824,16344,-1176,-34,138,-205
24.271,23.89,-0.56,-0.39,0.58,0.60,-0.57,-0.88,0.42,-1.09,0.26,3200.00,4095.00,736.00,1951.00,1069.00,3327.00,1510.00,3231.00,,,,,,,,,,,,0,0,0,,-856,16336,-1188,-45,71,-169
24.292,23.94,-0.58,0.16,-0.24,-0.19,0.18,-0.89,0.47,-1.08,0.22,3312.00,4095.00,717.00,1973.00,1066.00,3324.00,1513.00,3234.00,,,,,,,,,,,,0,0,0,,-724,16272,-1144,-103,128,-165
24.355,24.00,-0.56,-0.61,0.91,-0.05,0.05,-0.25,-0.37,-0.66,-0.41,3157.00,4095.00,720.00,1969.00,1103.00,3315.00,1554.00,3235.00,,,,,,,,,,,,0,0,0,,-968,16260,-1104,-151,213,-223
24.416,24.05,-0.59,0.19,-0.28,1.01,-1.33,-1.15,0.27,-1.46,0.27,3317.00,4095.00,761.00,1959.00,1083.00,3376.00,1520.00,3279.00,,,,,,,,,,,,0,0,0,,-908,16440,-1284,-16,137,-195
24.457,24.10,-0.61,-0.23,0.34,-0.37,-0.25,-0.93,0.50,-1.04,0.16,3232.00,4095.00,736.00,2010.00,1065.00,3326.00,1517.00,3234.00,,,,,,,,,,,,0,0,0,,-848,16264,-1092,-87,-37,-279
24.539,24.16,-0.58,-0.37,0.55,-0.24,0.35,-0.02,-0.32,-0.55,-0.22,3204.00,4095.00,711.00,1968.00,1095.00,3280.00,1535.00,3205.00,,,,,,,,,,,,0,0,0,,-996,16264,-1156,-139,-73,-207
24.643,24.21,-0.58,0.24,-0.35,1.12,-0.72,-0.48,0.23,-0.99,0.14,3327.00,4095.00,735.00,1919.00,1072.00,3291.00,1517.00,3229.00,,,,,,,,,,,,0,0,0,,-860,16308,-940,-167,143,-120
24.664,24.27,-0.58,-0.56,0.82,0.47,-0.15,-0.64,0.56,-1.05,0.41,3168.00,4095.00,721.00,1939.00,1056.00,3283.00,1497.00,3214.00,,,,,,,,,,,,0,0,0,,-880,16236,-1204,-51,428,-386
24.685,24.32,-0.57,0.07,-0.11,0.10,0.44,-0.36,0.19,-0.35,-0.20,3294.00,4095.00,703.00,1937.00,1072.00,3279.00,1528.00,3178.00,,,,,,,,,,,,0,0,0,,-896,16284,-1156,-87,176,-158
24.725,24.38,-0.55,-0.18,0.26,0.74,-0.24,-0.24,-0.07,-0.88,0.04,3243.00,4095.00,721.00,1923.00,1085.00,3287.00,1522.00,3223.00,,,,,,,,,,,,0,0,0,,-848,16332,-1028,0,80,-131
24.787,24.43,-0.57,-0.39,0.58,0.58,-0.29,-0.85,0.53,-1.07,0.28,3200.00,4095.00,725.00,1938.00,1062.00,3313.00,1508.00,3227.00,,,,,,,,,,,,0,0,0,,-828,16276,-1096,8,68,-161
24.85,24.49,-0.57,0.16,-0.24,-0.12,0.03,-0.61,0.31,-0.88,0.09,3312.00,4095.00,722.00,1976.00,1070.00,3301.00,1518.00,3219.00,,,,,,,,,,,,0,0,0,,-848,16244,-1268,42,90,-176
24.892,24.55,-0.55,-0.64,0.94,0.15,0.06,-0.12,-0.42,-0.55,-0.43,3152.00,4095.00,717.00,1953.00,1103.00,3302.00,1552.00,3222.00,,,,,,,,,,,,0,0,0,,-852,16272,-1292,-50,30,-192
24.953,24.60,-0.57,0.22,-0.33,1.08,-1.15,-1.11,0.39,-1.33,0.25,3324.00,4095.00,753.00,1945.00,1075.00,3360.00,1518.00,3264.00,,,,,,,,,,,,0,0,0,,-1024,16364,-1204,-127,75,-183
25.014,24.66,-0.59,-0.25,0.37,-0.05,-0.33,-0.91,0.55,-1.06,0.20,3229.00,4095.00,735.00,1989.00,1062.00,3319.00,1514.00,3233.00,,,,,,,,,,,,0,0,0,,-912,16356,-1080,-134,127,-125
25.056,24.71,-0.58,-0.32,0.47,-0.18,0.23,-0.39,-0.19,-0.56,-0.45,3215.00,4095.00,715.00,1970.00,1095.00,3317.00,1554.00,3225.00,,,,,,,,,,,,0,0,0,,-760,16340,-1052,-133,200,-153
25.118,24.76,-0.60,0.20,-0.29,0.43,-0.64,-0.89,0.20,-1.24,0.19,3319.00,4095.00,741.00,1968.00,1082.00,3348.00,1520.00,3257.00,,,,,,,,,,,,0,0,0,,-968,16508,-1316,-100,130,-195
25.181,24.82,-0.62,-0.63,0.94,0.02,-0.23,-0.97,0.59,-1.18,0.40,3153.00,4095.00,730.00,1978.00,1061.00,3324.00,1501.00,3231.00,,,,,,,,,,,,0,0,0,,-1036,16220,-1056,-147,31,-133
25.241,24.87,-0.60,0.16,-0.24,-0.03,0.38,-0.33,0.11,-0.61,-0.02,3312.00,4095.00,707.00,1950.00,1076.00,3282.00,1520.00,3195.00,,,,,,,,,,,,0,0,0,,-912,16228,-900,-129,51,-24
25.304,24.93,-0.59,-0.26,0.39,0.66,-0.16,-0.39,0.11,-0.82,0.04,3226.00,4095.00,719.00,1925.00,1077.00,3290.00,1521.00,3216.00,,,,,,,,,,,,0,0,0,,-988,16328,-932,-131,324,-183
25.366,24.98,-0.60,-0.24,0.35,0.86,-0.66,-0.86,0.58,-1.13,0.31,3231.00,4095.00,736.00,1936.00,1059.00,3310.00,1507.00,3232.00,,,,,,,,,,,,0,0,0,,-1012,16564,-1216,-146,363,-145
25.386,25.04,-0.61,0.16,-0.24,-0.09,0.06,-0.69,0.47,-0.97,0.24,3312.00,4095.00,720.00,1971.00,1062.00,3297.00,1509.00,3219.00,,,,,,,,,,,,0,0,0,,-904,16280,-1100,-103,122,-104
25.448,25.09,-0.58,-0.59,0.87,0.31,0.01,-0.01,-0.39,-0.67,-0.18,3162.00,4095.00,717.00,1943.00,1099.00,3285.00,1535.00,3216.00,,,,,,,,,,,,0,0,0,,-888,16360,-1068,-38,38,-167
25.509,25.15,-0.59,0.29,-0.42,1.05,-1.00,-0.78,0.18,-1.17,0.20,3337.00,4095.00,747.00,1939.00,1081.00,3335.00,1517.00,3247.00,,,,,,,,,,,,0,0,0,,-892,16400,-1152,20,93,-189
25.572,25.20,-0.63,-0.31,0.46,-0.09,-0.14,-1.43,1.45,-0.88,0.13,3216.00,4095.00,728.00,1982.00,1021.00,3307.00,1515.00,3216.00,,,,,,,,,,,,0,0,0,,-888,16328,-1124,-22,101,-183
25.633,25.26,-0.62,-0.24,0.36,0.11,-0.00,-0.42,-0.08,-0.66,-0.19,3230.00,4095.00,720.00,1959.00,1089.00,3311.00,1535.00,3215.00,,,,,,,,,,,,0,0,0,,-968,16296,-1192,-28,89,-193
25.675,25.32,-0.63,0.19,-0.28,0.55,-0.48,-0.89,0.30,-1.22,0.23,3317.00,4095.00,733.00,1950.00,1076.00,3339.00,1516.00,3251.00,,,,,,,,,,,,0,0,0,,-900,16392,-1196,-126,171,-147
25.737,25.37,-0.66,-0.64,0.94,-0.17,0.04,-1.17,0.65,-1.24,0.41,3152.00,4095.00,722.00,1979.00,1061.00,3344.00,1502.00,3238.00,,,,,,,,,,,,0,0,0,,-864,16388,-1212,-157,213,-184
25.799,25.42,-0.66,0.19,-0.28,-0.51,0.44,-0.75,0.22,-0.87,-0.00,3318.00,4095.00,711.00,1984.00,1078.00,3328.00,1526.00,3227.00,,,,,,,,,,,,0,0,0,,-848,16328,-1192,-142,225,-36
25.84,25.48,-0.67,-0.31,0.46,0.23,-0.35,-0.86,0.14,-1.10,0.08,3216.00,4095.00,732.00,1968.00,1085.00,3350.00,1525.00,3248.00,,,,,,,,,,,,0,0,0,,-816,16304,-1180,-138,91,-220
25.882,25.53,-0.69,-0.17,0.26,0.58,-0.76,-1.00,0.41,-1.14,0.16,3244.00,4095.00,744.00,1963.00,1072.00,3344.00,1520.00,3247.00,,,,,,,,,,,,0,0,0,,-948,16220,-1020,-99,31,-146
25.963,25.59,-0.70,0.15,-0.22,-0.02,-0.03,-0.79,0.51,-0.90,0.14,3309.00,4095.00,723.00,1971.00,1062.00,3307.00,1515.00,3218.00,,,,,,,,,,,,0,0,0,,-908,16312,-1036,-9,126,-23
26.004,25.64,-0.67,-0.59,0.87,0.28,0.10,-0.15,-0.24,-0.65,-0.19,3162.00,4095.00,714.00,1941.00,1093.00,3290.00,1535.00,3214.00,,,,,,,,,,,,0,0,0,,-752,16380,-1176,-44,215,75
26.105,25.70,-0.68,0.31,-0.46,0.52,-0.21,-0.97,0.40,-1.31,0.25,3343.00,4095.00,723.00,1939.00,1072.00,3341.00,1517.00,3261.00,,,,,,,,,,,,0,0,0,,-800,16280,-1192,-8,192,-174
26.147,25.75,-0.69,-0.35,0.51,-0.16,0.04,-0.88,0.63,-1.03,0.29,3209.00,4095.00,722.00,1978.00,1057.00,3309.00,1506.00,3221.00,,,,,,,,,,,,0,0,0,,-860,16320,-1272,-33,71,-96
26.168,25.81,-0.68,-0.20,0.29,-0.03,0.35,-0.52,0.24,-0.68,-0.06,3239.00,4095.00,708.00,1951.00,1072.00,3295.00,1525.00,3207.00,,,,,,,,,,,,0,0,0,,-824,16324,-1136,-69,5,-177
26.229,25.86,-0.69,0.09,-0.14,0.71,-0.48,-0.81,0.34,-1.12,0.15,3298.00,4095.00,731.00,1938.00,1072.00,3325.00,1520.00,3245.00,,,,,,,,,,,,0,0,0,,-816,16408,-1092,-48,-30,-205
26.27,25.92,-0.71,-0.56,0.82,0.24,-0.30,-1.02,0.59,-1.25,0.46,3168.00,4095.00,730.00,1965.00,1062.00,3331.00,1498.00,3234.00,,,,,,,,,,,,0,0,0,,-956,16324,-1080,-22,29,-224
26.332,25.98,-0.71,0.20,-0.29,-0.31,0.32,-0.76,0.27,-0.84,0.06,3319.00,4095.00,713.00,1975.00,1075.00,3324.00,1520.00,3217.00,,,,,,,,,,,,0,0,0,,-900,16356,-1108,-35,171,-125
26.395,26.03,-0.71,-0.39,0.57,0.00,0.01,-0.75,0.05,-1.09,0.05,3201.00,4095.00,721.00,1967.00,1088.00,3343.00,1527.00,3249.00,,,,,,,,,,,,0,0,0,,-924,16452,-1064,-85,173,-25
26.479,26.08,-0.74,-0.09,0.13,0.22,-0.62,-1.18,0.31,-1.46,0.28,3261.00,4095.00,743.00,1983.00,1081.00,3376.00,1519.00,3278.00,,,,,,,,,,,,0,0,0,,-888,16140,-1384,-130,241,17
26.5,26.14,-0.76,0.06,-0.09,-0.77,0.22,-1.23,0.53,-1.15,0.05,3291.00,4095.00,723.00,2017.00,1069.00,3363.00,1529.00,3257.00,,,,,,,,,,,,0,0,0,,-1012,16468,-1024,-157,200,-19
26.563,26.19,-0.75,-0.54,0.80,-0.28,0.10,-0.47,-0.31,-0.88,-0.11,3171.00,4095.00,721.00,1984.00,1104.00,3339.00,1535.00,3237.00,,,,,,,,,,,,0,0,0,,-848,16264,-848,-149,280,60
26.605,26.25,-0.77,0.33,-0.49,0.86,-1.03,-1.18,0.43,-1.48,0.34,3347.00,4095.00,751.00,1955.00,1074.00,3366.00,1514.00,3274.00,,,,,,,,,,,,0,0,0,,-736,16264,-1208,-132,294,-2
26.667,26.30,-0.78,-0.40,0.59,-0.10,0.04,-1.00,0.65,-1.08,0.34,3199.00,4095.00,721.00,1973.00,1058.00,3322.00,1503.00,3223.00,,,,,,,,,,,,0,0,0,,-752,16408,-1052,-12,327,-155
26.729,26.36,-0.77,-0.07,0.10,-0.18,0.48,-0.56,0.14,-0.84,0.04,3265.00,4095.00,705.00,1956.00,1079.00,3310.00,1521.00,3218.00,,,,,,,,,,,,0,0,0,,-768,16576,-1216,-100,260,-177
26.772,26.41,-0.77,0.08,-0.12,0.39,-0.22,-0.87,0.31,-1.04,0.15,3295.00,4095.00,725.00,1949.00,1075.00,3335.00,1518.00,3235.00,,,,,,,,,,,,0,0,0,,-768,16300,-1032,-145,166,-162
26.835,26.47,-0.79,-0.49,0.72,0.16,-0.17,-1.04,0.61,-1.30,0.44,3181.00,4095.00,726.00,1964.00,1061.00,3331.00,1501.00,3243.00,,,,,,,,,,,,0,0,0,,-644,16304,-1092,-157,67,-220
26.898,26.52,-0.78,0.28,-0.41,-0.26,0.35,-0.75,0.32,-0.87,0.05,3335.00,4095.00,711.00,1969.00,1072.00,3319.00,1521.00,3221.00,,,,,,,,,,,,0,0,0,,-796,16388,-1016,-103,56,-182
26.961,26.58,-0.78,-0.39,0.58,-0.06,0.08,-0.62,0.00,-1.06,0.08,3200.00,4095.00,719.00,1968.00,1088.00,3330.00,1524.00,3243.00,,,,,,,,,,,,0,0,0,,-720,16348,-1060,-95,123,-243
26.982,26.64,-0.80,0.00,-0.00,0.59,-0.84,-1.27,0.41,-1.37,0.24,3279.00,4095.00,747.00,1966.00,1077.00,3380.00,1520.00,3270.00,,,,,,,,,,,,0,0,0,,-744,16224,-1056,-92,107,-136
27.044,26.69,-0.82,0.03,-0.05,-0.44,-0.04,-1.19,0.61,-1.14,0.17,3285.00,4095.00,729.00,2005.00,1064.00,3351.00,1519.00,3246.00,,,,,,,,,,,,0,0,0,,-792,16232,-916,10,159,-11
27.105,26.75,-0.82,-0.48,0.71,-0.25,0.12,-0.73,-0.14,-0.78,-0.36,3183.00,4095.00,720.00,1981.00,1099.00,3358.00,1553.00,3246.00,,,,,,,,,,,,0,0,0,,-812,16288,-952,15,215,-18
27.208,26.80,-0.85,0.32,-0.47,0.68,-1.07,-1.42,0.36,-1.58,0.23,3344.00,4095.00,755.00,1971.00,1083.00,3404.00,1526.00,3297.00,,,,,,,,,,,,0,0,0,,-740,16444,-1008,-10,234,-88
27.25,26.85,-0.87,-0.47,0.69,-0.57,0.10,-1.35,0.71,-1.23,0.33,3185.00,4095.00,725.00,2007.00,1061.00,3363.00,1508.00,3243.00,,,,,,,,,,,,0,0,0,,-720,16320,-1180,-175,109,-246
27.27,26.91,-0.85,0.03,-0.04,-0.26,0.38,-0.51,-0.03,-0.88,0.13,3284.00,4095.00,710.00,1968.00,1088.00,3319.00,1515.00,3216.00,,,,,,,,,,,,0,0,0,,-740,16232,-984,-139,36,-198
27.331,26.96,-0.85,0.02,-0.03,0.57,-0.26,-0.86,0.36,-1.04,0.19,3283.00,4095.00,724.00,1937.00,1072.00,3330.00,1515.00,3232.00,,,,,,,,,,,,0,0,0,,-744,16380,-888,-133,119,-157
27.372,27.02,-0.86,-0.45,0.66,0.39,-0.22,-1.03,0.61,-1.24,0.46,3189.00,4095.00,725.00,1949.00,1061.00,3330.00,1498.00,3233.00,,,,,,,,,,,,0,0,0,,-660,16240,-904,-114,217,2
27.454,27.07,-0.86,0.25,-0.36,-0.33,0.46,-0.78,0.37,-0.57,-0.02,3329.00,4095.00,708.00,1969.00,1070.00,3319.00,1519.00,3190.00,,,,,,,,,,,,0,0,0,,-772,16276,-1056,-222,171,-339
27.515,27.13,-0.84,-0.46,0.68,-0.07,0.19,-0.54,-0.02,-0.87,-0.10,3187.00,4095.00,715.00,1963.00,1088.00,3322.00,1534.00,3235.00,,,,,,,,,,,,0,0,0,,-752,16424,-1088,-73,15,-183
27.578,27.18,-0.86,0.16,-0.23,0.88,-0.94,-1.22,0.43,-1.26,0.21,3311.00,4095.00,747.00,1949.00,1075.00,3371.00,1519.00,3258.00,,,,,,,,,,,,0,0,0,,-904,16264,-1116,-12,1,-137
27.599,27.24,-0.88,-0.04,0.06,-0.30,0.06,-1.20,0.72,-1.06,0.22,3271.00,4095.00,723.00,1988.00,1058.00,3343.00,1513.00,3232.00,,,,,,,,,,,,0,0,0,,-776,16260,-864,92,149,-159
27.661,27.30,-0.86,-0.42,0.62,-0.19,0.25,-0.56,-0.22,-0.73,-0.16,3195.00,4095.00,714.00,1969.00,1100.00,3342.00,1535.00,3222.00,,,,,,,,,,,,0,0,0,,-800,16312,-1136,28,197,-156
27.703,27.35,-0.89,0.32,-0.47,0.57,-0.74,-1.33,0.43,-1.42,0.31,3344.00,4095.00,743.00,1962.00,1077.00,3386.00,1515.00,3270.00,,,,,,,,,,,,0,0,0,,-752,16208,-1240,-39,178,-89
27.765,27.41,-0.91,-0.48,0.70,-0.28,-0.02,-1.33,0.53,-1.33,0.34,3184.00,4095.00,726.00,1991.00,1071.00,3376.00,1510.00,3255.00,,,,,,,,,,,,0,0,0,,-756,16388,-1172,-162,180,-145
27.827,27.46,-0.92,0.11,-0.17,-0.77,0.53,-1.16,0.39,-1.01,0.06,3302.00,4095.00,711.00,2000.00,1076.00,3367.00,1524.00,3238.00,,,,,,,,,,,,0,0,0,,-756,16272,-1072,-251,158,-123
27.952,27.51,-0.94,-0.06,0.09,-0.15,0.01,-1.27,0.25,-1.33,0.25,3266.00,4095.00,723.00,1979.00,1086.00,3393.00,1518.00,3264.00,,,,,,,,,,,,0,0,0,,-804,16376,-1284,-167,132,-450
27.973,27.57,-0.96,-0.34,0.50,0.19,-0.46,-1.39,0.69,-1.22,0.41,3211.00,4095.00,737.00,1977.00,1063.00,3370.00,1502.00,3236.00,,,,,,,,,,,,0,0,0,,-792,16300,-1120,-146,-71,-233
27.993,27.62,-0.96,0.26,-0.39,-0.24,0.35,-0.96,0.56,-0.89,0.11,3332.00,4095.00,711.00,1968.00,1062.00,3324.00,1517.00,3219.00,,,,,,,,,,,,0,0,0,,-872,16164,-804,-94,-74,-104
28.034,27.68,-0.93,-0.48,0.71,0.20,0.05,-0.28,-0.18,-0.62,-0.20,3183.00,4095.00,717.00,1950.00,1092.00,3301.00,1535.00,3211.00,,,,,,,,,,,,0,0,0,,-1020,16332,-876,-149,285,-167
28.095,27.73,-0.93,0.24,-0.36,1.06,-0.88,-1.08,0.52,-1.25,0.38,3328.00,4095.00,742.00,1932.00,1067.00,3344.00,1505.00,3242.00,,,,,,,,,,,,0,0,0,,-936,16560,-1184,-185,348,92
28.137,27.79,-0.94,-0.13,0.20,-0.09,-0.01,-0.97,0.71,-0.95,0.30,3252.00,4095.00,723.00,1975.00,1054.00,3313.00,1503.00,3210.00,,,,,,,,,,,,0,0,0,,-728,16192,-908,-171,236,-5
28.199,27.84,-0.91,-0.33,0.48,-0.33,0.53,-0.34,-0.09,-0.51,-0.23,3213.00,4095.00,705.00,1965.00,1088.00,3301.00,1535.00,3201.00,,,,,,,,,,,,0,0,0,,-732,16436,-1072,-105,154,-138
28.261,27.90,-0.91,0.32,-0.48,0.83,-0.63,-0.94,0.45,-1.03,0.19,3345.00,4095.00,735.00,1936.00,1068.00,3332.00,1514.00,3230.00,,,,,,,,,,,,0,0,0,,-752,16368,-1168,-67,59,-171
28.322,27.95,-0.92,-0.52,0.77,-0.16,0.24,-1.10,0.77,-1.09,0.50,3175.00,4095.00,714.00,1967.00,1053.00,3325.00,1491.00,3211.00,,,,,,,,,,,,0,0,0,,-700,16368,-984,-155,-9,-226
28.363,28.01,-0.91,0.18,-0.26,-1.02,0.82,-0.73,0.33,-0.61,0.00,3315.00,4095.00,703.00,2004.00,1071.00,3315.00,1518.00,3193.00,,,,,,,,,,,,0,0,0,,-920,16268,-1092,-146,75,-200
28.427,28.07,-0.91,-0.15,0.23,0.28,-0.06,-0.90,0.32,-0.94,0.09,3248.00,4095.00,720.00,1949.00,1075.00,3338.00,1520.00,3227.00,,,,,,,,,,,,0,0,0,,-808,16196,-848,-97,174,-138
28.53,28.12,-0.93,-0.25,0.37,0.10,-0.41,-1.29,0.64,-1.37,0.54,3229.00,4095.00,736.00,1981.00,1064.00,3361.00,1495.00,3243.00,,,,,,,,,,,,0,0,0,,-748,16244,-984,-26,173,-63
28.551,28.17,-0.94,0.22,-0.32,-0.56,0.15,-1.20,0.51,-1.07,0.17,3323.00,4095.00,723.00,2004.00,1070.00,3361.00,1517.00,3237.00,,,,,,,,,,,,0,0,0,,-776,16392,-1100,-25,225,-64
28.591,28.23,-0.93,-0.49,0.72,-0.33,0.33,-0.65,-0.07,-0.68,-0.18,3181.00,4095.00,713.00,1976.00,1093.00,3340.00,1535.00,3217.00,,,,,,,,,,,,0,0,0,,-804,16236,-888,-224,98,-269
28.674,28.28,-0.94,0.30,-0.44,1.40,-1.65,-1.14,0.61,-1.25,0.34,3339.00,4095.00,769.00,1946.00,1063.00,3344.00,1508.00,3245.00,,,,,,,,,,,,0,0,0,,-856,16264,-960,-136,29,-111
28.695,28.34,-0.93,-0.16,0.24,-0.13,0.26,-0.91,0.69,-0.97,0.38,3246.00,4095.00,713.00,1964.00,1054.00,3307.00,1497.00,3206.00,,,,,,,,,,,,0,0,0,,-740,16408,-948,-39,180,-28
28.757,28.39,-0.90,-0.23,0.34,0.13,0.43,-0.31,0.12,-0.36,-0.29,3233.00,4095.00,703.00,1935.00,1075.00,3279.00,1535.00,3186.00,,,,,,,,,,,,0,0,0,,-736,16376,-1060,-4,212,-97
28.818,28.45,-0.89,0.26,-0.38,0.92,-0.40,-0.72,0.47,-0.90,0.27,3331.00,4095.00,725.00,1918.00,1063.00,3302.00,1504.00,3206.00,,,,,,,,,,,,0,0,0,,-860,16244,-1232,-113,69,-131
28.859,28.50,-0.90,-0.55,0.81,0.16,0.09,-0.98,0.85,-0.84,0.45,3170.00,4095.00,716.00,1951.00,1046.00,3302.00,1488.00,3184.00,,,,,,,,,,,,0,0,0,,-788,16324,-908,-78,122,-84
28.921,28.56,-0.89,0.25,-0.36,-0.19,0.75,-0.68,0.49,-0.47,-0.07,3329.00,4095.00,695.00,1943.00,1061.00,3295.00,1520.00,3181.00,,,,,,,,,,,,0,0,0,,-672,16296,-888,-38,233,-108
28.982,28.61,-0.88,-0.26,0.38,0.43,-0.00,-0.67,0.28,-0.82,0.12,3227.00,4095.00,716.00,1935.00,1073.00,3312.00,1514.00,3209.00,,,,,,,,,,,,0,0,0,,-752,16392,-1084,-19,216,-110
29.043,28.67,-0.89,-0.15,0.23,0.52,-0.29,-1.04,0.52,-0.84,0.06,3248.00,4095.00,726.00,1943.00,1066.00,3339.00,1520.00,3217.00,,,,,,,,,,,,0,0,0,,-772,16332,-996,-81,72,-167
29.084,28.73,-0.89,0.18,-0.26,-0.20,0.08,-1.03,0.64,-0.86,0.21,3315.00,4095.00,721.00,1979.00,1059.00,3327.00,1508.00,3207.00,,,,,,,,,,,,0,0,0,,-788,16356,-1000,-158,97,-126
29.189,28.78,-0.87,-0.55,0.81,-0.10,0.20,-0.44,-0.16,-0.64,-0.17,3169.00,4095.00,715.00,1965.00,1094.00,3321.00,1533.00,3211.00,,,,,,,,,,,,0,0,0,,-692,16340,-1016,-125,222,-220
29.21,28.83,-0.89,0.37,-0.54,0.65,-0.96,-1.28,0.52,-1.31,0.28,3354.00,4095.00,751.00,1968.00,1071.00,3371.00,1515.00,3259.00,,,,,,,,,,,,0,0,0,,-744,16296,-984,-144,271,-64
29.252,28.89,-0.91,-0.32,0.48,-0.50,0.13,-1.32,0.88,-1.20,0.42,3214.00,4095.00,723.00,2000.00,1051.00,3344.00,1500.00,3232.00,,,,,,,,,,,,0,0,0,,-828,16440,-944,-156,136,-271
29.314,28.94,-0.90,-0.08,0.12,-0.23,0.50,-0.59,0.22,-0.61,-0.02,3263.00,4095.00,705.00,1959.00,1075.00,3307.00,1520.00,3195.00,,,,,,,,,,,,0,0,0,,-696,16288,-1056,-194,15,-122
29.355,29.00,-0.88,0.17,-0.26,0.85,-0.38,-0.67,0.47,-1.01,0.31,3314.00,4095.00,725.00,1922.00,1062.00,3295.00,1504.00,3217.00,,,,,,,,,,,,0,0,0,,-676,16264,-804,-114,106,13
29.438,29.05,-0.89,-0.48,0.70,0.70,-0.12,-1.01,0.95,-1.04,0.52,3184.00,4095.00,717.00,1920.00,1041.00,3297.00,1488.00,3203.00,,,,,,,,,,,,0,0,0,,-740,16236,-764,-72,400,-212
29.48,29.11,-0.87,0.31,-0.46,0.03,0.52,-0.47,0.38,-0.51,0.02,3343.00,4095.00,701.00,1938.00,1063.00,3277.00,1514.00,3179.00,,,,,,,,,,,,0,0,0,,-652,16456,-1080,-3,419,-285
29.541,29.16,-0.85,-0.31,0.46,0.34,0.18,-0.52,0.26,-0.77,0.04,3216.00,4095.00,710.00,1932.00,1071.00,3294.00,1519.00,3209.00,,,,,,,,,,,,0,0,0,,-672,16184,-932,-134,125,-1
29.583,29.22,-0.86,0.01,-0.01,0.54,-0.32,-0.90,0.49,-1.08,0.31,3280.00,4095.00,727.00,1943.00,1065.00,3323.00,1506.00,3226.00,,,,,,,,,,,,0,0,0,,-644,16356,-868,-48,93,-155
29.624,29.27,-0.86,0.10,-0.15,-0.10,0.20,-0.89,0.63,-0.95,0.31,3300.00,4095.00,715.00,1965.00,1057.00,3310.00,1502.00,3209.00,,,,,,,,,,,,0,0,0,,-736,16244,-932,-26,114,-175
29.687,29.33,-0.83,-0.47,0.69,0.06,0.25,-0.37,-0.10,-0.58,-0.21,3185.00,4095.00,711.00,1950.00,1089.00,3306.00,1535.00,3207.00,,,,,,,,,,,,0,0,0,,-748,16300,-948,-25,69,-180
29.811,29.39,-0.85,0.38,-0.56,0.19,0.31,-1.10,0.54,-1.31,0.37,3357.00,4095.00,707.00,1937.00,1066.00,3345.00,1507.00,3250.00,,,,,,,,,,,,0,0,0,,-832,16348,-1044,-39,93,-154
29.853,29.44,-0.86,-0.39,0.58,-0.20,0.08,-1.11,0.74,-1.07,0.34,3200.00,4095.00,721.00,1979.00,1055.00,3329.00,1503.00,3222.00,,,,,,,,,,,,0,0,0,,-716,16392,-772,-98,175,-15
29.873,29.50,-0.86,0.09,-0.14,-0.26,0.38,-0.83,0.35,-0.90,0.03,3298.00,4095.00,710.00,1968.00,1072.00,3327.00,1524.00,3227.00,,,,,,,,,,,,0,0,0,,-700,16216,-996,-103,287,-130
29.915,29.55,-0.86,0.08,-0.12,0.29,-0.34,-0.94,0.20,-1.24,0.19,3295.00,4095.00,731.00,1963.00,1083.00,3355.00,1520.00,3257.00,,,,,,,,,,,,0,0,0,,-680,16440,-1060,-91,226,-177
29.977,29.60,-0.88,-0.34,0.51,-0.04,-0.08,-1.26,0.82,-1.38,0.61,3210.00,4095.00,725.00,1975.00,1053.00,3341.00,1490.00,3239.00,,,,,,,,,,,,0,0,0,,-788,16176,-960,-179,80,-223
30.038,29.66,-0.88,0.32,-0.48,-0.25,0.59,-0.75,0.49,-0.73,0.03,3345.00,4095.00,702.00,1956.00,1062.00,3303.00,1519.00,3206.00,,,,,,,,,,,,1,0,0,,-688,16208,-688,-144,28,-94
30.1,29.71,-0.85,-0.40,0.59,0.22,0.22,-0.44,0.17,-0.84,0.04,3199.00,4095.00,710.00,1939.00,1075.00,3292.00,1521.00,3218.00,,,,,,,,,,,,1,0,0,,-616,16480,-612,-106,254,-87
30.162,29.77,-0.86,0.21,-0.31,0.83,-0.63,-1.06,0.65,-1.41,0.41,3321.00,4095.00,735.00,1936.00,1059.00,3330.00,1507.00,3260.00,,,,,,,,,,,,1,0,0,,-664,16192,-916,-92,271,54
30.183,29.82,-0.87,0.04,-0.06,-0.08,0.11,-1.08,0.99,-1.01,0.31,3287.00,4095.00,718.00,1968.00,1040.00,3302.00,1504.00,3217.00,,,,,,,,,,,,1,0,0,,-712,16212,-936,-44,166,-213
30.244,29.88,-0.84,-0.34,0.50,-1.16,2.03,-0.26,-0.10,-0.66,-0.19,3211.00,4095.00,660.00,1951.00,1087.00,3292.00,1535.00,3215.00,,,,,,,,,,,,1,0,0,,-728,16412,-832,-50,69,-96
30.285,29.93,-0.85,0.44,-0.66,0.93,-0.86,-1.02,0.52,-1.36,0.39,3370.00,4095.00,743.00,1941.00,1066.00,3337.00,1507.00,3255.00,,,,,,,,,,,,1,0,0,,-712,16332,-944,-18,151,-247
30.348,29.99,-0.87,-0.45,0.66,0.11,-0.00,-1.10,0.86,-1.36,0.54,3189.00,4095.00,720.00,1959.00,1048.00,3317.00,1495.00,3242.00,,,,,,,,,,,,1,0,0,,-724,16296,-896,-31,114,-200
30.41,30.05,-0.86,0.22,-0.32,-0.30,0.50,-0.79,0.46,-0.88,0.04,3323.00,4095.00,706.00,1965.00,1065.00,3312.00,1522.00,3223.00,,,,,,,,,,,,1,0,0,,-848,16308,-1020,-76,62,-173
30.452,30.10,-0.87,-0.02,0.03,0.08,-0.07,-0.96,0.44,-1.29,0.22,3275.00,4095.00,723.00,1965.00,1069.00,3335.00,1519.00,3261.00,,,,,,,,,,,,1,0,0,,-776,16388,-1052,-97,146,-137
30.554,30.16,-0.90,-0.24,0.35,0.28,-0.44,-1.44,0.80,-1.52,0.48,3231.00,4095.00,735.00,1969.00,1058.00,3367.00,1504.00,3268.00,,,,,,,,,,,,1,0,0,,-712,16404,-1000,-104,203,-158
30.575,30.21,-0.92,0.36,-0.53,-0.58,0.31,-1.38,0.79,-1.35,0.28,3352.00,4095.00,717.00,1997.00,1057.00,3360.00,1516.00,3264.00,,,,,,,,,,,,1,0,0,,-696,16272,-828,-102,235,-94
30.614,30.26,-0.92,-0.43,0.63,-0.38,0.14,-0.90,0.10,-1.17,-0.01,3193.00,4095.00,721.00,1990.00,1088.00,3358.00,1535.00,3266.00,,,,,,,,,,,,1,0,0,,-652,16404,-1068,-178,139,-351
30.677,30.32,-0.94,0.39,-0.58,0.75,-1.02,-1.37,0.65,-1.53,0.36,3359.00,4095.00,752.00,1963.00,1065.00,3371.00,1514.00,3279.00,,,,,,,,,,,,1,0,0,,-824,16192,-1048,-229,30,-162
30.74,30.37,-0.96,-0.01,0.01,-0.20,0.15,-1.25,0.96,-1.30,0.39,3277.00,4095.00,718.00,1975.00,1045.00,3327.00,1505.00,3247.00,,,,,,,,,,,,1,0,0,,-736,16280,-724,-206,106,-67
30.802,30.43,-0.92,-0.15,0.23,-0.06,0.50,-0.32,-0.05,-0.74,-0.16,3248.00,4095.00,703.00,1946.00,1085.00,3295.00,1535.00,3223.00,,,,,,,,,,,,1,0,0,,-740,16188,-724,-170,318,-172
30.884,30.48,-0.93,0.47,-0.70,0.74,-0.54,-0.96,0.51,-1.44,0.39,3376.00,4095.00,733.00,1939.00,1065.00,3329.00,1509.00,3265.00,,,,,,,,,,,,1,0,0,,-548,16360,-1056,-96,235,-253
30.904,30.54,-0.94,-0.37,0.55,-0.74,0.26,-1.17,0.86,-3.29,1.13,3204.00,4095.00,721.00,2012.00,1049.00,3325.00,1500.00,3445.00,,,,,,,,,,,,1,0,0,,-764,16320,-1080,-157,15,-124
30.966,30.59,-0.93,0.40,-0.59,-0.52,0.65,-0.77,0.43,-1.10,0.14,3360.00,4095.00,703.00,1974.00,1066.00,3311.00,1520.00,3243.00,,,,,,,,,,,,1,0,0,,-708,16296,-932,-74,-66,-220
31.008,30.65,-0.93,-0.02,0.04,0.25,-0.05,-0.91,0.38,-1.28,0.12,3274.00,4095.00,720.00,1951.00,1072.00,3335.00,1527.00,3268.00,,,,,,,,,,,,1,0,0,,-688,16276,-916,-112,-25,-253
31.071,30.70,-0.95,-0.01,0.02,0.37,-0.34,-1.36,0.78,-1.57,0.47,3276.00,4095.00,730.00,1957.00,1057.00,3357.00,1506.00,3275.00,,,,,,,,,,,,1,0,0,,-800,16292,-912,-176,-53,-230
31.154,30.76,-0.97,0.39,-0.58,-0.66,0.26,-1.29,0.73,-1.40,0.26,3359.00,4095.00,720.00,2006.00,1059.00,3353.00,1519.00,3272.00,,,,,,,,,,,,1,0,0,,-796,16344,-804,-274,-7,-238
31.175,30.82,-0.96,-0.36,0.54,-0.35,0.31,-0.86,0.17,-1.31,0.03,3206.00,4095.00,714.00,1979.00,1083.00,3347.00,1535.00,3280.00,,,,,,,,,,,,1,0,0,,-784,16268,-640,-253,79,-289
31.258,30.87,-0.99,0.56,-0.83,1.22,-2.02,-1.62,0.66,-1.91,0.44,3395.00,4095.00,787.00,1979.00,1069.00,3403.00,1518.00,3322.00,,,,,,,,,,,,1,0,0,,-740,16244,-684,-326,86,-206
31.278,30.92,-1.02,-0.06,0.09,-0.63,0.04,-1.59,0.85,-1.65,0.39,3267.00,4095.00,728.00,2015.00,1058.00,3383.00,1515.00,3293.00,,,,,,,,,,,,1,0,0,,-648,16532,-872,-222,21,-253
31.341,30.98,-1.02,0.06,-0.08,-0.69,0.50,-0.94,0.20,-1.26,0.02,3290.00,4095.00,711.00,1995.00,1083.00,3355.00,1535.00,3275.00,,,,,,,,,,,,1,0,0,,-760,16284,-664,-262,-34,-303
31.381,31.03,-1.02,0.47,-0.69,-0.39,0.07,-1.06,0.48,-1.50,0.32,3375.00,4095.00,724.00,1995.00,1069.00,3345.00,1517.00,3280.00,,,,,,,,,,,,1,0,0,,-896,16196,-500,-236,-74,-312
31.442,31.09,-1.01,-0.34,0.50,0.15,-0.01,-0.88,0.84,-1.67,0.59,3211.00,4095.00,720.00,1957.00,1045.00,3290.00,1499.00,3277.00,,,,,,,,,,,,1,0,0,,-808,16368,-672,-276,20,-269
31.505,31.14,-1.01,0.63,-0.92,-0.60,0.78,-0.88,0.47,-1.24,0.19,3408.00,4095.00,699.00,1973.00,1066.00,3323.00,1520.00,3257.00,,,,,,,,,,,,1,0,0,,-764,16304,-556,-244,141,-206
31.546,31.20,-1.00,-0.07,0.11,0.31,-0.07,-0.85,0.29,-1.51,0.20,3264.00,4095.00,720.00,1947.00,1076.00,3335.00,1527.00,3291.00,,,,,,,,,,,,1,0,0,,-868,16284,-500,-262,65,-377
31.629,31.25,-1.01,0.28,-0.41,0.48,-0.51,-1.26,0.49,-1.69,0.34,3335.00,4095.00,735.00,1957.00,1072.00,3371.00,1520.00,3302.00,,,,,,,,,,,,1,0,0,,-896,16344,-520,-179,-26,-438
31.691,31.31,-1.03,0.47,-0.69,-0.50,0.13,-1.34,0.83,-1.50,0.32,3375.00,4095.00,723.00,2000.00,1054.00,3351.00,1517.00,3280.00,,,,,,,,,,,,1,0,0,,-984,16252,-488,-141,0,-380
31.712,31.36,-1.02,-0.24,0.36,-0.35,0.52,-0.76,0.05,-1.16,-0.22,3230.00,4095.00,706.00,1968.00,1088.00,3344.00,1552.00,3283.00,,,,,,,,,,,,1,0,0,,-964,16316,-488,-221,82,-415
31.775,31.42,-1.05,0.77,-1.14,0.60,-0.90,-1.63,0.82,-1.90,0.42,3439.00,4095.00,749.00,1968.00,1060.00,3390.00,1519.00,3322.00,,,,,,,,,,,,1,0,0,,-1056,16260,-468,-264,247,-318
31.836,31.48,-1.07,-0.08,0.12,-0.65,0.25,-1.53,0.90,-1.85,0.50,3263.00,4095.00,720.00,2005.00,1054.00,3370.00,1511.00,3308.00,,,,,,,,,,,,1,0,0,,-988,16196,-460,-253,330,-225
31.898,31.53,-1.08,0.34,-0.51,-0.97,1.12,-1.28,0.50,-1.42,0.08,3349.00,4095.00,691.00,1984.00,1072.00,3373.00,1534.00,3290.00,,,,,,,,,,,,1,0,0,,-1056,16336,-472,-197,236,-315
31.981,31.58,-1.11,0.46,-0.68,-0.08,-0.17,-1.57,0.60,-1.84,0.28,3373.00,4095.00,729.00,1983.00,1072.00,3403.00,1529.00,3327.00,,,,,,,,,,,,1,0,0,,-1008,16416,-436,-42,114,-186
32.002,31.64,-1.14,-0.12,0.18,-0.21,-0.27,-1.79,0.90,-1.95,0.61,3254.00,4095.00,735.00,1999.00,1059.00,3405.00,1505.00,3312.00,,,,,,,,,,,,1,0,0,,-1040,16184,-532,-86,-44,-349
32.064,31.69,-1.14,0.69,-1.02,-0.72,0.51,-1.17,0.62,-1.45,0.24,3422.00,4095.00,711.00,1997.00,1063.00,3347.00,1522.00,3280.00,,,,,,,,,,,,1,0,0,,-1000,16056,-592,-141,-108,-131
32.105,31.75,-1.13,-0.13,0.19,-0.01,0.19,-0.88,0.31,-1.44,0.08,3253.00,4095.00,714.00,1958.00,1075.00,3336.00,1535.00,3293.00,,,,,,,,,,,,1,0,0,,-992,16096,-748,-203,-45,20
32.167,31.80,-1.14,0.48,-0.71,0.46,-0.58,-1.37,0.79,-1.87,0.41,3377.00,4095.00,738.00,1962.00,1057.00,3359.00,1519.00,3319.00,,,,,,,,,,,,1,0,0,,-1028,16508,-536,-189,6,156
32.229,31.86,-1.14,0.41,-0.60,-0.43,0.03,-1.16,0.70,-1.63,0.44,3362.00,4095.00,726.00,2000.00,1058.00,3339.00,1510.00,3285.00,,,,,,,,,,,,1,0,0,,-988,16636,-684,-101,-100,275
32.271,31.91,-1.12,-0.10,0.14,-0.84,1.24,-0.69,0.11,-1.36,0.05,3259.00,4095.00,685.00,1968.00,1083.00,3329.00,1535.00,3285.00,,,,,,,,,,,,1,0,0,,-880,16420,-744,97,45,0
32.374,31.97,-1.13,0.79,-1.16,0.40,-0.51,-1.43,0.76,-1.89,0.47,3442.00,4095.00,736.00,1963.00,1060.00,3369.00,1515.00,3317.00,,,,,,,,,,,,1,0,0,,-740,16176,-652,124,-141,-26
32.394,32.03,-1.15,-0.21,0.31,-0.48,0.28,-1.50,1.03,-1.73,0.53,3237.00,4095.00,717.00,1991.00,1046.00,3354.00,1506.00,3291.00,,,,,,,,,,,,1,0,0,,-904,16276,-540,-147,-98,-120
32.477,32.08,-1.14,0.43,-0.63,-0.74,0.73,-0.99,0.45,-1.38,0.24,3366.00,4095.00,703.00,1987.00,1069.00,3338.00,1520.00,3271.00,,,,,,,,,,,,1,0,0,,-848,16380,-396,-464,-92,-69
32.498,32.14,-1.14,0.17,-0.25,-0.02,0.04,-1.12,0.38,-1.80,0.40,3313.00,4095.00,720.00,1967.00,1076.00,3363.00,1518.00,3311.00,,,,,,,,,,,,1,0,0,,-872,16244,-752,-271,-17,-139
32.539,32.19,-1.18,-0.17,0.26,-0.42,0.10,-1.81,1.08,-1.99,0.65,3244.00,4095.00,723.00,1995.00,1049.00,3391.00,1503.00,3314.00,,,,,,,,,,,,1,0,0,,-1016,16200,-344,-356,-88,-118
32.601,32.25,-1.20,0.56,-0.82,-0.90,0.44,-1.55,0.78,-1.77,0.33,3393.00,4095.00,716.00,2015.00,1061.00,3383.00,1523.00,3313.00,,,,,,,,,,,,1,0,0,,-908,15964,-460,-65,-140,-64
32.662,32.30,-1.20,-0.41,0.61,-0.52,0.21,-1.23,0.21,-1.73,0.17,3196.00,4095.00,720.00,1997.00,1088.00,3392.00,1535.00,3322.00,,,,,,,,,,,,1,0,0,,-1360,17100,-44,-693,-39,-367
32.723,32.35,-1.22,0.35,-0.51,0.27,-0.76,-1.65,0.62,-1.63,-0.20,3350.00,4095.00,748.00,1987.00,1072.00,3411.00,1564.00,3343.00,,,,,,,,,,,,1,0,0,,-952,16584,104,-1178,535,-448
32.784,32.41,-1.23,-0.04,0.06,-0.39,0.14,-1.33,0.87,-1.62,0.43,3270.00,4095.00,721.00,1991.00,1052.00,3347.00,1511.00,3285.00,,,,,,,,,,,,1,0,0,,-1024,16604,-40,-913,188,-111
32.845,32.47,-1.20,-0.17,0.25,-0.15,0.50,-0.63,0.18,-1.22,0.00,3245.00,4095.00,704.00,1953.00,1078.00,3316.00,1535.00,3271.00,,,,,,,,,,,,1,0,0,,-908,16292,172,-824,161,-97
32.866,32.52,-1.20,0.62,-0.91,0.71,-0.48,-1.23,0.76,-1.64,0.43,3406.00,4095.00,731.00,1938.00,1056.00,3343.00,1511.00,3287.00,,,,,,,,,,,,1,0,0,,-956,16324,124,-566,408,-402
32.928,32.58,-1.21,-0.33,0.48,-0.12,0.15,-1.35,1.06,-1.65,0.55,3213.00,4095.00,717.00,1969.00,1041.00,3331.00,1502.00,3279.00,,,,,,,,,,,,1,0,0,,-1028,16224,256,-467,293,-277
32.991,32.63,-1.18,0.61,-0.90,-0.18,0.62,-0.80,0.53,-1.17,0.17,3405.00,4095.00,700.00,1949.00,1061.00,3307.00,1520.00,3250.00,,,,,,,,,,,,1,0,0,,-912,16244,272,-317,18,-184
33.134,32.69,-1.17,0.25,-0.37,0.40,0.03,-0.81,0.34,-1.41,0.26,3330.00,4095.00,715.00,1935.00,1072.00,3325.00,1519.00,3273.00,,,,,,,,,,,,1,0,0,,-956,16228,428,-295,-197,-126
33.155,32.74,-1.17,0.18,-0.26,0.16,-0.25,-1.32,0.91,-1.77,0.65,3315.00,4095.00,729.00,1968.00,1049.00,3341.00,1497.00,3285.00,,,,,,,,,,,,1,0,0,,-796,16256,552,-498,-119,-155
33.177,32.80,-1.18,0.85,-1.26,-0.16,0.11,-1.27,0.79,-1.60,0.40,3456.00,4095.00,719.00,1974.00,1055.00,3345.00,1513.00,3285.00,,,,,,,,,,,,1,0,0,,-992,16272,616,-496,160,-180
33.198,32.85,-1.16,-0.10,0.14,-0.26,0.38,-0.78,0.09,-1.37,0.05,3259.00,4095.00,710.00,1968.00,1086.00,3343.00,1535.00,3286.00,,,,,,,,,,,,1,0,0,,-952,16328,656,-419,176,-89
33.262,32.91,-1.18,1.02,-1.50,0.46,-0.70,-1.56,0.68,-1.30,0.22,3491.00,4095.00,743.00,1969.00,1067.00,3394.00,1519.00,3262.00,,,,,,,,,,,,1,0,1,,-912,16300,416,-54,201,-96
33.323,32.96,-1.20,0.43,-0.63,-0.70,0.30,-1.55,0.95,-1.81,0.55,3367.00,4095.00,719.00,2007.00,1051.00,3367.00,1506.00,3299.00,,,,,,,,,,,,1,0,1,,-768,16356,324,-98,290,-41
33.386,33.02,-1.18,0.43,-0.63,-0.63,0.58,-0.92,0.29,-1.28,0.02,3366.00,4095.00,707.00,1986.00,1077.00,3344.00,1535.00,3277.00,,,,,,,,,,,,1,0,1,,-748,16136,380,-11,213,3
33.467,33.07,-1.18,1.06,-1.56,-0.04,0.05,-1.06,0.55,-1.65,0.45,3500.00,4095.00,720.00,1968.00,1065.00,3339.00,1510.00,3287.00,,,,,,,,,,,,1,0,1,,-872,16192,456,-196,98,-46
33.488,33.13,-1.19,0.13,-0.19,-0.14,0.19,-1.37,1.16,-1.87,0.92,3305.00,4095.00,716.00,1969.00,1036.00,3325.00,1478.00,3274.00,,,,,,,,,,,,1,0,1,,-736,16224,516,51,265,19
33.53,33.18,-1.17,1.23,-1.82,-0.68,1.05,-0.82,0.71,-1.14,0.19,3538.00,4095.00,690.00,1965.00,1051.00,3293.00,1517.00,3244.00,,,,,,,,,,,,1,0,1,,-796,16272,336,-62,453,-196
33.591,33.24,-1.15,0.63,-0.92,0.21,0.15,-0.73,0.37,-1.36,0.27,3408.00,4095.00,713.00,1944.00,1069.00,3312.00,1517.00,3266.00,,,,,,,,,,,,1,0,1,,-644,16312,84,-23,309,-135
33.653,33.29,-1.15,1.31,-1.93,0.49,-0.23,-1.14,0.80,-1.57,0.46,3554.00,4095.00,724.00,1942.00,1052.00,3327.00,1507.00,3276.00,,,,,,,,,,,,1,0,1,,-688,16156,360,-26,114,-40
33.714,33.35,-1.15,1.27,-1.88,-0.40,0.30,-1.19,0.94,-1.39,0.36,3547.00,4095.00,715.00,1983.00,1045.00,3321.00,1510.00,3261.00,,,,,,,,,,,,1,0,1,,-684,16252,292,35,93,-153
33.775,33.40,-1.12,0.46,-0.68,-0.50,0.49,-0.64,0.23,-1.08,-0.04,3374.00,4095.00,709.00,1981.00,1075.00,3312.00,1535.00,3257.00,,,,,,,,,,,,1,0,1,,-604,16184,320,116,85,-92
33.836,33.46,-1.13,1.66,-2.45,0.53,-0.70,-1.36,0.78,-1.81,0.53,3632.00,4095.00,742.00,1963.00,1057.00,3357.00,1508.00,3301.00,,,,,,,,,,,,1,0,1,,-744,16316,212,137,80,-181
33.877,33.51,-1.14,0.81,-1.19,-0.35,0.15,-1.32,0.98,-1.49,0.46,3446.00,4095.00,720.00,1987.00,1045.00,3334.00,1505.00,3266.00,,,,,,,,,,,,1,0,1,,-688,16132,24,155,119,-146
33.959,33.57,-1.13,1.14,-1.68,-2.47,3.45,-0.89,0.52,-1.34,0.21,3518.00,4095.00,626.00,1978.00,1063.00,3319.00,1521.00,3268.00,,,,,,,,,,,,1,0,1,,-620,16228,244,-7,179,-235
33.98,33.62,-1.13,1.44,-2.12,0.16,-0.15,-1.10,0.52,-1.65,0.41,3583.00,4095.00,725.00,1963.00,1067.00,3346.00,1513.00,3290.00,,,,,,,,,,,,1,0,1,,-764,16264,164,-50,121,-142
34.042,33.67,-1.15,0.56,-0.82,-0.49,0.23,-1.54,1.06,-1.71,0.63,3393.00,4095.00,719.00,1994.00,1045.00,3357.00,1497.00,3279.00,,,,,,,,,,,,1,0,1,,-800,16480,216,-113,156,-279
34.084,33.73,-1.14,1.67,-2.47,-0.59,0.62,-0.87,0.60,-1.17,0.24,3635.00,4095.00,705.00,1981.00,1058.00,3309.00,1514.00,3244.00,,,,,,,,,,,,1,0,1,,-768,16208,356,-13,187,-228
34.147,33.78,-1.11,0.85,-1.25,-0.14,0.27,-0.72,0.38,-1.27,0.26,3455.00,4095.00,713.00,1965.00,1068.00,3309.00,1515.00,3255.00,,,,,,,,,,,,1,0,1,,-760,16260,400,-56,173,-138
34.189,33.84,-1.11,1.36,-2.01,0.58,-0.44,-1.00,0.70,-1.50,0.49,3566.00,4095.00,731.00,1946.00,1055.00,3318.00,1503.00,3265.00,,,,,,,,,,,,1,0,1,,-632,16164,324,48,266,-209
34.272,33.90,-1.10,1.44,-2.12,-0.33,0.28,-0.94,0.82,-1.36,0.44,3583.00,4095.00,715.00,1979.00,1047.00,3299.00,1503.00,3251.00,,,,,,,,,,,,1,0,1,,-708,16432,152,97,319,-194
34.312,33.95,-1.06,0.66,-0.97,-0.48,0.59,-0.37,0.07,-0.89,-0.11,3415.00,4095.00,705.00,1974.00,1079.00,3291.00,1535.00,3238.00,,,,,,,,,,,,1,0,1,,-752,16288,60,25,223,-212
34.394,34.01,-1.06,1.75,-2.59,0.93,-0.78,-1.08,0.71,-1.65,0.54,3653.00,4095.00,740.00,1937.00,1056.00,3327.00,1503.00,3280.00,,,,,,,,,,,,1,0,1,,-816,16252,128,-11,118,-149
34.414,34.06,-1.07,0.77,-1.13,-0.36,0.18,-1.10,1.02,-1.40,0.58,3438.00,4095.00,719.00,1986.00,1039.00,3303.00,1493.00,3244.00,,,,,,,,,,,,1,0,1,,-728,16260,136,129,225,-167
34.476,34.12,-1.04,1.37,-2.02,-0.61,0.68,-0.61,0.45,-1.00,0.11,3568.00,4095.00,703.00,1979.00,1062.00,3289.00,1520.00,3233.00,,,,,,,,,,,,1,0,1,,-804,16228,32,161,323,-198
34.557,34.17,-1.04,1.42,-2.09,0.32,-0.10,-0.95,0.61,-1.37,0.42,3578.00,4095.00,721.00,1948.00,1059.00,3319.00,1505.00,3254.00,,,,,,,,,,,,1,0,1,,-772,16392,144,164,227,-29
34.578,34.23,-1.06,0.78,-1.15,-0.56,0.40,-1.43,1.15,-1.76,0.85,3440.00,4095.00,713.00,1990.00,1038.00,3335.00,1481.00,3267.00,,,,,,,,,,,,1,0,1,,-648,16200,128,42,213,47
34.64,34.28,-1.05,1.81,-2.66,-1.16,0.84,-0.97,0.59,-1.23,0.30,3665.00,4095.00,704.00,2014.00,1061.00,3324.00,1511.00,3246.00,,,,,,,,,,,,1,0,1,,-736,16356,40,-39,253,-152
34.701,34.34,-1.05,0.88,-1.30,-0.56,0.23,-0.90,0.32,-1.27,0.19,3462.00,4095.00,720.00,2000.00,1075.00,3338.00,1521.00,3261.00,,,,,,,,,,,,1,0,1,,-632,16500,-104,-2,188,-254
34.742,34.39,-1.05,1.66,-2.45,0.35,-0.61,-1.21,0.77,-1.62,0.52,3632.00,4095.00,741.00,1973.00,1055.00,3339.00,1504.00,3278.00,,,,,,,,,,,,1,0,1,,-836,16208,188,-123,48,-251
34.804,34.45,-1.04,1.54,-2.27,-0.77,0.35,-0.86,0.92,-1.20,0.50,3605.00,4095.00,718.00,2010.00,1040.00,3280.00,1494.00,3225.00,,,,,,,,,,,,1,0,1,,-740,16168,140,-45,-75,-165
34.865,34.50,-1.00,1.05,-1.55,-0.48,0.66,-0.10,0.10,-0.61,-0.09,3499.00,4095.00,702.00,1970.00,1072.00,3253.00,1526.00,3201.00,,,,,,,,,,,,1,0,1,,-680,16280,212,-103,63,-77
34.948,34.56,-0.98,2.01,-2.97,0.71,-0.48,-0.72,0.71,-1.38,0.56,3712.00,4095.00,731.00,1938.00,1049.00,3280.00,1494.00,3243.00,,,,,,,,,,,,1,0,1,,-540,16236,192,44,107,-146
34.968,34.61,-0.98,0.88,-1.29,-0.24,0.30,-0.90,1.06,-1.14,0.55,3461.00,4095.00,713.00,1971.00,1033.00,3273.00,1488.00,3213.00,,,,,,,,,,,,1,0,1,,-636,16228,-84,45,-107,-168
35.03,34.67,-0.95,1.67,-2.46,-0.58,1.04,-0.45,0.66,-0.64,0.15,3634.00,4095.00,689.00,1958.00,1047.00,3250.00,1507.00,3184.00,,,,,,,,,,,,1,0,1,,-668,16252,-84,-71,-151,-102
35.072,34.72,-0.94,1.43,-2.12,0.28,0.02,-0.62,0.63,-1.03,0.38,3582.00,4095.00,717.00,1945.00,1052.00,3275.00,1499.00,3214.00,,,,,,,,,,,,1,0,1,,-752,16424,-44,-113,-120,-272
35.133,34.78,-0.94,0.92,-1.36,0.38,-0.09,-1.02,1.02,-1.24,0.60,3470.00,4095.00,720.00,1943.00,1037.00,3291.00,1487.00,3222.00,,,,,,,,,,,,1,0,1,,-748,16340,224,-74,-36,-202
35.196,34.83,-0.93,1.74,-2.57,-0.45,0.68,-0.81,0.85,-0.97,0.37,3651.00,4095.00,701.00,1967.00,1043.00,3280.00,1498.00,3207.00,,,,,,,,,,,,1,0,1,,-796,16200,156,-2,70,-157
35.299,34.89,-0.91,0.69,-1.02,-0.11,0.33,-0.40,0.20,-0.89,0.07,3422.00,4095.00,710.00,1959.00,1072.00,3283.00,1520.00,3222.00,,,,,,,,,,,,1,0,1,,-728,16244,64,-67,61,-136
35.321,34.94,-0.92,1.65,-2.43,1.06,-1.05,-1.11,0.75,-1.42,0.45,3630.00,4095.00,749.00,1941.00,1054.00,3327.00,1504.00,3258.00,,,,,,,,,,,,1,0,1,,-660,16264,152,-151,62,-141
35.362,35.00,-0.93,1.14,-1.68,-0.63,0.25,-1.23,1.04,-1.22,0.50,3517.00,4095.00,720.00,2004.00,1040.00,3317.00,1494.00,3227.00,,,,,,,,,,,,1,0,1,,-652,16356,-16,-45,135,-112
35.425,35.05,-0.90,0.82,-1.20,-0.52,0.57,-0.35,0.17,-0.56,-0.22,3448.00,4095.00,706.00,1978.00,1073.00,3280.00,1535.00,3206.00,,,,,,,,,,,,1,0,1,,-640,16364,36,-1,4,-276
35.487,35.10,-0.90,1.63,-2.40,1.01,-0.56,-0.81,0.78,-1.09,0.50,3625.00,4095.00,730.00,1919.00,1047.00,3286.00,1491.00,3211.00,,,,,,,,,,,,1,0,1,,-796,16244,68,-112,-125,-237
35.55,35.16,-0.90,0.54,-0.80,0.05,0.35,-0.88,1.23,-0.88,0.54,3390.00,4095.00,707.00,1945.00,1023.00,3255.00,1482.00,3181.00,,,,,,,,,,,,1,0,1,,-796,16288,200,-68,-8,-134
35.571,35.22,-0.86,1.50,-2.22,-0.13,0.89,-0.17,0.56,-0.46,0.23,3597.00,4095.00,689.00,1931.00,1047.00,3222.00,1495.00,3154.00,,,,,,,,,,,,1,0,1,,-656,16244,164,-12,145,-77
35.697,35.27,-0.84,1.01,-1.49,0.54,0.30,-0.38,0.60,-0.74,0.33,3490.00,4095.00,703.00,1911.00,1049.00,3246.00,1495.00,3181.00,,,,,,,,,,,,1,0,1,,-672,16284,-16,-88,179,-173
35.719,35.33,-0.83,0.83,-1.22,0.48,-0.10,-0.63,0.84,-0.89,0.63,3450.00,4095.00,719.00,1936.00,1040.00,3257.00,1475.00,3175.00,,,,,,,,,,,,1,0,1,,-792,16272,116,-148,261,-207
35.76,35.38,-0.81,1.52,-2.24,-0.11,0.51,-0.54,0.83,-0.72,0.41,3601.00,4095.00,703.00,1949.00,1039.00,3247.00,1488.00,3172.00,,,,,,,,,,,,1,0,1,,-848,16400,40,-486,-32,-327
35.802,35.44,-0.77,0.54,-0.79,0.10,0.42,0.01,0.08,-0.36,-0.08,3389.00,4095.00,704.00,1938.00,1071.00,3241.00,1518.00,3168.00,,,,,,,,,,,,1,0,1,,-876,16344,220,-536,-193,-126
35.864,35.49,-0.78,1.59,-2.34,0.78,-0.73,-0.95,0.91,-1.17,0.56,3616.00,4095.00,740.00,1946.00,1042.00,3292.00,1488.00,3216.00,,,,,,,,,,,,1,0,1,,-812,16300,316,-65,46,-50
35.927,35.55,-0.78,0.90,-1.33,-0.68,0.42,-0.84,1.00,-0.85,0.50,3466.00,4095.00,714.00,1999.00,1035.00,3270.00,1484.00,3180.00,,,,,,,,,,,,1,0,1,,-664,16320,40,231,228,-21
35.97,35.60,-0.76,0.80,-1.18,-0.16,0.53,-0.28,0.27,-0.47,-0.11,3445.00,4095.00,703.00,1952.00,1066.00,3262.00,1523.00,3184.00,,,,,,,,,,,,1,0,1,,-708,16356,-128,156,396,-227
36.032,35.66,-0.76,1.43,-2.12,0.47,-0.27,-0.87,0.75,-1.03,0.39,3582.00,4095.00,726.00,1946.00,1050.00,3297.00,1498.00,3213.00,,,,,,,,,,,,1,0,1,,-628,16200,-156,112,394,-6
36.074,35.71,-0.79,0.32,-0.47,-0.29,0.13,-1.22,1.13,-0.92,0.55,3344.00,4095.00,720.00,1983.00,1035.00,3309.00,1482.00,3185.00,,,,,,,,,,,,1,0,1,,-688,16316,-400,10,165,-266
36.116,35.77,-0.78,1.22,-1.79,-0.57,0.72,-0.70,0.74,-0.42,0.20,3534.00,4095.00,701.00,1974.00,1047.00,3275.00,1497.00,3152.00,,,,,,,,,,,,1,0,1,,-764,16316,-160,-244,99,-317
36.2,35.82,-0.76,0.58,-0.85,0.39,0.24,-0.33,0.49,-0.65,0.35,3398.00,4095.00,707.00,1925.00,1054.00,3249.00,1491.00,3168.00,,,,,,,,,,,,1,0,1,,-748,16248,124,-179,174,-218
36.22,35.88,-0.75,0.51,-0.75,0.38,-0.09,-0.59,0.88,-0.81,0.59,3383.00,4095.00,720.00,1943.00,1037.00,3249.00,1476.00,3168.00,,,,,,,,,,,,1,0,1,,-712,16284,236,-443,332,-379
36.283,35.93,-0.74,1.02,-1.50,0.08,0.24,-0.44,0.81,-0.58,0.40,3491.00,4095.00,711.00,1949.00,1038.00,3235.00,1485.00,3155.00,,,,,,,,,,,,1,0,1,,-792,16332,224,-242,209,-421
36.389,35.99,-0.70,0.02,-0.03,0.10,0.55,0.03,0.16,-0.16,-0.14,3283.00,4095.00,699.00,1931.00,1066.00,3231.00,1517.00,3148.00,,,,,,,,,,,,1,0,1,,-848,16200,284,-192,34,-81
36.41,36.04,-0.70,1.15,-1.70,1.27,-0.82,-0.69,0.84,-0.85,0.45,3520.00,4095.00,737.00,1913.00,1041.00,3265.00,1488.00,3185.00,,,,,,,,,,,,1,0,1,,-780,16312,336,-123,76,-150
36.451,36.10,-0.70,0.33,-0.49,-0.06,0.37,-0.80,1.20,-1.95,0.90,3346.00,4095.00,708.00,1953.00,1023.00,3248.00,1482.00,3287.00,,,,,,,,,,,,1,0,1,,-820,16092,316,-40,177,-45
36.514,36.15,-0.67,-0.08,0.12,0.01,0.63,-0.02,0.20,-0.18,-0.14,3263.00,4095.00,697.00,1934.00,1065.00,3235.00,1518.00,3151.00,,,,,,,,,,,,1,0,1,,-920,16688,332,-236,416,-651
36.577,36.21,-0.67,0.79,-1.16,0.34,0.05,-0.62,0.75,-0.69,0.40,3442.00,4095.00,715.00,1939.00,1045.00,3264.00,1488.00,3169.00,,,,,,,,,,,,1,0,1,,-700,16272,296,-114,190,-76
36.62,36.26,-0.69,-0.10,0.14,0.46,-0.07,-1.06,1.29,-0.82,0.58,3259.00,4095.00,718.00,1936.00,1023.00,3273.00,1477.00,3170.00,,,,,,,,,,,,1,0,1,,-716,16256,164,-24,151,-49
36.682,36.32,-0.68,0.92,-1.36,-0.78,0.95,-0.53,0.68,-0.38,0.12,3471.00,4095.00,695.00,1978.00,1047.00,3258.00,1502.00,3154.00,,,,,,,,,,,,1,0,1,,-828,16224,400,-245,297,-3
36.765,36.37,-0.67,0.24,-0.36,0.02,0.16,-0.51,0.46,-0.64,0.22,3328.00,4095.00,715.00,1958.00,1059.00,3274.00,1501.00,3178.00,,,,,,,,,,,,1,0,1,,-748,16480,216,-163,231,-333
36.787,36.42,-0.67,0.47,-0.70,0.30,-0.25,-0.75,0.83,-0.77,0.40,3376.00,4095.00,727.00,1957.00,1043.00,3274.00,1490.00,3179.00,,,,,,,,,,,,1,0,1,,-728,16264,288,-372,-8,-156
36.828,36.48,-0.66,0.82,-1.21,0.23,0.24,-0.42,0.88,-0.45,0.36,3449.00,4095.00,709.00,1937.00,1034.00,3227.00,1485.00,3143.00,,,,,,,,,,,,1,0,1,,-856,16320,380,-205,9,-63
36.891,36.53,-0.61,-0.07,0.11,0.21,0.48,0.36,-0.04,-0.06,-0.12,3264.00,4095.00,700.00,1926.00,1071.00,3206.00,1513.00,3134.00,,,,,,,,,,,,1,0,1,,-940,16728,400,-359,-13,268
36.953,36.59,-0.61,1.00,-1.47,1.00,-0.58,-0.55,0.81,-0.76,0.46,3487.00,4095.00,731.00,1921.00,1040.00,3249.00,1485.00,3173.00,,,,,,,,,,,,1,0,1,,-748,16352,552,7,282,-188
36.995,36.65,-0.61,0.16,-0.24,-0.17,0.46,-0.75,1.29,-0.46,0.46,3312.00,4095.00,706.00,1957.00,1017.00,3233.00,1477.00,3135.00,,,,,,,,,,,,1,0,1,,-736,16264,304,509,240,247
37.057,36.70,-0.58,0.41,-0.61,-0.20,0.91,-0.03,0.43,-0.12,0.08,3363.00,4095.00,689.00,1935.00,1052.00,3216.00,1498.00,3125.00,,,,,,,,,,,,1,0,1,,-740,16248,128,125,143,88
37.139,36.76,-0.58,0.73,-1.07,0.43,0.15,-0.46,0.73,-0.47,0.31,3429.00,4095.00,710.00,1927.00,1043.00,3245.00,1489.00,3149.00,,,,,,,,,,,,1,0,1,,-528,16304,-12,-255,249,-111
37.16,36.81,-0.59,-0.15,0.23,-0.00,0.24,-0.84,1.21,-0.77,0.66,3248.00,4095.00,712.00,1955.00,1023.00,3251.00,1469.00,3157.00,,,,,,,,,,,,1,0,1,,-580,16288,112,-447,136,-284
37.222,36.87,-0.58,0.85,-1.26,-0.31,0.84,-0.35,0.69,-0.33,0.20,3456.00,4095.00,693.00,1947.00,1043.00,3234.00,1494.00,3141.00,,,,,,,,,,,,1,0,1,,-752,16284,484,-356,-43,-92
37.282,36.92,-0.57,0.07,-0.10,-0.27,0.41,-0.39,0.51,-0.55,0.19,3292.00,4095.00,709.00,1967.00,1054.00,3255.00,1501.00,3169.00,,,,,,,,,,,,1,0,1,,-824,16424,524,-84,209,-130
37.344,36.98,-0.58,0.46,-0.68,0.38,-0.32,-0.82,0.71,-0.82,0.33,3373.00,4095.00,729.00,1955.00,1051.00,3293.00,1497.00,3191.00,,,,,,,,,,,,1,0,1,,-304,15488,348,-87,271,607
37.386,37.03,-0.59,0.60,-0.89,-0.49,0.18,-0.82,0.87,-0.63,0.27,3403.00,4095.00,721.00,1997.00,1042.00,3279.00,1497.00,3173.00,,,,,,,,,,,,1,0,2,,-668,16372,164,188,393,-180
37.49,37.09,-0.57,-0.17,0.25,-0.02,0.20,-0.04,0.07,-0.12,-0.19,3245.00,4095.00,714.00,1959.00,1073.00,3249.00,1520.00,3147.00,,,,,,,,,,,,1,0,2,,-668,16244,264,332,113,-27
37.532,37.14,-0.57,0.90,-1.33,0.69,-0.63,-0.68,0.86,-0.79,0.43,3466.00,4095.00,737.00,1947.00,1040.00,3262.00,1488.00,3179.00,,,,,,,,,,,,1,0,2,,-648,16176,176,397,107,-23
37.554,37.20,-0.58,-0.02,0.04,-0.03,0.46,-0.66,1.30,-0.51,0.65,3274.00,4095.00,704.00,1946.00,1015.00,3221.00,1463.00,3125.00,,,,,,,,,,,,1,0,2,,-432,16168,156,-58,206,-208
37.615,37.25,-0.55,0.40,-0.59,-0.24,0.96,-0.03,0.48,-0.11,0.12,3361.00,4095.00,688.00,1936.00,1049.00,3212.00,1495.00,3121.00,,,,,,,,,,,,1,0,2,,-532,16616,124,-343,163,-423
37.678,37.31,-0.54,0.53,-0.78,0.50,0.10,-0.34,0.69,-0.39,0.31,3388.00,4095.00,711.00,1924.00,1043.00,3233.00,1487.00,3139.00,,,,,,,,,,,,1,0,2,,-700,16256,508,-343,105,-347
37.739,37.36,-0.54,-0.15,0.23,0.47,0.01,-0.66,1.16,-0.51,0.53,3248.00,4095.00,715.00,1931.00,1023.00,3234.00,1473.00,3136.00,,,,,,,,,,,,1,0,2,,-552,16248,380,13,37,-116
37.802,37.42,-0.53,0.84,-1.24,0.16,0.50,-0.26,0.72,-0.18,0.19,3453.00,4095.00,700.00,1929.00,1040.00,3221.00,1491.00,3123.00,,,,,,,,,,,,1,0,2,,-648,16320,424,215,109,-125
37.883,37.47,-0.51,0.01,-0.01,0.53,0.12,-0.06,0.35,-0.28,0.17,3280.00,4095.00,710.00,1921.00,1057.00,3227.00,1495.00,3137.00,,,,,,,,,,,,1,0,2,,-860,16568,532,125,170,-565
37.904,37.53,-0.52,0.62,-0.91,0.86,-0.66,-0.70,0.83,-0.68,0.40,3406.00,4095.00,736.00,1936.00,1042.00,3267.00,1488.00,3168.00,,,,,,,,,,,,1,0,2,,-624,16208,140,72,182,-104
37.945,37.58,-0.53,0.59,-0.88,0.01,0.11,-0.73,0.96,-0.61,0.51,3401.00,4095.00,717.00,1961.00,1035.00,3259.00,1477.00,3150.00,,,,,,,,,,,,1,0,2,,-600,16208,296,89,185,-8
37.985,37.64,-0.50,-0.02,0.03,-0.29,0.42,-0.02,0.02,-0.14,-0.18,3275.00,4095.00,709.00,1968.00,1075.00,3250.00,1520.00,3149.00,,,,,,,,,,,,1,0,2,,-616,16256,196,58,268,-9
38.047,37.69,-0.53,1.05,-1.55,1.39,-1.89,-0.97,0.85,-1.00,0.50,3499.00,4095.00,779.00,1959.00,1046.00,3301.00,1488.00,3199.00,,,,,,,,,,,,1,0,2,,-488,16452,192,105,292,-19
38.129,37.75,-0.54,0.08,-0.12,-0.48,0.33,-0.79,1.05,-0.48,0.33,3295.00,4095.00,715.00,1988.00,1031.00,3259.00,1488.00,3149.00,,,,,,,,,,,,1,0,2,,-516,16296,68,127,249,-133
38.17,37.80,-0.52,0.70,-1.03,-0.02,0.62,-0.11,0.56,-0.02,0.02,3423.00,4095.00,698.00,1937.00,1046.00,3215.00,1500.00,3117.00,,,,,,,,,,,,1,0,2,,-540,16312,124,202,17,-160
38.231,37.85,-0.50,0.75,-1.11,0.86,-0.18,-0.19,0.64,-0.27,0.20,3434.00,4095.00,717.00,1911.00,1043.00,3218.00,1493.00,3134.00,,,,,,,,,,,,1,0,2,,-512,16384,108,303,39,-148
38.272,37.91,-0.51,0.18,-0.26,0.79,-0.23,-0.60,1.21,-0.52,0.55,3315.00,4095.00,720.00,1919.00,1019.00,3221.00,1471.00,3135.00,,,,,,,,,,,,1,0,3,,-420,16296,-112,135,25,-107
38.313,37.97,-0.49,1.08,-1.59,-0.54,0.98,-0.17,0.69,-0.04,0.16,3504.00,4095.00,691.00,1958.00,1040.00,3212.00,1490.00,3109.00,,,,,,,,,,,,1,0,3,,-528,16292,-4,31,91,-221
38.375,38.02,-0.45,0.16,-0.23,0.30,0.38,0.20,0.11,0.03,-0.04,3311.00,4095.00,703.00,1925.00,1066.00,3215.00,1504.00,3117.00,,,,,,,,,,,,1,0,3,,-588,16356,20,-35,207,-179
38.436,38.08,-0.46,0.90,-1.32,0.86,-0.33,-0.55,0.81,-0.52,0.36,3465.00,4095.00,723.00,1919.00,1040.00,3249.00,1487.00,3152.00,,,,,,,,,,,,1,0,3,,-560,16300,20,-21,225,-228
38.499,38.13,-0.47,0.77,-1.14,-0.17,0.25,-0.59,1.13,-0.46,0.44,3439.00,4095.00,714.00,1968.00,1023.00,3227.00,1478.00,3136.00,,,,,,,,,,,,1,0,3,,-580,16348,-80,-17,111,-158
38.54,38.19,-0.43,0.26,-0.38,-0.30,0.68,0.23,-0.01,-0.00,-0.23,3331.00,4095.00,699.00,1955.00,1072.00,3221.00,1520.00,3136.00,,,,,,,,,,,,1,0,3,,-564,16272,116,64,28,-273
38.601,38.24,-0.44,1.21,-1.79,0.80,-0.61,-0.66,0.81,-0.79,0.45,3533.00,4095.00,735.00,1938.00,1042.00,3263.00,1487.00,3178.00,,,,,,,,,,,,1,0,3,,-668,16320,-164,125,41,-264
38.664,38.30,-0.45,0.23,-0.33,-0.58,0.49,-0.66,0.90,-0.57,0.42,3325.00,4095.00,710.00,1987.00,1037.00,3255.00,1483.00,3152.00,,,,,,,,,,,,1,0,3,,-588,16332,-40,118,16,-272
38.706,38.35,-0.45,0.94,-1.39,-0.60,0.73,-0.38,0.51,-0.31,0.11,3475.00,4095.00,701.00,1976.00,1054.00,3254.00,1501.00,3146.00,,,,,,,,,,,,1,0,3,,-668,16340,40,77,96,-122
38.768,38.41,-0.46,0.79,-1.16,0.12,0.10,-0.59,0.55,-0.67,0.28,3442.00,4095.00,716.00,1953.00,1056.00,3278.00,1497.00,3177.00,,,,,,,,,,,,1,0,3,,-588,16236,104,80,272,-196
38.808,38.46,-0.47,0.36,-0.53,-0.04,0.05,-0.71,0.99,-0.69,0.60,3352.00,4095.00,720.00,1968.00,1033.00,3254.00,1472.00,3152.00,,,,,,,,,,,,1,0,3,,-716,16092,80,121,392,-33
38.871,38.52,-0.46,1.28,-1.89,-1.47,1.02,-0.30,0.68,-0.23,0.22,3549.00,4095.00,701.00,2029.00,1043.00,3229.00,1490.00,3127.00,,,,,,,,,,,,1,0,3,,-744,16180,340,331,579,273
38.975,38.57,-0.43,0.39,-0.57,0.05,0.43,0.21,0.05,-0.03,-0.03,3358.00,4095.00,704.00,1941.00,1069.00,3218.00,1505.00,3123.00,,,,,,,,,,,,1,0,3,,-620,16528,-148,466,1030,271
38.996,38.63,-0.43,1.29,-1.90,1.02,-1.08,-0.54,0.70,-0.66,0.43,3550.00,4095.00,751.00,1946.00,1046.00,3257.00,1485.00,3163.00,,,,,,,,,,,,1,0,3,,-560,16372,-468,603,996,10
39.037,38.68,-0.43,0.93,-1.37,-0.18,0.20,-0.32,0.73,-0.38,0.37,3472.00,4095.00,716.00,1971.00,1040.00,3226.00,1482.00,3133.00,,,,,,,,,,,,1,0,3,,-460,16432,-720,464,584,69
39.099,38.74,-0.39,0.54,-0.80,-0.45,0.65,0.24,0.00,0.16,-0.27,3390.00,4095.00,702.00,1968.00,1071.00,3218.00,1519.00,3120.00,,,,,,,,,,,,1,0,3,,-324,16336,-656,386,239,21
39.14,38.79,-0.40,1.34,-1.98,0.26,-0.33,-0.61,0.78,-0.69,0.47,3562.00,4095.00,731.00,1965.00,1043.00,3260.00,1482.00,3163.00,,,,,,,,,,,,1,0,3,,-312,16368,-724,-79,35,-243
