Time_Host,Time_Arduino,easingdata,CH1_Oxy,CH1_Deoxy,CH2_Oxy,CH2_Deoxy,CH3_Oxy,CH3_Deoxy,CH4_Oxy,CH4_Deoxy,CH1_PD730,CH1_PD850,CH2_PD730,CH2_PD850,CH3_PD730,CH3_PD850,CH4_PD730,CH4_PD850,Answers,airplane_playstate,trail_times,frameRate,Airplane X,Airplane Y,Correct,Wrong,Slow,AnswerRate,CorrectRate,VFTstates,VFTchoose,VFTCount,Culfstates,ax,ay,az,gx,gy,gz
0.003,16.30,10.66,40.94,56.93,57.57,37.14,12.12,27.27,22.06,19.67,89.00,176.00,192.00,155.00,750.00,1220.00,944.00,1009.00,,,,,,,,,,,,4,1,0,,-3064,15804,336,165,60,-192
0.065,0.04,0.00,0.00,0.00,0.00,0.00,0.00,0.00,0.00,0.00,80.00,155.00,162.00,112.00,746.00,1203.00,977.00,1047.00,,,,,,,,,,,,0,1,0,,-3132,15800,504,76,203,43
0.128,0.10,0.00,0.00,0.00,0.00,0.00,0.00,0.00,0.00,0.00,77.00,177.00,167.00,132.00,729.00,1219.00,970.00,1063.00,,,,,,,,,,,,0,1,0,,-3180,15884,476,64,259,-105
0.189,0.15,0.00,0.00,0.00,0.00,0.00,0.00,0.00,0.00,0.00,59.00,177.00,144.00,145.00,746.00,1200.00,1002.00,1055.00,,,,,,,,,,,,0,1,0,,-3124,15956,456,-114,238,-110
0.23,0.21,0.00,0.00,0.00,0.00,0.00,0.00,0.00,0.00,0.00,79.00,176.00,155.00,160.00,759.00,1215.00,1005.00,1081.00,,,,,,,,,,,,0,1,0,,-3072,15864,540,-15,200,-70
0.292,0.26,0.00,0.00,0.00,0.00,0.00,0.00,0.00,0.00,0.00,83.00,179.00,176.00,136.00,752.00,1249.00,998.00,1099.00,,,,,,,,,,,,0,1,0,,-3012,15920,608,-143,152,-88
0.353,0.32,0.00,0.00,0.00,0.00,0.00,0.00,0.00,0.00,0.00,79.00,195.00,162.00,162.00,745.00,1232.00,995.00,1076.00,,,,,,,,,,,,0,1,0,,-3052,15940,720,-95,203,-251
0.415,0.37,0.00,0.00,0.00,0.00,0.00,0.00,0.00,0.00,0.00,71.00,165.00,154.00,140.00,759.00,1204.00,999.00,1039.00,,,,,,,,,,,,0,1,0,,-3016,15892,544,-156,205,-312
0.498,0.43,0.00,0.00,0.00,0.00,0.00,0.00,0.00,0.00,0.00,87.00,164.00,176.00,128.00,740.00,1222.00,966.00,1061.00,,,,,,,,,,,,0,1,0,,-3256,15924,620,-16,29,-199
0.518,0.48,0.00,0.00,0.00,0.00,0.00,0.00,0.00,0.00,0.00,65.00,189.00,157.00,151.00,725.00,1199.00,959.00,1018.00,,,,,,,,,,,,0,1,0,,-3108,15984,528,-39,-60,-123
0.58,0.54,0.00,0.00,0.00,0.00,0.00,0.00,0.00,0.00,0.00,61.00,172.00,144.00,137.00,743.00,1182.00,976.00,1014.00,,,,,,,,,,,,0,1,0,,-3284,16164,504,-77,187,-125
0.64,0.59,0.02,4.16,-2.11,6.47,-2.78,0.31,-0.07,0.25,0.17,77.00,157.00,165.00,117.00,743.00,1200.00,971.00,1040.00,,,,,,,,,,,,0,1,0,,-3108,15996,528,-36,264,-192
0.682,0.65,-0.01,0.91,-0.28,2.42,-1.86,-0.55,0.85,-0.15,0.77,74.00,170.00,169.00,134.00,718.00,1211.00,947.00,1040.00,,,,,,,,,,,,0,1,0,,-3032,15920,412,91,160,-148
0.723,0.70,0.02,-3.63,5.12,-1.71,2.88,0.61,-0.05,1.36,-0.48,60.00,176.00,141.00,139.00,738.00,1185.00,986.00,1013.00,,,,,,,,,,,,0,1,0,,-3120,15880,404,68,30,-156
0.785,0.76,0.03,5.65,-2.61,6.64,-2.38,0.29,-0.26,0.22,-0.25,77.00,150.00,161.00,115.00,751.00,1207.00,994.00,1053.00,,,,,,,,,,,,0,1,0,,-3168,15936,560,4,37,-192
0.906,0.81,0.01,-0.08,-1.15,2.80,-2.42,-0.41,0.22,-0.71,0.46,79.00,181.00,173.00,134.00,741.00,1225.00,973.00,1072.00,,,,,,,,,,,,0,1,0,,-3240,16032,592,35,63,-183
0.948,0.87,0.00,-2.23,1.80,-2.57,1.30,-0.11,0.02,-0.19,-0.09,70.00,182.00,156.00,150.00,745.00,1217.00,993.00,1066.00,,,,,,,,,,,,0,1,0,,-3172,15948,564,-19,84,-177
0.969,0.92,0.02,0.42,-0.85,1.87,-0.19,0.41,-0.74,-0.15,-0.44,77.00,176.00,156.00,131.00,769.00,1217.00,1011.00,1074.00,,,,,,,,,,,,0,1,0,,-3216,15940,428,20,174,-122
1.01,0.98,-0.02,3.38,-6.67,4.88,-4.36,-0.86,0.10,-1.32,0.20,100.00,183.00,185.00,130.00,752.00,1251.00,998.00,1106.00,,,,,,,,,,,,0,1,0,,-3224,15896,560,22,168,-189
1.053,1.03,-0.05,-4.21,0.47,-5.17,1.14,-0.62,0.29,-0.81,0.27,78.00,204.00,165.00,167.00,741.00,1233.00,985.00,1082.00,,,,,,,,,,,,0,1,0,,-3208,16120,176,-78,236,-173
1.114,1.09,-0.01,0.42,-0.85,-2.19,2.52,0.78,-0.86,0.45,-0.62,77.00,176.00,145.00,143.00,769.00,1203.00,1010.00,1054.00,,,,,,,,,,,,0,1,0,,-3120,15976,464,-163,156,-142
1.176,1.14,-0.00,4.92,-4.41,5.78,-3.31,0.11,-0.17,0.10,0.19,86.00,162.00,172.00,122.00,750.00,1213.00,973.00,1046.00,,,,,,,,,,,,0,1,0,,-3112,15844,396,-80,107,-153
1.237,1.20,-0.03,-0.63,0.49,1.21,-0.90,-0.50,0.76,-0.03,0.77,73.00,177.00,164.00,137.00,721.00,1212.00,945.00,1035.00,,,,,,,,,,,,0,1,0,,-3180,15976,404,-54,41,-149
1.32,1.25,-0.00,-4.93,8.56,-1.71,3.14,0.50,-0.01,1.29,-0.27,51.00,169.00,139.00,138.00,738.00,1189.00,976.00,1010.00,,,,,,,,,,,,0,1,0,,-3232,16088,412,-172,39,-163
1.341,1.31,0.02,5.42,-3.00,5.87,-1.89,0.41,-0.37,-0.03,0.19,79.00,153.00,159.00,117.00,754.00,1205.00,975.00,1051.00,,,,,,,,,,,,0,1,0,,-3176,15856,688,-50,78,-84
1.381,1.36,-0.01,0.63,-1.16,3.54,-2.67,-0.62,0.60,-0.44,0.73,78.00,176.00,173.00,131.00,729.00,1223.00,954.00,1053.00,,,,,,,,,,,,0,1,0,,-3216,15832,592,-110,162,-220
1.443,1.42,-0.01,-5.04,7.20,-3.43,3.06,0.10,0.05,0.26,-0.02,55.00,176.00,144.00,148.00,741.00,1206.00,981.00,1045.00,,,,,,,,,,,,0,1,0,,-3180,15932,544,-92,92,-205
1.524,1.47,0.01,1.19,-1.35,1.72,-0.26,0.31,-0.42,-0.01,-0.11,78.00,173.00,157.00,132.00,757.00,1211.00,991.00,1059.00,,,,,,,,,,,,0,1,0,,-3164,15876,496,-2,92,-155
1.607,1.53,-0.02,2.40,-3.77,3.98,-4.15,-0.67,0.06,-1.00,0.44,87.00,176.00,186.00,134.00,751.00,1243.00,979.00,1085.00,,,,,,,,,,,,0,1,0,,-3244,15892,564,25,241,-97
1.628,1.58,-0.06,-5.96,3.06,-5.48,2.04,-0.66,0.38,-0.32,0.07,70.00,204.00,158.00,165.00,738.00,1232.00,987.00,1067.00,,,,,,,,,,,,0,1,0,,-3140,15892,476,51,433,-161
1.669,1.64,-0.04,-0.45,0.43,-0.18,0.61,0.34,-0.76,0.10,-0.74,73.00,176.00,155.00,139.00,771.00,1221.00,1023.00,1072.00,,,,,,,,,,,,0,1,0,,-3108,15784,384,-30,420,-219
1.731,1.69,-0.08,3.79,-6.25,4.45,-4.01,-0.99,0.12,-1.70,0.45,97.00,178.00,183.00,131.00,753.00,1257.00,991.00,1115.00,,,,,,,,,,,,0,1,0,,-3056,16108,312,-58,358,-96
1.773,1.75,-0.14,-4.52,1.30,-0.22,-0.64,-1.12,0.51,-0.99,0.21,75.00,202.00,166.00,144.00,739.00,1250.00,991.00,1091.00,,,,,,,,,,,,0,1,0,,-3164,16100,140,-155,257,-149
1.835,1.80,-0.13,-1.36,1.77,-2.20,2.02,-0.01,-0.18,0.49,-0.28,69.00,176.00,149.00,145.00,752.00,1219.00,991.00,1043.00,,,,,,,,,,,,0,1,0,,-3052,16012,252,-63,-38,-324
1.897,1.86,-0.13,4.36,-1.69,6.47,-2.78,-0.04,-0.18,-0.03,0.19,75.00,154.00,165.00,117.00,752.00,1220.00,975.00,1051.00,,,,,,,,,,,,0,1,0,,-3156,15972,480,-120,-253,-351
1.979,1.91,-0.16,-0.80,1.59,19.50,-7.82,-0.84,0.82,-0.21,0.85,69.00,173.00,171.00,80.00,723.00,1226.00,944.00,1040.00,,,,,,,,,,,,0,1,0,,-3304,15852,564,-83,-168,-208
1.999,1.97,-0.14,-7.40,10.90,-2.30,2.69,0.24,0.15,0.93,-0.04,47.00,175.00,144.00,143.00,735.00,1196.00,970.00,1018.00,,,,,,,,,,,,0,1,0,,-3240,15948,732,-34,134,-212
2.041,2.02,-0.12,2.10,-0.93,2.87,0.07,0.37,-0.31,0.37,0.04,75.00,165.00,151.00,125.00,752.00,1205.00,976.00,1039.00,,,,,,,,,,,,0,1,0,,-3236,16072,436,-61,295,-220
2.103,2.08,-0.14,-0.19,-0.16,4.07,-3.16,-0.64,0.37,-0.50,0.50,75.00,177.00,176.00,130.00,738.00,1231.00,967.00,1062.00,,,,,,,,,,,,0,1,0,,-3176,15888,500,-54,122,-123
2.164,2.13,-0.14,-4.49,3.93,-4.47,1.70,-0.14,0.26,0.51,0.01,65.00,188.00,158.00,160.00,736.00,1211.00,975.00,1034.00,,,,,,,,,,,,0,1,0,,-3204,16008,584,-48,90,-39
2.226,2.19,-0.10,0.15,-0.02,-0.88,0.85,0.70,-0.86,0.70,-0.67,74.00,174.00,155.00,142.00,770.00,1207.00,1008.00,1045.00,,,,,,,,,,,,0,1,0,,-3248,16020,432,-20,102,-163
2.287,2.24,-0.13,4.06,-5.36,6.52,-5.01,-0.65,0.03,-1.03,0.55,92.00,172.00,186.00,124.00,752.00,1243.00,974.00,1083.00,,,,,,,,,,,,0,1,0,,-3252,15864,436,-24,85,-179
2.348,2.30,-0.15,-5.73,2.72,-2.54,0.03,-0.68,0.46,-0.60,0.36,71.00,204.00,167.00,155.00,735.00,1230.00,976.00,1070.00,,,,,,,,,,,,0,1,0,,-3232,16136,464,62,58,-103
2.389,2.35,-0.14,-1.86,1.68,-1.86,2.03,0.12,-0.23,0.09,-0.26,70.00,180.00,148.00,143.00,752.00,1214.00,997.00,1059.00,,,,,,,,,,,,0,1,0,,-3096,15864,300,80,44,-234
2.45,2.41,-0.15,1.60,-1.95,5.20,-2.46,-0.39,-0.23,-1.20,0.28,80.00,173.00,166.00,122.00,759.00,1239.00,991.00,1098.00,,,,,,,,,,,,0,1,0,,-3252,15912,376,26,-22,-102
2.512,2.46,-0.21,-1.88,-0.31,0.71,-1.50,-1.20,0.66,-1.17,0.56,78.00,190.00,171.00,142.00,734.00,1249.00,976.00,1089.00,,,,,,,,,,,,0,1,0,,-3224,15912,580,-12,89,-45
2.574,2.52,-0.21,-6.73,7.44,-3.65,3.14,-0.24,-0.18,0.25,-0.46,56.00,187.00,144.00,149.00,755.00,1230.00,1005.00,1058.00,,,,,,,,,,,,0,1,0,,-3148,16052,384,-85,204,-286
2.615,2.57,-0.20,6.52,-3.14,6.00,-2.40,-0.00,-0.41,0.21,0.02,78.00,147.00,163.00,118.00,761.00,1226.00,980.00,1046.00,,,,,,,,,,,,0,1,0,,-3200,15916,196,-85,83,-176
2.717,2.63,-0.22,-1.41,2.06,3.29,-2.59,-0.60,0.43,-0.15,0.77,68.00,175.00,173.00,132.00,735.00,1227.00,947.00,1040.00,,,,,,,,,,,,0,1,0,,-3248,15692,536,58,76,-31
2.737,2.68,-0.22,-1.60,2.12,-1.48,0.69,-0.19,0.30,0.98,0.16,68.00,176.00,158.00,146.00,735.00,1212.00,959.00,1011.00,,,,,,,,,,,,0,1,0,,-3180,15964,484,16,253,-8
2.799,2.74,-0.17,1.64,-0.02,1.41,1.06,0.66,-0.65,1.01,-0.33,72.00,164.00,147.00,129.00,762.00,1202.00,984.00,1023.00,,,,,,,,,,,,0,1,0,,-3120,15784,324,6,475,-54
2.82,2.79,-0.19,3.30,-5.11,5.11,-3.83,-0.61,0.34,-0.55,0.75,92.00,176.00,179.00,127.00,739.00,1231.00,955.00,1057.00,,,,,,,,,,,,0,1,0,,-3028,15892,188,-169,318,-182
2.881,2.85,-0.20,-4.34,3.32,-1.40,0.32,-0.34,0.55,0.64,0.22,67.00,190.00,161.00,147.00,727.00,1211.00,962.00,1023.00,,,,,,,,,,,,0,1,0,,-3120,16060,236,-220,197,-89
2.922,2.90,-0.16,-1.19,2.82,0.16,1.48,0.69,-0.57,1.19,-0.59,65.00,170.00,147.00,134.00,758.00,1198.00,995.00,1023.00,,,,,,,,,,,,0,1,0,,-3104,15972,320,-84,39,-134
2.984,2.96,-0.14,2.96,-2.64,4.72,0.45,0.10,-0.22,-0.00,0.34,81.00,167.00,143.00,115.00,752.00,1215.00,967.00,1046.00,,,,,,,,,,,,0,1,0,,-3156,16016,240,-59,-82,-135
3.086,3.01,-0.19,-3.00,3.15,1.21,-0.90,-1.01,0.93,-0.36,0.65,66.00,181.00,164.00,137.00,721.00,1231.00,957.00,1052.00,,,,,,,,,,,,0,1,0,,-3180,15916,336,-7,-129,-91
3.106,3.07,-0.17,-4.36,5.99,-2.64,3.19,0.17,-0.15,0.58,-0.24,58.00,177.00,141.00,143.00,748.00,1209.00,987.00,1038.00,,,,,,,,,,,,0,1,0,,-3064,16000,312,-59,-13,-176
3.146,3.12,-0.16,3.75,-2.68,6.00,-2.40,-0.01,-0.43,-0.41,0.02,80.00,162.00,163.00,118.00,762.00,1227.00,991.00,1072.00,,,,,,,,,,,,0,1,0,,-3120,15932,208,-106,131,-146
3.227,3.18,-0.21,-0.29,-0.85,2.36,-2.59,-1.12,0.61,-1.12,0.83,78.00,181.00,176.00,137.00,735.00,1247.00,961.00,1079.00,,,,,,,,,,,,0,1,0,,-3108,15844,452,-132,154,-64
3.268,3.23,-0.23,-5.30,6.95,-2.87,2.50,-0.54,-0.00,-0.21,-0.34,56.00,179.00,147.00,147.00,752.00,1239.00,1007.00,1074.00,,,,,,,,,,,,0,1,0,,-3120,15992,568,-145,198,-105
3.309,3.29,-0.23,0.85,-1.70,0.44,-0.30,-0.32,-0.52,-0.59,-0.27,80.00,177.00,161.00,139.00,770.00,1245.00,1010.00,1088.00,,,,,,,,,,,,0,1,0,,-3064,16176,360,-127,342,-145
3.37,3.34,-0.28,2.57,-4.66,3.91,-4.33,-1.12,0.31,-1.05,0.52,91.00,179.00,188.00,135.00,747.00,1257.00,976.00,1085.00,,,,,,,,,,,,0,1,0,,-3132,16188,488,-193,153,-194
3.472,3.40,-0.28,-3.75,2.05,-4.68,1.54,-0.41,0.35,0.69,0.22,71.00,192.00,160.00,162.00,736.00,1221.00,961.00,1021.00,,,,,,,,,,,,0,1,0,,-3092,15816,464,-18,-134,-177
3.493,3.45,-0.23,-0.82,0.55,-0.42,2.05,0.78,-0.77,1.39,-0.61,73.00,178.00,144.00,135.00,765.00,1200.00,992.00,1015.00,,,,,,,,,,,,0,1,0,,-3248,16040,772,81,32,-55
3.555,3.51,-0.24,4.86,-5.23,6.78,-4.18,-0.36,0.20,-0.14,0.57,90.00,166.00,177.00,120.00,741.00,1223.00,957.00,1045.00,,,,,,,,,,,,0,1,0,,-3080,15876,540,-20,245,-123
3.617,3.56,-0.25,-1.14,2.52,2.23,-1.01,-0.57,0.73,0.45,0.49,66.00,171.00,162.00,132.00,723.00,1216.00,951.00,1023.00,,,,,,,,,,,,0,1,0,,-3068,15752,312,-109,190,-209
3.658,3.62,-0.21,-2.61,4.47,-1.49,2.54,0.52,-0.19,1.39,-0.30,61.00,172.00,143.00,139.00,745.00,1194.00,976.00,1007.00,,,,,,,,,,,,0,1,0,,-3132,15908,396,-116,135,-32
3.72,3.67,-0.20,5.00,-2.63,7.71,-2.97,0.08,-0.19,0.18,0.27,78.00,154.00,163.00,112.00,751.00,1215.00,967.00,1040.00,,,,,,,,,,,,0,1,0,,-3108,15996,528,-69,52,-46
3.761,3.73,-0.24,-0.82,0.55,7.52,-3.36,-0.93,0.93,-0.43,0.83,73.00,178.00,167.00,114.00,720.00,1227.00,949.00,1050.00,,,,,,,,,,,,0,1,0,,-3076,16088,504,-1,181,-206
3.822,3.78,-0.21,-5.52,7.70,-2.53,2.76,0.30,-0.22,0.94,-0.23,54.00,177.00,144.00,144.00,749.00,1205.00,980.00,1023.00,,,,,,,,,,,,0,1,0,,-3132,15868,548,31,107,-165
3.903,3.84,-0.19,1.60,-1.95,2.01,-0.13,0.09,-0.39,-0.18,-0.04,80.00,173.00,155.00,130.00,759.00,1221.00,990.00,1064.00,,,,,,,,,,,,0,1,0,,-3184,16120,364,82,73,-53
3.924,3.89,-0.24,0.69,-1.87,4.51,-3.52,-1.02,0.13,-1.13,0.43,81.00,179.00,178.00,129.00,753.00,1258.00,982.00,1091.00,,,,,,,,,,,,0,1,0,,-3048,15976,412,-11,255,-119
3.985,3.95,-0.25,-4.09,0.67,-4.39,0.43,-0.53,0.06,-0.35,-0.00,77.00,202.00,169.00,165.00,749.00,1236.00,991.00,1070.00,,,,,,,,,,,,0,1,0,,-3196,15984,280,-118,234,-149
4.026,4.00,-0.23,0.67,-1.64,-1.18,1.55,0.08,-0.77,-0.20,-0.53,80.00,178.00,150.00,141.00,775.00,1234.00,1017.00,1079.00,,,,,,,,,,,,0,1,0,,-3052,15928,376,-138,187,-7
4.088,4.06,-0.28,3.88,-7.21,5.13,-4.44,-1.18,0.04,-1.77,0.42,102.00,182.00,185.00,129.00,759.00,1269.00,994.00,1119.00,,,,,,,,,,,,0,1,0,,-2976,16096,536,-234,236,-52
4.191,4.11,-0.30,-4.53,0.58,-2.36,-0.47,-0.66,0.38,-0.22,0.16,78.00,206.00,171.00,156.00,738.00,1232.00,980.00,1060.00,,,,,,,,,,,,0,1,0,,-3020,15980,516,-166,160,-249
4.212,4.17,-0.27,-1.90,2.78,-1.40,1.87,0.23,-0.27,0.92,-0.20,66.00,175.00,148.00,141.00,752.00,1210.00,979.00,1023.00,,,,,,,,,,,,0,1,0,,-3120,15996,468,-29,-101,-241
4.254,4.22,-0.27,3.95,-2.04,5.57,-2.70,-0.15,-0.04,0.13,0.35,77.00,158.00,167.00,121.00,748.00,1221.00,964.00,1040.00,,,,,,,,,,,,0,1,0,,-3136,16004,544,47,-59,-125
4.317,4.28,-0.29,-2.39,3.51,0.83,-0.88,-0.67,0.79,0.50,0.42,64.00,175.00,165.00,139.00,722.00,1219.00,954.00,1023.00,,,,,,,,,,,,0,1,0,,-3088,16016,548,-21,211,-177
4.357,4.33,-0.25,-5.45,8.02,-2.53,3.02,0.42,-0.08,1.35,-0.18,53.00,175.00,142.00,143.00,742.00,1195.00,970.00,1005.00,,,,,,,,,,,,0,1,0,,-3052,16000,252,4,344,-99
4.42,4.39,-0.23,6.07,-3.22,3.88,-0.51,0.12,-0.25,0.41,0.04,79.00,150.00,153.00,122.00,753.00,1215.00,975.00,1037.00,,,,,,,,,,,,0,1,0,,-3140,15872,340,-4,247,-79
4.483,4.44,-0.24,6.47,-9.13,3.82,-3.08,-0.44,0.21,-0.21,0.50,108.00,173.00,176.00,131.00,742.00,1227.00,962.00,1050.00,,,,,,,,,,,,0,1,0,,-2996,16036,420,-62,156,-113
4.586,4.50,-0.25,-0.55,-1.69,-3.45,0.90,-0.46,0.39,0.30,0.10,82.00,187.00,162.00,157.00,735.00,1222.00,974.00,1040.00,,,,,,,,,,,,0,1,0,,-3024,16024,320,4,106,-215
4.607,4.55,-0.22,0.43,0.64,1.30,0.35,0.47,-0.81,0.46,-0.50,71.00,169.00,153.00,132.00,771.00,1216.00,1003.00,1050.00,,,,,,,,,,,,0,1,0,,-3044,15988,352,13,38,-212
4.648,4.61,-0.25,2.94,-4.78,5.03,-4.01,-0.93,0.15,-1.06,0.46,91.00,177.00,181.00,128.00,751.00,1253.00,979.00,1087.00,,,,,,,,,,,,0,1,0,,-3100,16008,360,31,31,-153
4.71,4.66,-0.28,-6.11,3.64,-3.37,0.31,-0.73,0.33,-0.33,0.26,68.00,202.00,167.00,159.00,741.00,1237.00,977.00,1062.00,,,,,,,,,,,,0,1,0,,-3132,16004,160,24,174,-146
4.75,4.72,-0.27,5.41,-8.43,-0.42,2.05,-0.06,-0.41,-0.04,-0.42,106.00,177.00,144.00,135.00,762.00,1229.00,1008.00,1069.00,,,,,,,,,,,,0,1,0,,-3132,15884,440,-115,290,-88
4.79,4.77,-0.28,1.04,-1.76,4.30,-2.92,-0.59,-0.23,-0.93,0.23,80.00,176.00,173.00,128.00,762.00,1249.00,989.00,1088.00,,,,,,,,,,,,0,1,0,,-3148,15984,432,-246,318,-106
4.912,4.83,-0.33,-1.57,-0.18,-0.13,-0.78,-1.27,0.59,-1.10,0.59,77.00,187.00,167.00,144.00,738.00,1255.00,973.00,1085.00,,,,,,,,,,,,0,1,0,,-3136,15968,448,-190,262,1
4.933,4.88,-0.34,-4.91,4.36,-4.94,3.57,-0.50,-0.19,-0.17,-0.34,64.00,189.00,144.00,155.00,759.00,1243.00,1006.00,1072.00,,,,,,,,,,,,0,1,0,,-2996,15956,480,-76,352,-37
4.974,4.94,-0.35,3.15,-2.47,3.53,-1.79,-0.59,-0.33,-0.45,-0.02,80.00,165.00,165.00,128.00,766.00,1252.00,994.00,1075.00,,,,,,,,,,,,0,1,0,,-3016,15816,476,-47,256,-111
5.015,4.99,-0.39,-0.60,0.23,2.12,-2.51,-1.11,0.41,-0.01,0.45,74.00,178.00,176.00,138.00,743.00,1253.00,961.00,1043.00,,,,,,,,,,,,0,1,0,,-2964,15872,400,-59,122,-70
5.078,5.05,-0.38,-2.08,2.84,-2.27,0.62,-0.09,-0.16,0.71,0.12,66.00,176.00,161.00,151.00,752.00,1222.00,966.00,1023.00,,,,,,,,,,,,0,1,0,,-3088,15980,504,28,179,20
5.139,5.10,-0.33,2.08,-0.68,0.34,-0.15,0.46,-0.76,1.06,-0.40,74.00,164.00,160.00,139.00,769.00,1215.00,987.00,1023.00,,,,,,,,,,,,0,1,0,,-3060,16076,392,-72,243,-154
5.201,5.16,-0.35,3.33,-4.50,5.39,-4.53,-0.67,0.06,-0.55,0.62,89.00,173.00,185.00,128.00,751.00,1243.00,962.00,1061.00,,,,,,,,,,,,0,1,0,,-2964,16004,236,4,218,-68
5.284,5.21,-0.35,-4.95,3.25,-3.58,0.38,-0.35,0.25,0.62,0.24,68.00,195.00,167.00,160.00,739.00,1221.00,961.00,1023.00,,,,,,,,,,,,0,1,0,,-3044,15952,204,-74,175,-24
5.304,5.27,-0.31,-0.27,1.68,-1.52,1.79,0.55,-0.74,1.22,-0.64,68.00,169.00,149.00,142.00,767.00,1210.00,997.00,1023.00,,,,,,,,,,,,0,1,0,,-2904,15976,328,-49,231,-61
5.347,5.32,-0.30,4.12,-4.35,6.69,-3.73,-0.29,-0.14,0.06,0.20,87.00,167.00,173.00,119.00,754.00,1231.00,973.00,1047.00,,,,,,,,,,,,0,1,0,,-2904,16044,328,-34,177,-62
5.408,5.38,-0.34,-1.31,1.49,0.85,-1.44,-1.11,0.86,-0.40,0.74,70.00,177.00,170.00,141.00,725.00,1238.00,953.00,1051.00,,,,,,,,,,,,0,1,0,,-3032,16076,296,85,72,-68
5.47,5.43,-0.33,-3.65,4.52,-2.53,2.76,0.01,-0.12,0.71,-0.28,62.00,179.00,144.00,144.00,749.00,1216.00,987.00,1034.00,,,,,,,,,,,,0,1,0,,-2972,15996,412,87,87,-93
5.532,5.49,-0.32,3.75,-2.68,16.44,-5.56,-0.20,-0.49,-0.48,0.12,80.00,162.00,160.00,85.00,767.00,1238.00,987.00,1072.00,,,,,,,,,,,,0,1,0,,-2940,16008,496,-19,207,-80
5.572,5.54,-0.37,-1.95,0.19,1.41,-1.74,-1.34,0.51,-0.99,0.71,76.00,188.00,171.00,139.00,742.00,1261.00,965.00,1077.00,,,,,,,,,,,,0,1,0,,-2892,15968,248,-63,278,-104
5.655,5.60,-0.40,-4.74,4.30,-3.85,1.97,-0.87,0.03,-0.73,0.11,64.00,188.00,154.00,155.00,755.00,1254.00,992.00,1083.00,,,,,,,,,,,,0,1,0,,-2812,16024,304,-154,241,-135
5.675,5.65,-0.40,0.30,-1.52,-0.47,0.24,-0.41,-0.79,-0.56,-0.32,80.00,180.00,159.00,142.00,783.00,1259.00,1012.00,1088.00,,,,,,,,,,,,0,1,0,,-2888,16036,280,-9,117,-71
5.738,5.71,-0.46,1.15,-4.97,2.82,-4.35,-1.64,0.19,-1.76,0.47,95.00,191.00,192.00,141.00,759.00,1287.00,991.00,1117.00,,,,,,,,,,,,0,1,0,,-2876,15996,156,-26,160,-37
5.799,5.76,-0.50,-5.06,0.29,-5.85,0.81,-1.22,0.25,-0.65,0.10,80.00,212.00,170.00,173.00,751.00,1264.00,991.00,1080.00,,,,,,,,,,,,0,1,0,,-2968,15864,416,-110,220,-190
5.861,5.82,-0.46,-0.90,1.09,-0.90,0.62,0.26,-0.97,0.78,-0.60,71.00,176.00,157.00,143.00,781.00,1232.00,1003.00,1040.00,,,,,,,,,,,,0,1,0,,-2752,16008,108,-154,83,-209
5.924,5.87,-0.49,5.02,-5.68,7.06,-4.58,-1.03,0.08,-0.30,0.49,92.00,167.00,180.00,120.00,755.00,1260.00,964.00,1054.00,,,,,,,,,,,,0,1,0,,-2832,15968,360,-169,7,-150
6.048,5.93,-0.52,-2.27,2.90,0.07,-1.07,-1.14,0.67,-0.04,0.68,66.00,177.00,169.00,144.00,733.00,1246.00,950.00,1038.00,,,,,,,,,,,,0,1,0,,-2928,16084,404,-224,36,-171
6.068,5.98,-0.49,-3.23,5.61,-2.53,2.76,0.12,-0.25,0.97,-0.16,58.00,171.00,144.00,144.00,753.00,1215.00,976.00,1020.00,,,,,,,,,,,,0,1,0,,-2976,16160,312,-152,237,-129
6.089,6.04,-0.51,4.16,-2.81,7.13,-2.78,-0.85,-0.24,-0.04,0.18,80.00,160.00,163.00,114.00,766.00,1262.00,976.00,1052.00,,,,,,,,,,,,0,1,0,,-2896,16036,348,-3,150,-197
6.13,6.09,-0.54,-0.68,-0.48,1.41,-2.27,-1.25,0.70,-0.47,0.84,77.00,182.00,176.00,141.00,733.00,1250.00,949.00,1051.00,,,,,,,,,,,,0,1,0,,-3040,15936,328,-45,94,-113
6.171,6.15,-0.54,-3.10,4.33,-4.62,3.34,-0.41,-0.05,0.40,-0.01,62.00,176.00,145.00,154.00,752.00,1234.00,978.00,1039.00,,,,,,,,,,,,0,1,0,,-2968,16008,540,-77,63,-146
6.254,6.20,-0.52,1.98,-2.08,-2.86,5.94,-0.25,-0.61,-0.27,-0.12,80.00,171.00,122.00,134.00,773.00,1245.00,996.00,1070.00,,,,,,,,,,,,0,1,0,,-2912,16072,224,49,123,-174
6.315,6.26,-0.56,1.30,-3.40,2.42,-3.23,-1.28,-0.07,-1.09,0.40,87.00,182.00,182.00,139.00,765.00,1278.00,983.00,1090.00,,,,,,,,,,,,0,1,0,,-3016,15876,340,26,98,-178
6.376,6.31,-0.58,-4.74,1.62,-5.08,1.22,-1.04,0.16,-0.38,0.01,74.00,202.00,164.00,166.00,752.00,1258.00,991.00,1071.00,,,,,,,,,,,,0,1,0,,-2952,16052,264,-111,122,-103
6.398,6.37,-0.58,-1.00,0.61,-2.23,1.30,-0.41,-0.79,-0.17,-0.65,73.00,179.00,155.00,148.00,783.00,1259.00,1023.00,1081.00,,,,,,,,,,,,0,1,0,,-2912,16020,252,-145,176,-138
6.46,6.42,-0.62,3.79,-6.25,4.57,-4.74,-1.37,-0.12,-1.48,0.19,97.00,178.00,190.00,133.00,768.00,1284.00,1001.00,1113.00,,,,,,,,,,,,0,1,0,,-2976,15992,300,-276,92,-224
6.501,6.48,-0.66,-4.74,0.88,-2.11,-1.09,-1.59,0.32,-1.01,0.19,77.00,206.00,176.00,157.00,753.00,1280.00,993.00,1093.00,,,,,,,,,,,,0,1,0,,-2900,16156,424,-162,64,-96
6.563,6.53,-0.67,-4.52,3.38,-3.10,1.83,-0.79,-0.38,-0.45,-0.37,67.00,191.00,153.00,151.00,771.00,1264.00,1013.00,1085.00,,,,,,,,,,,,0,1,0,,-2796,16176,644,-232,182,-140
6.646,6.59,-0.69,2.38,-2.67,4.74,-3.29,-1.06,-0.46,-0.80,0.00,82.00,171.00,175.00,127.00,778.00,1280.00,999.00,1089.00,,,,,,,,,,,,0,1,0,,-2880,15880,272,-55,139,-265
6.686,6.64,-0.74,-1.53,-0.43,0.72,-2.04,-1.73,0.62,-0.46,0.63,78.00,188.00,176.00,144.00,743.00,1277.00,960.00,1057.00,,,,,,,,,,,,0,1,0,,-2952,15960,284,-97,-31,-254
6.747,6.70,-0.72,-6.68,8.79,-4.82,3.15,-0.31,-0.23,1.03,-0.18,52.00,180.00,147.00,156.00,758.00,1235.00,976.00,1018.00,,,,,,,,,,,,0,1,0,,-3064,15956,536,-15,31,-139
6.787,6.75,-0.71,2.02,0.11,3.24,-1.35,-0.45,-0.38,0.34,-0.03,71.00,161.00,162.00,128.00,766.00,1247.00,980.00,1042.00,,,,,,,,,,,,0,1,0,,-3052,16024,596,-30,187,-147
6.827,6.81,-0.72,0.50,-1.81,1.46,-2.60,-1.03,-0.04,-0.60,0.61,81.00,180.00,179.00,142.00,760.00,1264.00,963.00,1063.00,,,,,,,,,,,,0,1,0,,-2976,16128,412,33,321,-46
6.889,6.86,-0.73,-4.75,2.39,-5.67,1.87,-0.79,0.01,0.27,0.07,71.00,198.00,160.00,167.00,755.00,1251.00,976.00,1042.00,,,,,,,,,,,,0,1,0,,-3032,16016,396,53,288,-76
6.951,6.92,-0.69,0.55,-0.41,-0.92,0.39,0.01,-0.91,0.54,-0.61,75.00,173.00,159.00,144.00,782.00,1242.00,1008.00,1050.00,,,,,,,,,,,,0,1,0,,-2908,16084,208,69,154,-74
7.012,6.97,-0.71,2.93,-4.98,5.13,-4.44,-1.16,-0.14,-1.02,0.51,92.00,178.00,185.00,129.00,766.00,1274.00,976.00,1084.00,,,,,,,,,,,,0,1,0,,-2864,16060,244,-12,55,-149
7.053,7.03,-0.74,-4.84,1.41,-4.00,0.08,-1.33,0.41,-0.43,0.37,75.00,204.00,171.00,164.00,746.00,1264.00,973.00,1063.00,,,,,,,,,,,,0,1,0,,-2836,15956,172,50,17,-174
7.115,7.08,-0.73,-1.97,2.25,-2.77,2.09,-0.41,-0.32,0.10,-0.32,68.00,178.00,150.00,148.00,763.00,1243.00,1000.00,1060.00,,,,,,,,,,,,0,1,0,,-2996,15968,328,-16,63,-126
7.197,7.14,-0.73,2.57,-2.51,3.43,-1.65,-0.83,-0.42,-0.83,0.13,81.00,169.00,164.00,128.00,773.00,1267.00,993.00,1087.00,,,,,,,,,,,,0,1,0,,-2924,16184,240,32,234,-183
7.217,7.19,-0.78,-2.05,-0.26,-0.01,-1.47,-1.73,0.42,-1.23,0.58,78.00,191.00,173.00,146.00,751.00,1284.00,976.00,1091.00,,,,,,,,,,,,0,1,0,,-2928,16044,92,-56,249,-198
7.278,7.25,-0.79,-5.17,4.74,-6.87,4.10,-0.98,-0.20,-0.14,-0.35,63.00,189.00,145.00,165.00,766.00,1267.00,1006.00,1071.00,,,,,,,,,,,,0,1,0,,-3008,15992,284,-106,82,-153
7.339,7.30,-0.80,2.18,-2.38,2.72,-1.74,-1.00,-0.60,-0.68,-0.78,81.00,171.00,167.00,132.00,783.00,1282.00,1040.00,1107.00,,,,,,,,,,,,0,1,0,,-2960,16008,332,6,-5,-28
7.381,7.36,-0.86,-1.36,-1.86,0.19,-2.27,-1.98,0.04,-1.59,0.20,84.00,194.00,180.00,148.00,770.00,1310.00,1003.00,1118.00,,,,,,,,,,,,0,1,0,,-2872,16092,276,-33,119,-134
7.483,7.41,-0.90,-4.64,0.38,-6.03,0.66,-1.59,-0.16,-1.07,-0.11,79.00,208.00,172.00,175.00,773.00,1297.00,1010.00,1104.00,,,,,,,,,,,,0,1,0,,-2968,16140,208,-80,207,-326
7.522,7.47,-0.87,0.28,-1.28,-0.89,-1.18,-0.42,-1.05,0.12,-0.65,79.00,179.00,173.00,150.00,794.00,1268.00,1018.00,1069.00,,,,,,,,,,,,0,1,0,,-2988,16100,252,-97,68,-201
7.56,7.52,-0.91,3.11,-5.24,2.57,-3.97,-1.51,-0.12,-0.98,0.51,93.00,178.00,189.00,141.00,770.00,1291.00,975.00,1082.00,,,,,,,,,,,,0,1,0,,-2936,15940,476,10,-5,-139
7.62,7.58,-0.93,-4.92,2.44,-3.18,0.02,-1.34,0.36,0.09,0.30,71.00,199.00,169.00,159.00,748.00,1266.00,967.00,1043.00,,,,,,,,,,,,0,1,0,,-2980,16080,344,-34,153,-153
7.682,7.63,-0.90,-2.02,3.38,-2.20,2.02,-0.46,-0.40,0.51,-0.18,64.00,173.00,149.00,145.00,767.00,1248.00,985.00,1039.00,,,,,,,,,,,,0,1,0,,-2988,15948,224,-20,231,-121
7.743,7.69,-0.91,3.75,-3.13,3.01,-2.17,-1.01,-0.09,-0.20,0.23,82.00,164.00,170.00,132.00,762.00,1265.00,976.00,1057.00,,,,,,,,,,,,0,1,0,,-2960,15832,340,94,130,-139
7.865,7.74,-0.93,-0.68,-0.48,0.18,-1.75,-1.41,0.54,-0.11,0.49,77.00,182.00,175.00,146.00,742.00,1264.00,961.00,1046.00,,,,,,,,,,,,0,1,0,,-2964,16040,212,-101,103,-82
7.885,7.80,-0.91,-4.82,5.83,-5.15,3.64,-0.47,-0.20,0.56,-0.25,59.00,181.00,144.00,156.00,759.00,1242.00,988.00,1039.00,,,,,,,,,,,,0,1,0,,-2968,16004,8,-174,11,-136
7.906,7.85,-0.91,3.95,-2.97,3.34,-1.50,-0.81,-0.35,-0.19,0.04,81.00,162.00,163.00,128.00,770.00,1264.00,986.00,1062.00,,,,,,,,,,,,0,1,0,,-3016,16112,316,-60,-62,-167
7.926,7.91,-0.94,-0.44,-1.03,1.18,-2.19,-1.54,0.26,-0.86,0.34,79.00,183.00,176.00,142.00,755.00,1280.00,982.00,1082.00,,,,,,,,,,,,0,1,0,,-3024,15940,328,77,8,-90
7.989,7.96,-0.95,-4.38,2.79,-4.48,1.02,-1.12,-0.08,-0.39,-0.12,69.00,193.00,164.00,163.00,763.00,1270.00,998.00,1075.00,,,,,,,,,,,,0,1,0,,-2972,15948,496,47,216,-73
8.051,8.02,-0.93,0.48,-1.58,-0.85,0.02,-0.59,-0.97,-0.40,-0.55,80.00,179.00,162.00,145.00,793.00,1274.00,1022.00,1088.00,,,,,,,,,,,,0,1,0,,-2860,15940,232,-12,381,-174
8.093,8.07,-0.98,2.52,-6.01,2.13,-4.12,-1.86,0.00,-1.82,0.36,98.00,186.00,192.00,144.00,770.00,1305.00,998.00,1123.00,,,,,,,,,,,,0,1,0,,-2980,15916,-4,-183,173,-246
8.154,8.13,-1.02,-7.91,1.95,-6.12,0.58,-1.79,0.24,-0.98,0.10,77.00,227.00,173.00,176.00,759.00,1293.00,997.00,1094.00,,,,,,,,,,,,0,1,0,,-2892,16096,184,-72,-28,-79
8.217,8.18,-0.98,-3.23,1.88,-4.27,2.11,-0.36,-1.55,-0.60,-0.70,71.00,189.00,154.00,157.00,815.00,1282.00,1034.00,1101.00,,,,,,,,,,,,0,1,0,,-2996,16100,404,-40,80,-22
8.279,8.24,-1.01,0.21,-2.61,0.26,-1.35,-1.49,-0.29,0.29,-0.46,85.00,186.00,171.00,144.00,777.00,1296.00,1004.00,1056.00,,,,,,,,,,,,0,1,0,,-2860,16004,268,3,247,-190
8.34,8.29,-1.04,-1.01,-0.61,-1.20,-0.97,-1.61,0.35,-0.42,0.42,78.00,185.00,172.00,151.00,752.00,1280.00,970.00,1061.00,,,,,,,,,,,,0,1,0,,-3052,16056,332,-63,264,-182
8.402,8.35,-1.01,-5.77,7.45,-5.36,3.71,-0.48,-0.34,1.04,-0.30,55.00,180.00,144.00,157.00,765.00,1247.00,982.00,1021.00,,,,,,,,,,,,0,1,0,,-2888,15956,24,-3,199,-101
8.442,8.40,-1.00,5.41,-3.23,3.51,-2.33,-0.79,-0.38,-0.10,0.20,80.00,154.00,170.00,130.00,771.00,1264.00,976.00,1054.00,,,,,,,,,,,,0,1,0,,-2912,16064,252,-25,116,-60
8.524,8.46,-1.03,0.10,-1.22,0.72,-2.04,-1.69,0.65,-0.46,0.63,79.00,180.00,176.00,144.00,741.00,1274.00,960.00,1057.00,,,,,,,,,,,,0,1,0,,-2796,16056,208,-80,233,-22
8.608,8.51,-1.04,-2.88,2.55,-4.37,1.32,-1.13,0.12,-0.00,-0.02,68.00,183.00,161.00,161.00,755.00,1264.00,986.00,1056.00,,,,,,,,,,,,0,1,0,,-2872,16036,212,17,223,-137
8.628,8.57,-1.00,-0.23,0.10,-0.42,-0.35,-0.34,-0.84,0.27,-0.63,74.00,176.00,164.00,144.00,784.00,1257.00,1014.00,1062.00,,,,,,,,,,,,0,1,0,,-2952,15956,112,-54,194,-67
8.669,8.62,-1.04,3.24,-6.06,2.05,-3.99,-1.67,0.13,-1.32,0.57,97.00,181.00,191.00,144.00,762.00,1291.00,978.00,1095.00,,,,,,,,,,,,0,1,0,,-2824,15980,164,-130,162,-129
8.73,8.68,-1.06,-6.91,3.91,-5.46,0.68,-1.46,0.30,-0.46,0.13,68.00,207.00,170.00,171.00,752.00,1274.00,986.00,1071.00,,,,,,,,,,,,0,1,0,,-2884,16020,176,-135,126,-183
8.793,8.73,-1.03,-0.86,-0.42,-1.67,1.23,-0.48,-0.75,0.09,-0.72,77.00,183.00,154.00,145.00,782.00,1261.00,1022.00,1072.00,,,,,,,,,,,,0,1,0,,-2952,16080,176,-53,69,-179
8.813,8.79,-1.04,3.29,-5.30,2.48,-3.04,-1.28,-0.19,-1.09,0.23,93.00,177.00,180.00,138.00,770.00,1282.00,992.00,1095.00,,,,,,,,,,,,0,1,0,,-2916,16032,296,-22,80,-110
8.876,8.84,-1.09,-2.64,0.42,-1.47,-1.30,-1.96,0.47,-1.06,0.30,76.00,192.00,176.00,154.00,752.00,1294.00,988.00,1092.00,,,,,,,,,,,,0,1,0,,-2904,16080,324,-115,226,-107
8.958,8.90,-1.09,-5.43,4.53,-5.21,2.79,-1.03,-0.35,-0.24,-0.44,64.00,192.00,151.00,160.00,773.00,1275.00,1013.00,1078.00,,,,,,,,,,,,0,1,0,,-2840,16056,56,-114,328,-196
8.978,8.95,-1.11,2.02,-3.21,3.45,-2.53,-1.49,-0.29,-1.63,0.12,85.00,176.00,172.00,131.00,777.00,1296.00,1008.00,1122.00,,,,,,,,,,,,0,1,0,,-2796,16080,80,-113,92,-149
9.04,9.01,-1.17,-2.84,-1.36,0.86,-2.50,-2.36,0.46,-1.84,0.46,84.00,203.00,180.00,145.00,758.00,1315.00,993.00,1121.00,,,,,,,,,,,,0,1,0,,-2896,15948,244,-30,-9,-80
9.103,9.06,-1.25,-7.00,4.78,-5.17,1.36,-2.78,0.10,2.20,-1.39,65.00,203.00,163.00,166.00,779.00,1350.00,1020.00,1004.00,,,,,,,,,,,,0,1,0,,-2928,16056,188,32,194,-116
9.165,9.12,-1.26,-2.06,-1.40,-3.18,0.02,-1.38,-0.82,-1.21,-0.60,83.00,197.00,169.00,159.00,798.00,1309.00,1040.00,1125.00,,,,,,,,,,,,0,1,0,,-2868,16140,-76,-61,270,-360
9.206,9.17,-1.28,1.49,-5.28,0.85,-3.49,-1.69,-0.08,-1.23,0.37,96.00,190.00,190.00,149.00,771.00,1299.00,987.00,1097.00,,,,,,,,,,,,0,1,0,,-2804,15928,40,-88,17,-335
9.246,9.23,-1.29,-5.22,1.78,-6.70,1.43,-1.55,0.21,-0.18,0.13,74.00,205.00,167.00,176.00,757.00,1282.00,981.00,1059.00,,,,,,,,,,,,0,1,0,,-2980,16000,312,4,-103,-147
9.349,9.28,-1.25,-0.63,0.49,-3.33,1.43,-0.52,-0.78,0.64,-0.65,73.00,177.00,157.00,154.00,784.00,1264.00,1008.00,1047.00,,,,,,,,,,,,0,1,0,,-2972,16072,292,21,115,-210
9.37,9.34,-1.26,3.99,-6.12,2.81,-3.26,-1.49,0.24,-0.71,0.46,96.00,176.00,181.00,137.00,755.00,1278.00,973.00,1072.00,,,,,,,,,,,,0,1,0,,-2932,16032,168,40,270,-187
9.411,9.39,-1.28,-3.93,2.91,-1.26,-1.37,-1.51,0.32,-0.52,0.53,68.00,189.00,176.00,153.00,752.00,1276.00,966.00,1062.00,,,,,,,,,,,,0,1,0,,-2828,15924,280,30,199,-83
9.472,9.45,-1.24,-2.88,3.39,-5.36,3.71,-0.64,-0.31,0.63,-0.39,65.00,179.00,144.00,157.00,766.00,1254.00,994.00,1040.00,,,,,,,,,,,,0,1,0,,-2960,16096,256,-72,249,-116
9.533,9.50,-1.23,2.76,-2.34,4.15,-2.11,-0.87,-0.36,-0.41,0.06,80.00,167.00,166.00,126.00,771.00,1267.00,989.00,1071.00,,,,,,,,,,,,0,1,0,,-2948,16024,-8,-137,163,-244
9.594,9.56,-1.23,-1.12,-1.04,-1.29,-1.57,-1.29,0.32,-1.07,0.79,80.00,188.00,178.00,154.00,749.00,1265.00,962.00,1078.00,,,,,,,,,,,,0,1,0,,-2960,16040,180,72,38,-165
9.635,9.61,-1.22,-6.23,6.30,-5.52,3.01,-1.09,-0.07,-0.25,-0.22,59.00,189.00,150.00,161.00,762.00,1268.00,1001.00,1072.00,,,,,,,,,,,,0,1,0,,-3020,16080,184,109,58,-177
9.697,9.67,-1.21,-0.24,-1.33,-1.05,-0.69,-0.97,-0.58,-0.65,-0.21,80.00,183.00,169.00,149.00,782.00,1280.00,1008.00,1089.00,,,,,,,,,,,,0,1,0,,-2956,15908,164,67,213,-115
9.759,9.72,-1.25,1.14,-5.17,1.88,-3.74,-2.02,0.13,-1.78,0.44,96.00,192.00,189.00,144.00,767.00,1309.00,993.00,1119.00,,,,,,,,,,,,0,1,0,,-2908,15952,192,-92,296,-118
9.842,9.78,-1.27,-5.52,0.44,-6.32,1.08,-1.67,0.13,-1.53,0.68,80.00,215.00,169.00,175.00,762.00,1291.00,976.00,1101.00,,,,,,,,,,,,0,1,0,,-2948,16064,232,-225,278,-153
9.863,9.83,-1.25,-1.81,-0.81,-3.22,1.28,-0.93,-0.97,-0.59,-0.81,80.00,192.00,158.00,154.00,798.00,1291.00,1040.00,1104.00,,,,,,,,,,,,0,1,0,,-2924,16096,-8,-243,114,-236
9.924,9.89,-1.29,2.51,-6.19,2.86,-3.88,-1.95,-0.23,-2.11,0.21,99.00,187.00,187.00,139.00,781.00,1318.00,1012.00,1141.00,,,,,,,,,,,,0,1,0,,-2832,15988,128,13,-57,-190
9.966,9.94,-1.32,-6.41,0.06,-9.21,8.22,-1.97,0.11,-1.74,0.15,83.00,225.00,121.00,162.00,767.00,1307.00,1008.00,1126.00,,,,,,,,,,,,0,1,0,,-2928,15916,476,92,-48,-220
10.068,10.00,-1.33,-5.28,2.05,-4.79,2.16,-1.53,-0.23,-0.91,-0.35,73.00,204.00,155.00,160.00,775.00,1296.00,1020.00,1104.00,,,,,,,,,,,,0,1,0,,-3064,16156,140,89,42,-334
10.089,10.05,-1.35,2.01,-2.77,3.67,-2.28,-1.63,-0.08,-1.08,0.28,83.00,174.00,169.00,129.00,770.00,1296.00,989.00,1093.00,,,,,,,,,,,,0,1,0,,-3028,15992,-64,-149,19,-235
10.129,10.11,-1.38,-2.22,-0.20,-1.29,-1.57,-2.02,0.49,-0.89,0.73,78.00,192.00,178.00,154.00,752.00,1296.00,962.00,1072.00,,,,,,,,,,,,0,1,0,,-2948,15940,288,-75,26,-220
10.211,10.16,-1.36,-7.36,9.37,-5.15,3.64,-0.92,-0.22,0.52,-0.25,51.00,182.00,144.00,156.00,766.00,1265.00,989.00,1041.00,,,,,,,,,,,,0,1,0,,-3000,15924,76,-89,133,-75
10.253,10.22,-1.33,4.37,-2.42,-0.92,0.39,-0.72,-0.57,-0.48,0.12,78.00,157.00,159.00,144.00,778.00,1267.00,987.00,1072.00,,,,,,,,,,,,0,1,0,,-3056,16036,132,-142,197,-63
10.314,10.27,-1.35,-0.75,-1.39,1.18,-2.71,-1.70,0.02,-1.40,0.61,81.00,187.00,181.00,144.00,767.00,1296.00,977.00,1097.00,,,,,,,,,,,,0,1,0,,-3016,16168,156,-42,203,-92
10.376,10.33,-1.34,-6.75,3.32,-6.23,1.38,-1.22,-0.19,-0.42,0.01,70.00,209.00,166.00,173.00,769.00,1279.00,992.00,1073.00,,,,,,,,,,,,0,1,0,,-2864,15996,-72,7,244,-135
10.497,10.38,-1.30,-0.93,0.09,-1.68,1.00,-0.52,-0.88,-0.24,-0.41,75.00,181.00,156.00,146.00,788.00,1267.00,1011.00,1077.00,,,,,,,,,,,,0,1,0,,-2928,16052,-40,-33,109,-146
10.518,10.44,-1.32,4.24,-7.33,4.66,-7.06,-1.75,0.04,-1.55,0.40,102.00,180.00,215.00,141.00,767.00,1298.00,991.00,1110.00,,,,,,,,,,,,0,1,0,,-3040,15924,136,58,-38,-168
10.539,10.49,-1.35,-6.91,3.38,-4.50,0.14,-2.00,0.56,-1.16,0.37,70.00,210.00,172.00,167.00,749.00,1293.00,986.00,1094.00,,,,,,,,,,,,0,1,0,,-3128,16020,256,130,-27,-116
10.581,10.55,-1.34,-3.75,2.05,-4.70,2.74,-1.15,-0.24,-0.56,-0.24,71.00,192.00,150.00,157.00,770.00,1277.00,1008.00,1086.00,,,,,,,,,,,,0,1,0,,-2920,16004,144,64,125,-141
10.623,10.60,-1.35,1.66,-3.52,3.89,-2.89,-1.47,-0.37,-1.40,0.07,87.00,180.00,174.00,130.00,780.00,1298.00,1006.00,1113.00,,,,,,,,,,,,0,1,0,,-2972,15972,220,-39,334,-141
10.686,10.66,-1.40,-3.80,-0.14,-1.47,-1.30,-2.30,0.54,-1.99,0.64,80.00,204.00,176.00,154.00,754.00,1309.00,986.00,1122.00,,,,,,,,,,,,0,1,0,,-2832,15936,-104,-104,266,-95
10.748,10.71,-1.38,-40.16,54.61,-5.62,2.92,-1.12,-0.63,-0.80,-0.40,8.00,198.00,151.00,162.00,786.00,1289.00,1021.00,1101.00,,,,,,,,,,,,0,1,0,,-2848,16012,32,-168,175,-84
10.788,10.77,-1.39,0.76,-3.22,0.52,-1.22,-1.54,-0.58,-1.81,-0.08,87.00,185.00,169.00,142.00,790.00,1309.00,1022.00,1136.00,,,,,,,,,,,,0,1,0,,-2912,16204,116,-145,163,-115
10.85,10.82,-1.44,-2.70,-2.47,-0.45,-2.56,-2.43,0.03,-2.23,0.12,89.00,208.00,185.00,153.00,777.00,1334.00,1019.00,1149.00,,,,,,,,,,,,0,1,0,,-2824,16044,100,-113,68,-146
10.911,10.88,-1.49,-6.26,0.01,-6.95,0.75,-2.36,0.12,-1.96,-0.24,83.00,224.00,174.00,181.00,772.00,1327.00,1034.00,1148.00,,,,,,,,,,,,0,1,0,,-2812,15972,44,-31,102,-148
10.973,10.93,-1.49,-4.43,0.08,-2.69,-0.47,-1.54,-1.06,-1.61,-0.89,80.00,208.00,172.00,158.00,811.00,1326.00,1064.00,1152.00,,,,,,,,,,,,0,1,0,,-2940,16268,-48,-64,191,-240
11.014,10.99,-1.53,1.47,-5.85,2.10,-4.58,-2.30,-0.09,-2.22,0.33,99.00,193.00,197.00,146.00,780.00,1331.00,1007.00,1142.00,,,,,,,,,,,,0,1,0,,-3080,16136,-120,-107,99,-178
11.076,11.04,-1.55,-7.14,3.19,-6.50,0.92,-1.86,0.17,-0.86,0.34,71.00,213.00,171.00,177.00,763.00,1299.00,982.00,1082.00,,,,,,,,,,,,0,1,0,,-2932,15916,180,-65,-1,-163
11.159,11.10,-1.53,-3.11,2.10,3.50,0.35,-1.09,-0.33,-0.14,-0.27,70.00,187.00,147.00,121.00,773.00,1277.00,1002.00,1069.00,,,,,,,,,,,,0,1,0,,-3012,16004,192,26,175,-128
11.2,11.15,-1.53,1.40,-1.65,3.14,-2.64,-1.70,0.02,-0.83,0.33,79.00,173.00,174.00,133.00,767.00,1296.00,982.00,1081.00,,,,,,,,,,,,0,1,0,,-2856,15860,132,-80,286,-190
11.241,11.21,-1.56,-5.71,6.13,0.27,-1.89,-2.02,0.49,-1.29,0.77,59.00,186.00,176.00,146.00,752.00,1296.00,967.00,1088.00,,,,,,,,,,,,0,1,0,,-2936,15924,-84,-37,192,-181
11.303,11.26,-1.52,-8.32,8.99,-6.48,3.96,-0.87,-0.36,0.10,-0.24,53.00,191.00,145.00,163.00,771.00,1267.00,996.00,1058.00,,,,,,,,,,,,0,1,0,,-3000,16000,-104,-156,149,-109
11.363,11.32,-1.51,-1.39,-0.24,1.98,-0.93,-1.20,-0.50,-0.80,0.04,77.00,186.00,162.00,133.00,782.00,1289.00,997.00,1088.00,,,,,,,,,,,,0,1,0,,-2896,15984,-124,-206,59,-201
11.426,11.37,-1.53,-5.35,4.22,-0.61,-1.59,-1.92,0.09,-1.45,0.43,65.00,193.00,176.00,150.00,767.00,1305.00,988.00,1105.00,,,,,,,,,,,,0,1,0,,-2960,15968,4,-111,-26,-198
11.528,11.43,-1.53,-5.60,2.16,-5.95,1.40,-1.56,-0.10,-0.96,0.08,73.00,206.00,165.00,171.00,770.00,1293.00,998.00,1094.00,,,,,,,,,,,,0,1,0,,-2928,16052,152,-33,-43,-129
11.569,11.48,-1.51,-0.77,-1.15,-1.22,-0.19,-1.15,-0.78,-0.59,-0.81,80.00,186.00,165.00,148.00,793.00,1296.00,1040.00,1104.00,,,,,,,,,,,,0,1,0,,-2912,16064,124,48,54,-129
11.59,11.54,-1.54,0.97,-5.68,3.12,-4.26,-2.18,-0.20,-2.15,0.33,99.00,196.00,190.00,139.00,783.00,1329.00,1006.00,1139.00,,,,,,,,,,,,0,1,0,,-2860,16056,76,-51,168,-170
11.631,11.59,-1.58,-6.53,1.25,-6.12,0.58,-2.21,0.29,-1.53,0.10,78.00,219.00,173.00,176.00,763.00,1313.00,1007.00,1118.00,,,,,,,,,,,,0,1,0,,-2912,16016,64,-200,190,-159
11.673,11.65,-1.56,-3.97,1.61,-4.89,2.32,-1.20,-0.72,-0.80,-0.74,73.00,196.00,154.00,160.00,791.00,1296.00,1040.00,1111.00,,,,,,,,,,,,0,1,0,,-2940,16036,140,-206,119,-161
11.777,11.70,-1.58,-0.76,-3.13,1.00,-1.92,-2.04,-0.27,-2.01,0.15,89.00,196.00,174.00,142.00,784.00,1324.00,1013.00,1138.00,,,,,,,,,,,,0,1,0,,-2940,15964,172,-119,101,-172
11.797,11.76,-1.64,-3.83,-0.80,-2.57,-0.40,-2.76,0.59,-2.26,0.50,83.00,208.00,171.00,157.00,758.00,1331.00,999.00,1139.00,,,,,,,,,,,,0,1,0,,-2844,15928,92,-103,78,-203
11.838,11.81,-1.64,-7.15,4.27,-7.93,4.32,-1.70,-0.45,-0.96,-0.60,67.00,207.00,146.00,171.00,787.00,1313.00,1035.00,1114.00,,,,,,,,,,,,0,1,0,,-3012,16280,-68,-44,20,-194
11.9,11.87,-1.66,1.08,-2.46,0.86,-1.98,-1.87,-0.37,-1.15,-0.12,83.00,179.00,175.00,143.00,786.00,1319.00,1012.00,1108.00,,,,,,,,,,,,0,1,0,,-2992,16072,328,-24,-29,-205
11.961,11.92,-1.68,-4.89,0.94,-2.36,-1.42,-2.22,0.22,-1.29,0.56,77.00,207.00,180.00,160.00,766.00,1316.00,978.00,1094.00,,,,,,,,,,,,0,1,0,,-3108,15864,384,-13,46,-204
12.002,11.98,-1.69,-4.72,2.90,-5.75,0.89,-1.79,0.07,-0.41,0.06,69.00,195.00,169.00,172.00,766.00,1299.00,989.00,1071.00,,,,,,,,,,,,0,1,0,,-2980,16116,112,-49,244,-147
12.062,12.03,-1.65,-0.08,-1.15,-2.73,0.32,-0.91,-0.89,-0.21,-0.45,79.00,181.00,165.00,155.00,794.00,1287.00,1013.00,1077.00,,,,,,,,,,,,0,1,0,,-2892,15856,164,-164,282,-120
12.123,12.09,-1.68,0.10,-3.62,1.99,-4.17,-2.30,0.17,-1.56,0.52,90.00,192.00,193.00,145.00,769.00,1322.00,985.00,1107.00,,,,,,,,,,,,0,1,0,,-2872,16228,60,-118,218,-194
12.183,12.14,-1.69,-6.39,2.42,-7.16,1.70,-1.87,0.27,-0.63,0.25,73.00,211.00,166.00,178.00,759.00,1296.00,983.00,1075.00,,,,,,,,,,,,0,1,0,,-2876,15984,124,-88,161,-137
12.266,12.20,-1.65,-3.63,2.27,-2.65,2.17,-0.88,-0.66,-0.17,-0.65,70.00,190.00,149.00,147.00,784.00,1278.00,1023.00,1081.00,,,,,,,,,,,,0,1,0,,-2844,16084,148,-79,108,-201
12.286,12.25,-1.64,3.27,-5.69,1.65,-2.35,-1.49,-0.29,-1.22,0.29,95.00,179.00,176.00,140.00,777.00,1296.00,991.00,1099.00,,,,,,,,,,,,0,1,0,,-2920,15964,252,-22,48,-231
12.327,12.31,-1.67,-2.77,0.22,-0.39,-1.66,-2.21,0.46,-1.43,0.53,77.00,194.00,176.00,149.00,756.00,1307.00,982.00,1101.00,,,,,,,,,,,,0,1,0,,-3004,15936,212,75,23,-226
12.387,12.36,-1.65,-6.55,5.79,-6.18,3.99,-1.29,-0.28,-0.45,-0.30,61.00,194.00,144.00,161.00,774.00,1286.00,1009.00,1083.00,,,,,,,,,,,,0,1,0,,-2980,15932,388,12,94,-128
12.448,12.42,-1.65,-7.68,9.85,1.55,-1.12,-1.55,-0.48,-2.11,0.17,50.00,182.00,165.00,136.00,786.00,1306.00,1014.00,1142.00,,,,,,,,,,,,0,1,0,,-3004,15792,160,-44,262,-142
12.51,12.47,-1.69,-3.32,-1.20,-1.47,-1.30,-2.53,0.40,-2.23,0.62,84.00,206.00,176.00,154.00,763.00,1326.00,992.00,1134.00,,,,,,,,,,,,0,1,0,,-2908,16064,20,-148,320,-111
12.55,12.53,-1.73,-6.59,4.36,-5.77,2.02,-2.41,0.33,-1.27,-0.70,66.00,202.00,159.00,167.00,764.00,1322.00,1047.00,1131.00,,,,,,,,,,,,0,1,0,,-2908,16060,64,-154,211,-164
12.631,12.58,-1.73,-2.82,-0.47,-5.85,0.81,-1.76,-0.72,-1.61,-0.47,80.00,198.00,170.00,173.00,799.00,1325.00,1040.00,1139.00,,,,,,,,,,,,0,1,0,,-2896,16036,84,-105,-36,-189
12.672,12.64,-1.79,-0.33,-5.97,0.02,-3.50,-2.91,0.05,-2.80,0.35,103.00,208.00,193.00,154.00,783.00,1359.00,1017.00,1168.00,,,,,,,,,,,,0,1,0,,-3036,16092,80,74,-16,-105
12.714,12.69,-1.83,-7.87,1.23,-7.49,0.93,-2.56,0.02,-1.91,-0.26,80.00,231.00,174.00,184.00,779.00,1341.00,1034.00,1146.00,,,,,,,,,,,,0,1,0,,-3064,16016,84,10,224,-117
12.775,12.75,-1.82,-4.27,0.02,-4.38,0.87,-1.63,-0.99,-0.92,-0.96,80.00,207.00,165.00,163.00,809.00,1328.00,1055.00,1123.00,,,,,,,,,,,,0,1,0,,-2936,15924,44,-139,225,-257
12.856,12.80,-1.83,1.49,-5.09,1.74,-3.79,-2.11,-0.25,-1.70,0.36,95.00,189.00,190.00,145.00,784.00,1327.00,996.00,1118.00,,,,,,,,,,,,0,1,0,,-2928,15944,52,-101,38,-249
12.897,12.86,-1.85,-2.43,1.09,-3.33,1.20,-2.24,0.40,-0.98,0.47,73.00,187.00,159.00,155.00,759.00,1311.00,977.00,1083.00,,,,,,,,,,,,0,1,0,,-2980,16080,192,-76,-2,-121
13.002,12.91,-1.82,-4.57,4.24,-5.98,3.92,-1.12,-0.39,0.18,-0.25,64.00,187.00,144.00,160.00,776.00,1281.00,995.00,1055.00,,,,,,,,,,,,0,1,0,,-2896,16080,344,-53,107,-118
13.023,12.97,-1.80,1.40,-1.65,3.70,-2.61,-1.45,-0.38,-1.00,0.24,79.00,173.00,172.00,130.00,780.00,1297.00,990.00,1091.00,,,,,,,,,,,,0,1,0,,-3056,16020,208,-54,188,-110
13.085,13.02,-1.82,-2.56,-0.09,-1.29,-1.57,-2.32,0.42,-1.25,0.77,78.00,194.00,178.00,154.00,759.00,1314.00,966.00,1086.00,,,,,,,,,,,,0,1,0,,-3084,15884,52,125,137,-45
13.105,13.08,-1.81,-2.88,2.55,-4.17,2.44,-1.61,-0.11,-0.28,-0.10,68.00,183.00,151.00,155.00,771.00,1296.00,995.00,1070.00,,,,,,,,,,,,0,1,0,,-2968,16044,204,24,213,-32
13.167,13.13,-1.79,-2.05,-0.26,-2.13,-0.33,-1.40,-0.56,-0.78,-0.06,78.00,191.00,169.00,154.00,787.00,1301.00,1002.00,1090.00,,,,,,,,,,,,0,1,0,,-2912,15908,-8,-121,297,-138
13.208,13.19,-1.82,-0.23,-3.72,0.41,-3.35,-2.39,0.11,-1.99,0.55,91.00,195.00,190.00,151.00,773.00,1329.00,991.00,1125.00,,,,,,,,,,,,0,1,0,,-2992,16016,-24,-218,111,-175
13.268,13.24,-1.84,-5.68,1.20,-6.88,1.49,-2.09,0.18,-0.94,0.01,77.00,212.00,167.00,177.00,766.00,1311.00,1001.00,1095.00,,,,,,,,,,,,0,1,0,,-2936,16100,276,-211,-70,-89
13.373,13.30,-1.80,-2.39,-0.14,-3.75,1.34,-1.08,-0.94,-0.94,-0.34,78.00,193.00,159.00,157.00,799.00,1298.00,1020.00,1105.00,,,,,,,,,,,,0,1,0,,-2988,16072,380,-58,36,-172
13.394,13.35,-1.83,1.80,-6.32,1.71,-3.49,-2.48,-0.12,-2.15,0.33,101.00,193.00,187.00,144.00,784.00,1342.00,1006.00,1139.00,,,,,,,,,,,,0,1,0,,-2944,16064,100,-43,181,-156
13.435,13.41,-1.87,-4.43,0.08,-3.93,-0.47,-2.60,0.42,-1.78,0.41,80.00,208.00,176.00,166.00,763.00,1329.00,995.00,1120.00,,,,,,,,,,,,0,1,0,,-2904,16040,-20,-1,188,-124
13.498,13.46,-1.86,-6.28,3.16,-6.40,2.94,-1.67,-0.40,-0.86,-0.42,70.00,206.00,153.00,167.00,784.00,1309.00,1023.00,1104.00,,,,,,,,,,,,0,1,0,,-2892,15920,16,-126,109,-82
13.54,13.52,-1.89,-0.37,-1.75,1.37,-1.94,-2.35,-0.24,-1.84,-0.23,82.00,186.00,173.00,140.00,787.00,1339.00,1031.00,1142.00,,,,,,,,,,,,0,1,0,,-2852,16012,160,-207,123,-68
13.601,13.57,-1.94,-3.83,-0.80,-2.54,-1.15,-3.03,0.44,-2.40,0.56,83.00,208.00,178.00,160.00,768.00,1351.00,998.00,1143.00,,,,,,,,,,,,0,1,0,,-2868,16284,140,-210,327,-162
13.683,13.63,-1.94,-7.19,5.41,-7.34,3.02,-1.81,-0.18,-0.38,-0.34,63.00,201.00,155.00,173.00,777.00,1309.00,1010.00,1081.00,,,,,,,,,,,,0,1,0,,-2952,16092,28,-187,224,-191
13.744,13.68,-1.93,0.85,-1.70,-0.16,-0.99,-1.74,-0.37,-0.89,0.07,80.00,177.00,169.00,145.00,784.00,1312.00,997.00,1091.00,,,,,,,,,,,,0,1,0,,-2868,15900,284,-50,-26,-149
13.764,13.74,-1.95,-1.81,-0.81,-0.43,-1.86,-2.37,0.06,-1.35,0.45,80.00,192.00,178.00,150.00,775.00,1330.00,985.00,1100.00,,,,,,,,,,,,0,1,0,,-2872,16056,268,-47,36,-144
13.826,13.79,-1.94,-6.35,4.00,-6.32,1.08,-1.87,0.08,-0.48,0.12,67.00,202.00,169.00,175.00,767.00,1303.00,987.00,1072.00,,,,,,,,,,,,0,1,0,,-2972,15996,268,-51,179,-137
13.888,13.85,-1.89,0.12,-1.46,-3.02,0.98,-0.95,-0.94,-0.13,-0.57,80.00,181.00,160.00,154.00,797.00,1291.00,1018.00,1077.00,,,,,,,,,,,,0,1,0,,-2912,15880,68,-64,154,-157
13.95,13.90,-1.91,2.01,-5.46,2.30,-4.37,-2.28,-0.02,-1.52,0.56,96.00,187.00,194.00,144.00,777.00,1328.00,982.00,1104.00,,,,,,,,,,,,0,1,0,,-2972,15884,80,11,203,-89
14.011,13.96,-1.94,-5.05,0.99,-4.90,0.06,-2.36,0.51,-0.94,0.35,77.00,208.00,174.00,170.00,756.00,1313.00,983.00,1085.00,,,,,,,,,,,,0,1,0,,-2924,16092,108,-102,112,-167
14.117,14.01,-1.91,-5.35,4.22,-8.44,4.00,-1.49,-0.19,-0.34,-0.26,65.00,193.00,150.00,176.00,773.00,1293.00,1005.00,1077.00,,,,,,,,,,,,0,1,0,,-2924,16056,88,-20,44,-273
14.138,14.07,-1.90,1.43,-2.12,4.02,-2.51,-1.72,-0.38,-1.29,0.22,81.00,175.00,170.00,128.00,784.00,1311.00,996.00,1104.00,,,,,,,,,,,,0,1,0,,-2964,15956,88,86,52,-187
14.157,14.12,-1.95,1.31,-5.60,-0.99,-1.77,-2.75,0.69,-0.35,0.28,98.00,193.00,179.00,153.00,754.00,1327.00,976.00,1062.00,,,,,,,,,,,,0,1,0,,-2928,15976,-84,83,67,-181
14.22,14.18,-1.94,-6.92,6.54,-6.36,3.80,-1.82,-0.11,-0.74,-0.11,59.00,193.00,146.00,163.00,774.00,1307.00,1004.00,1090.00,,,,,,,,,,,,0,1,0,,-2916,15908,4,-8,127,-156
14.281,14.23,-1.94,1.08,-2.46,0.71,-1.50,-1.94,-0.42,-1.51,-0.05,83.00,179.00,171.00,142.00,789.00,1324.00,1015.00,1122.00,,,,,,,,,,,,0,1,0,,-2924,15988,-88,-181,146,-179
14.343,14.29,-1.99,-3.23,-0.78,-1.02,-1.97,-2.88,0.25,-2.03,0.25,82.00,203.00,181.00,154.00,774.00,1350.00,1008.00,1136.00,,,,,,,,,,,,0,1,0,,-2852,16060,32,-158,201,-181
14.364,14.34,-2.00,-6.27,0.69,-6.87,1.27,-2.34,-0.03,-1.65,-0.08,80.00,220.00,169.00,178.00,778.00,1331.00,1019.00,1129.00,,,,,,,,,,,,0,1,0,,-2980,15972,208,-127,105,-196
14.465,14.40,-1.98,-3.64,-0.19,-4.38,1.09,-1.48,-1.13,-1.36,-0.64,80.00,203.00,163.00,162.00,813.00,1325.00,1045.00,1133.00,,,,,,,,,,,,0,1,0,,-2992,16020,28,-47,83,-91
14.485,14.45,-2.03,1.53,-7.81,0.88,-3.79,-3.08,-0.06,-2.86,0.28,110.00,203.00,193.00,150.00,790.00,1372.00,1022.00,1173.00,,,,,,,,,,,,0,1,0,,-2860,15940,68,-23,181,-163
14.526,14.51,-2.08,-6.74,-0.27,-8.00,0.69,-2.90,0.30,-2.88,1.49,85.00,230.00,178.00,189.00,772.00,1349.00,957.00,1136.00,,,,,,,,,,,,0,1,0,,-2928,15952,96,-130,188,-311
14.59,14.56,-2.06,-4.86,3.49,-6.08,2.48,-1.77,-0.38,-0.59,-0.27,67.00,193.00,156.00,167.00,785.00,1314.00,1010.00,1088.00,,,,,,,,,,,,0,1,0,,-2960,15936,20,-150,74,-234
14.651,14.62,-2.05,0.67,-1.64,2.74,-2.61,-1.92,-0.31,-1.06,0.26,80.00,178.00,175.00,135.00,784.00,1319.00,990.00,1093.00,,,,,,,,,,,,0,1,0,,-2916,15840,88,-162,12,-150
14.692,14.67,-2.08,-3.47,1.44,-2.11,-1.09,-2.52,0.66,-0.93,0.65,73.00,193.00,176.00,157.00,752.00,1316.00,967.00,1076.00,,,,,,,,,,,,0,1,0,,-3080,15952,188,-127,112,-128
14.754,14.73,-2.04,-6.68,6.77,-7.18,4.33,-1.36,-0.33,0.03,-0.11,58.00,190.00,144.00,166.00,777.00,1291.00,990.00,1057.00,,,,,,,,,,,,0,1,0,,-2956,15984,216,-82,231,-72
14.834,14.78,-2.02,0.60,-0.91,-0.39,-0.13,-1.52,-0.59,-0.88,0.16,77.00,175.00,162.00,143.00,790.00,1308.00,992.00,1088.00,,,,,,,,,,,,0,1,0,,-2996,15960,164,24,190,-138
14.856,14.84,-2.04,-2.19,-0.45,-1.47,-1.30,-2.53,0.40,-1.14,0.55,79.00,193.00,176.00,154.00,763.00,1326.00,976.00,1088.00,,,,,,,,,,,,0,1,0,,-3004,16040,60,-124,74,-192
14.917,14.89,-2.04,-3.27,0.39,-6.51,1.36,-2.10,0.13,-0.67,0.13,77.00,197.00,167.00,175.00,768.00,1313.00,990.00,1080.00,,,,,,,,,,,,0,1,0,,-2924,16088,72,-197,-55,-163
14.98,14.95,-2.00,-0.95,-1.10,-3.03,0.76,-1.15,-0.99,-0.47,-0.55,80.00,187.00,162.00,155.00,802.00,1303.00,1023.00,1091.00,,,,,,,,,,,,0,1,0,,-3032,16016,296,-44,39,-131
15.041,15.00,-2.03,1.14,-5.17,1.02,-3.74,-2.56,0.02,-2.05,0.48,96.00,192.00,192.00,149.00,779.00,1341.00,996.00,1130.00,,,,,,,,,,,,0,1,0,,-2964,15980,188,70,192,-105
15.083,15.06,-2.05,-7.02,2.14,-7.53,1.82,-2.49,0.29,-0.95,0.05,75.00,218.00,166.00,180.00,767.00,1328.00,999.00,1094.00,,,,,,,,,,,,0,1,0,,-2960,15968,260,-56,257,-108
15.145,15.11,-2.01,-1.99,0.45,-5.43,3.11,-1.24,-0.91,-0.59,-0.81,75.00,187.00,149.00,160.00,800.00,1305.00,1040.00,1104.00,,,,,,,,,,,,0,1,0,,-2980,15940,100,-205,276,-180
15.206,15.17,-2.03,-1.72,-1.52,1.04,-2.25,-2.38,-0.16,-1.63,0.12,83.00,195.00,177.00,143.00,784.00,1338.00,1008.00,1122.00,,,,,,,,,,,,0,1,0,,-2984,16092,72,-209,229,-62
15.268,15.22,-2.07,-3.80,-0.14,-3.13,-0.74,-2.85,0.48,-1.77,0.42,80.00,204.00,176.00,162.00,764.00,1340.00,994.00,1119.00,,,,,,,,,,,,0,1,0,,-2852,16012,224,-145,215,-104
15.309,15.28,-2.06,-6.59,4.36,-7.05,3.90,-1.89,-0.32,-0.87,-0.39,66.00,202.00,147.00,167.00,784.00,1318.00,1022.00,1104.00,,,,,,,,,,,,0,1,0,,-2828,16088,12,47,202,-84
15.371,15.33,-2.07,0.88,-2.17,0.45,-1.63,-2.26,-0.50,-1.91,-0.26,82.00,179.00,173.00,144.00,797.00,1344.00,1034.00,1146.00,,,,,,,,,,,,0,1,0,,-2912,15972,80,-3,136,-157
15.433,15.39,-2.13,-2.70,-2.47,-2.57,-1.35,-3.19,0.42,-2.13,0.39,89.00,208.00,180.00,161.00,771.00,1360.00,1002.00,1136.00,,,,,,,,,,,,0,1,0,,-2900,16076,124,-48,48,-336
15.516,15.44,-2.13,-5.08,2.50,-5.75,1.11,-2.17,-0.11,-0.77,-0.01,71.00,200.00,167.00,171.00,779.00,1325.00,999.00,1088.00,,,,,,,,,,,,0,1,0,,-2912,15960,148,-52,-21,-186
15.557,15.50,-2.09,0.83,-1.46,-3.03,0.76,-1.44,-0.87,-0.54,-0.30,79.00,176.00,162.00,155.00,801.00,1314.00,1011.00,1087.00,,,,,,,,,,,,0,1,0,,-2956,16020,348,-31,55,-129
15.64,15.55,-2.12,0.80,-4.46,1.68,-3.97,-2.62,0.45,-1.41,0.73,93.00,191.00,192.00,146.00,762.00,1329.00,971.00,1094.00,,,,,,,,,,,,0,1,0,,-2980,16048,276,-1,258,-140
15.66,15.61,-2.12,-4.90,1.67,-6.31,0.86,-2.11,0.21,-0.46,0.26,74.00,203.00,171.00,176.00,765.00,1311.00,979.00,1067.00,,,,,,,,,,,,0,1,0,,-3032,16060,-20,-127,214,-178
15.7,15.66,-2.07,-3.41,2.73,-3.64,1.66,-1.20,-0.72,0.01,-0.56,68.00,186.00,156.00,155.00,791.00,1296.00,1015.00,1071.00,,,,,,,,,,,,0,1,0,,-2908,15956,64,-31,72,-188
15.761,15.72,-2.07,3.09,-5.63,8.63,-12.11,-1.90,-0.20,-1.12,0.41,95.00,180.00,263.00,138.00,779.00,1314.00,983.00,1091.00,,,,,,,,,,,,0,1,0,,-2952,16060,176,107,97,-87
15.823,15.77,-2.07,-2.86,0.74,-2.71,-0.67,-2.25,0.54,-0.98,0.47,75.00,192.00,174.00,159.00,753.00,1306.00,977.00,1083.00,,,,,,,,,,,,0,1,0,,-2856,16016,12,34,125,-150
15.864,15.83,-2.03,-5.34,5.39,-6.39,4.06,-1.26,-0.37,-0.03,-0.37,61.00,187.00,144.00,162.00,777.00,1287.00,1005.00,1067.00,,,,,,,,,,,,0,1,0,,-2956,15952,12,65,45,-245
15.946,15.88,-2.01,1.04,-1.76,3.12,-1.77,-1.62,-0.58,-1.11,-0.04,80.00,176.00,166.00,130.00,791.00,1313.00,1007.00,1104.00,,,,,,,,,,,,0,1,0,,-2940,16052,12,-34,-26,-152
15.967,15.94,-2.06,-3.19,-0.11,-1.59,-1.36,-2.86,0.82,-1.88,0.99,79.00,199.00,177.00,155.00,750.00,1328.00,966.00,1107.00,,,,,,,,,,,,0,1,0,,-3072,16012,144,-52,112,-113
16.027,15.99,-2.05,-6.27,4.82,-7.44,4.03,-1.94,-0.16,-0.59,-0.27,64.00,197.00,147.00,169.00,778.00,1315.00,1010.00,1088.00,,,,,,,,,,,,0,1,0,,-2856,16036,52,-89,291,-140
16.068,16.05,-2.03,-1.02,-1.97,-3.86,1.26,-1.67,-0.68,-1.35,-0.23,84.00,192.00,160.00,158.00,796.00,1319.00,1022.00,1120.00,,,,,,,,,,,,0,1,0,,-3004,16012,-144,-128,231,-163
16.128,16.10,-2.07,-1.21,-3.59,0.67,-3.72,-2.78,0.07,-2.37,0.42,92.00,202.00,193.00,151.00,780.00,1351.00,1005.00,1146.00,,,,,,,,,,,,0,1,0,,-2980,16116,76,-136,62,-189
16.189,16.16,-2.09,-6.53,1.25,-8.27,1.09,-2.48,0.07,-1.44,-0.13,78.00,219.00,175.00,189.00,776.00,1335.00,1018.00,1121.00,,,,,,,,,,,,0,1,0,,-2992,15948,180,2,-43,-140
16.229,16.21,-2.07,-2.98,-0.41,-5.77,3.85,-1.79,-0.89,-1.21,-0.80,80.00,199.00,144.00,159.00,807.00,1333.00,1051.00,1131.00,,,,,,,,,,,,0,1,0,,-2972,16076,272,-12,111,-184
16.311,16.27,-2.11,1.78,-6.68,2.24,-4.54,-2.85,-0.21,-2.79,0.44,103.00,195.00,196.00,145.00,793.00,1365.00,1012.00,1165.00,,,,,,,,,,,,0,1,0,,-2964,16192,36,8,401,-198
16.352,16.32,-2.15,-4.43,0.08,-9.87,1.52,-2.86,0.43,-1.29,0.19,80.00,208.00,176.00,199.00,766.00,1342.00,998.00,1105.00,,,,,,,,,,,,0,1,0,,-2984,16064,164,-26,252,-174
16.414,16.38,-2.12,-3.87,2.62,-7.30,3.61,-1.45,-0.40,0.09,-0.37,69.00,190.00,150.00,170.00,781.00,1298.00,1003.00,1062.00,,,,,,,,,,,,0,1,0,,-2940,15952,140,27,58,-190
16.495,16.43,-2.10,3.55,-2.61,3.26,-2.25,-1.77,-0.38,-0.73,0.18,80.00,163.00,170.00,131.00,785.00,1314.00,988.00,1081.00,,,,,,,,,,,,0,1,0,,-2876,15940,204,-8,137,-89
16.516,16.49,-2.12,-2.22,-0.20,-1.77,-1.82,-2.59,0.68,-0.73,0.31,78.00,192.00,182.00,158.00,752.00,1319.00,981.00,1077.00,,,,,,,,,,,,0,1,0,,-2988,16116,60,-138,213,-122
16.577,16.54,-2.09,-8.01,8.54,-6.87,4.10,-1.39,-0.23,0.22,-0.17,54.00,191.00,145.00,165.00,773.00,1289.00,990.00,1051.00,,,,,,,,,,,,0,1,0,,-2924,16064,40,-104,235,-119
16.681,16.60,-2.06,0.83,-1.46,-0.52,-0.20,-1.61,-0.39,-0.74,-0.02,79.00,176.00,163.00,144.00,783.00,1306.00,999.00,1087.00,,,,,,,,,,,,0,1,0,,-2976,16092,20,-42,129,-130
16.701,16.65,-2.07,-0.87,-1.80,0.59,-2.61,-2.28,-0.02,-1.20,0.40,83.00,190.00,182.00,147.00,777.00,1328.00,985.00,1095.00,,,,,,,,,,,,0,1,0,,-2992,16124,184,-61,50,-129
16.743,16.71,-2.07,-6.83,3.61,-7.66,2.43,-1.99,0.14,-0.65,0.06,69.00,208.00,161.00,178.00,766.00,1307.00,993.00,1081.00,,,,,,,,,,,,0,1,0,,-3000,16120,84,-89,53,-240
16.826,16.76,-2.02,-2.73,0.94,-3.23,1.05,-1.01,-0.99,-0.06,-0.85,74.00,190.00,160.00,155.00,800.00,1296.00,1032.00,1082.00,,,,,,,,,,,,0,1,0,,-2972,16132,-12,133,13,-235
16.908,16.82,-2.04,2.64,-6.79,1.88,-3.74,-2.56,0.21,-1.85,0.41,102.00,189.00,189.00,144.00,771.00,1334.00,996.00,1123.00,,,,,,,,,,,,0,1,0,,-3008,16048,80,111,91,-123
16.928,16.87,-2.07,-5.10,0.53,-5.94,0.95,-2.60,0.44,-1.37,0.34,79.00,211.00,169.00,173.00,762.00,1328.00,991.00,1104.00,,,,,,,,,,,,0,1,0,,-2884,15848,16,-33,257,-99
16.969,16.93,-2.05,-2.43,0.11,-5.21,2.79,-1.65,-0.45,-0.62,-0.46,77.00,192.00,151.00,160.00,786.00,1310.00,1021.00,1095.00,,,,,,,,,,,,0,1,0,,-2956,15960,-68,-221,298,-128
17.051,16.98,-2.05,1.11,-3.12,2.37,-2.06,-2.04,-0.39,-1.64,0.10,86.00,182.00,171.00,135.00,789.00,1328.00,1009.00,1123.00,,,,,,,,,,,,0,1,0,,-2864,16068,-272,-274,55,-202
17.072,17.04,-2.10,-3.68,0.05,-2.52,-0.95,-3.08,0.85,-2.08,0.79,79.00,202.00,176.00,159.00,752.00,1339.00,980.00,1122.00,,,,,,,,,,,,0,1,0,,-2916,15992,164,-125,-54,-125
17.133,17.09,-2.09,-7.09,5.09,-7.82,4.16,-1.87,-0.33,-1.37,-0.22,64.00,202.00,147.00,171.00,784.00,1317.00,1022.00,1121.00,,,,,,,,,,,,0,1,0,,-3000,16008,312,-76,103,-121
17.173,17.15,-2.10,0.36,-2.21,-0.32,-0.49,-2.21,-0.52,-1.79,-0.10,83.00,183.00,165.00,144.00,797.00,1342.00,1023.00,1136.00,,,,,,,,,,,,0,1,0,,-2932,16240,-168,-56,302,-303
17.234,17.20,-2.11,-1.98,-0.75,-1.68,-1.95,-2.47,-0.06,-1.37,0.34,80.00,193.00,183.00,158.00,781.00,1339.00,991.00,1104.00,,,,,,,,,,,,0,1,0,,-3012,15936,-64,-163,28,-260
17.296,17.26,-2.11,-4.21,2.73,-6.79,1.57,-2.03,0.06,-0.41,0.06,69.00,192.00,166.00,176.00,770.00,1312.00,989.00,1071.00,,,,,,,,,,,,0,1,0,,-2892,15928,176,-76,-103,-171
17.358,17.31,-2.06,0.42,-0.85,-2.82,0.68,-1.13,-0.81,-0.06,-0.43,77.00,176.00,162.00,154.00,794.00,1296.00,1009.00,1070.00,,,,,,,,,,,,0,1,0,,-2972,16040,160,-25,145,-129
17.399,17.37,-2.07,2.54,-5.64,2.51,-3.36,-2.26,0.09,-1.25,0.56,96.00,184.00,183.00,139.00,772.00,1323.00,977.00,1092.00,,,,,,,,,,,,0,1,0,,-2932,15928,124,13,312,-116
17.461,17.42,-2.07,-7.15,4.27,-7.19,2.15,-2.05,0.28,-0.30,0.25,67.00,207.00,162.00,176.00,761.00,1305.00,977.00,1061.00,,,,,,,,,,,,0,1,0,,-2976,16040,-16,56,280,-138
17.522,17.48,-2.02,-4.21,2.73,-4.28,2.85,-1.09,-0.59,0.26,-0.52,69.00,192.00,148.00,154.00,784.00,1286.00,1008.00,1059.00,,,,,,,,,,,,0,1,0,,-3052,15948,-36,42,174,-114
17.563,17.53,-1.99,1.05,-2.00,2.60,-2.67,-1.42,-0.48,-0.85,0.36,81.00,177.00,176.00,136.00,784.00,1299.00,981.00,1081.00,,,,,,,,,,,,0,1,0,,-2824,16128,76,7,108,-141
17.624,17.59,-2.00,-3.81,2.33,-2.25,-0.40,-2.26,0.60,-0.85,0.56,70.00,191.00,170.00,155.00,751.00,1305.00,970.00,1075.00,,,,,,,,,,,,0,1,0,,-3056,15996,20,58,105,-239
17.686,17.64,-1.97,-4.31,3.87,-7.10,6.05,-1.38,-0.16,-0.04,-0.22,65.00,187.00,131.00,158.00,770.00,1286.00,997.00,1063.00,,,,,,,,,,,,0,1,0,,-2848,15856,-84,41,65,-176
17.809,17.70,-1.97,1.79,-2.02,3.08,-1.41,-1.81,-0.30,-0.93,-0.01,80.00,172.00,163.00,129.00,782.00,1313.00,1002.00,1095.00,,,,,,,,,,,,0,1,0,,-3012,16060,-48,-34,80,-181
17.829,17.75,-1.99,-1.47,-0.92,-1.47,-1.30,-2.56,0.38,-1.63,0.69,80.00,190.00,176.00,154.00,764.00,1328.00,977.00,1105.00,,,,,,,,,,,,0,1,0,,-3000,15956,-48,-47,145,-146
17.85,17.81,-2.01,-4.42,2.28,-4.68,1.54,-2.21,-0.07,-1.08,-0.12,71.00,196.00,160.00,162.00,778.00,1326.00,1011.00,1105.00,,,,,,,,,,,,0,1,0,,-2996,15944,16,-79,194,-123
17.892,17.86,-1.98,-1.15,-0.79,-2.75,0.10,-1.56,-0.78,-1.30,-0.27,79.00,187.00,167.00,156.00,799.00,1317.00,1023.00,1119.00,,,,,,,,,,,,0,1,0,,-3044,16024,-96,-73,165,-161
17.953,17.92,-2.02,1.46,-6.21,0.28,-3.40,-2.74,0.03,-2.07,0.17,101.00,195.00,191.00,152.00,781.00,1350.00,1013.00,1140.00,,,,,,,,,,,,0,1,0,,-2932,16064,12,-70,101,-154
18.016,17.97,-2.04,-5.62,0.25,-7.24,1.39,-2.47,-0.03,-1.58,0.04,81.00,217.00,169.00,180.00,780.00,1338.00,1011.00,1122.00,,,,,,,,,,,,0,1,0,,-3016,16088,-20,42,129,-97
18.057,18.03,-2.03,-2.43,0.11,-5.39,2.13,-1.69,-0.92,-1.17,-0.83,77.00,192.00,157.00,164.00,807.00,1329.00,1052.00,1130.00,,,,,,,,,,,,0,1,0,,-3036,15976,120,-35,244,-144
18.221,18.08,-2.05,2.29,-6.85,1.38,-3.77,-2.43,-0.44,-1.98,0.07,103.00,192.00,191.00,147.00,797.00,1351.00,1017.00,1139.00,,,,,,,,,,,,0,1,0,,-2896,15876,48,-180,219,-236
18.242,18.14,-2.07,-2.05,-0.26,-3.41,-0.33,-2.47,0.26,-0.77,0.31,78.00,191.00,173.00,162.00,768.00,1328.00,982.00,1079.00,,,,,,,,,,,,0,1,0,,-2896,15948,-84,-171,60,-197
18.262,18.19,-2.04,-3.68,3.94,-5.66,3.69,-1.59,-0.30,0.12,-0.27,64.00,182.00,145.00,159.00,779.00,1302.00,997.00,1058.00,,,,,,,,,,,,0,1,0,,-3016,15932,160,-60,97,-125
18.283,18.25,-2.02,3.54,-2.14,2.76,-2.08,-1.62,-0.41,-0.49,0.14,78.00,161.00,170.00,133.00,784.00,1307.00,986.00,1072.00,,,,,,,,,,,,0,1,0,,-3000,16028,184,-136,189,-157
18.323,18.30,-2.05,-3.18,3.21,-2.04,-0.47,-2.59,0.68,-0.79,0.62,66.00,182.00,170.00,154.00,752.00,1319.00,966.00,1071.00,,,,,,,,,,,,0,1,0,,-2948,16064,100,-157,286,-99
18.384,18.36,-2.02,-6.86,6.83,-5.96,3.66,-1.35,-0.31,-0.32,0.44,58.00,191.00,146.00,161.00,776.00,1290.00,967.00,1056.00,,,,,,,,,,,,0,1,0,,-2804,16068,-36,-47,162,-185
18.446,18.41,-2.00,-1.81,-0.81,-1.24,-0.41,-1.62,-0.41,1.70,-0.73,80.00,192.00,167.00,149.00,784.00,1307.00,993.00,1006.00,,,,,,,,,,,,0,1,0,,-2952,16064,-236,-101,47,-213
18.528,18.47,-2.01,0.02,-2.32,0.32,-2.22,-2.37,0.10,-1.36,0.49,84.00,186.00,179.00,147.00,773.00,1328.00,983.00,1099.00,,,,,,,,,,,,0,1,0,,-3024,16024,56,-134,-49,-177
18.549,18.52,-2.02,-5.22,3.07,-7.43,1.68,-2.06,0.05,-0.62,-0.02,69.00,198.00,167.00,180.00,771.00,1314.00,997.00,1082.00,,,,,,,,,,,,0,1,0,,-2972,16044,72,-31,37,-214
18.611,18.58,-1.98,-0.24,-1.33,-4.06,2.04,-1.24,-0.91,-0.41,-0.57,80.00,183.00,154.00,156.00,800.00,1305.00,1023.00,1089.00,,,,,,,,,,,,0,1,0,,-2984,15908,12,-1,134,-187
18.653,18.63,-2.00,3.05,-6.19,1.04,-2.76,-2.33,-0.15,-1.83,0.18,98.00,183.00,182.00,145.00,783.00,1335.00,1008.00,1129.00,,,,,,,,,,,,0,1,0,,-3072,15872,-68,-77,153,-110
18.714,18.69,-2.03,-4.27,0.02,-7.76,1.13,-2.66,0.37,-1.33,0.18,80.00,207.00,173.00,185.00,766.00,1334.00,999.00,1107.00,,,,,,,,,,,,0,1,0,,-2948,16048,96,-140,251,-85
18.795,18.74,-2.02,-3.40,1.93,-6.02,3.06,-1.92,-0.31,-1.00,-0.20,71.00,190.00,151.00,164.00,784.00,1319.00,1014.00,1104.00,,,,,,,,,,,,0,1,0,,-2960,16040,32,-157,295,-133
18.817,18.80,-2.03,2.40,-3.77,0.75,-1.30,-2.18,-0.34,-1.71,0.14,87.00,176.00,169.00,141.00,789.00,1334.00,1008.00,1125.00,,,,,,,,,,,,0,1,0,,-2964,16092,-124,-85,72,-169
18.878,18.85,-2.07,-2.73,-0.03,-2.31,-1.02,-2.90,0.35,-1.99,0.42,78.00,195.00,176.00,158.00,770.00,1347.00,998.00,1129.00,,,,,,,,,,,,0,1,0,,-3024,15964,-64,-92,41,-199
18.94,18.91,-2.08,-6.35,4.56,-7.96,4.59,-2.17,-0.25,-1.12,-0.33,65.00,199.00,144.00,170.00,785.00,1330.00,1023.00,1113.00,,,,,,,,,,,,0,1,0,,-2936,15856,-4,-20,-5,-59
19.004,18.96,-2.09,0.93,-3.06,-0.07,-1.13,-2.27,-0.54,-1.67,-0.29,86.00,183.00,170.00,145.00,799.00,1346.00,1031.00,1136.00,,,,,,,,,,,,0,1,0,,-3008,16180,-20,-29,0,-216
19.044,19.02,-2.12,-1.84,-0.56,-2.04,-1.42,-2.62,-0.05,-0.92,-0.09,79.00,191.00,179.00,158.00,783.00,1347.00,1006.00,1097.00,,,,,,,,,,,,0,1,0,,-3024,16048,20,-142,112,-267
19.107,19.07,-2.12,-2.73,0.94,-6.52,1.59,-2.22,0.03,-0.39,-0.04,74.00,190.00,165.00,174.00,774.00,1323.00,994.00,1073.00,,,,,,,,,,,,0,1,0,,-3056,15868,284,-122,52,-122
19.148,19.13,-2.08,-0.78,0.29,-1.48,0.69,-1.39,-0.86,-0.18,-0.35,74.00,179.00,158.00,146.00,800.00,1311.00,1007.00,1073.00,,,,,,,,,,,,0,1,0,,-2932,16004,28,-37,185,-37
19.25,19.18,-2.10,2.94,-4.78,1.74,-3.79,-2.35,-0.12,-1.31,0.58,91.00,177.00,190.00,145.00,782.00,1335.00,977.00,1094.00,,,,,,,,,,,,0,1,0,,-2988,16092,-28,-40,287,-137
19.271,19.24,-2.11,-4.95,1.20,-6.12,0.58,-2.38,0.35,-0.42,0.17,76.00,206.00,173.00,176.00,763.00,1320.00,983.00,1068.00,,,,,,,,,,,,0,1,0,,-3000,16072,-208,3,168,-133
19.332,19.29,-2.07,-1.36,1.77,0.90,1.23,-1.34,-0.51,-1.93,0.20,69.00,176.00,147.00,131.00,784.00,1296.00,1009.00,1133.00,,,,,,,,,,,,0,1,0,,-3020,16064,-60,-53,173,-86
19.373,19.35,-2.06,2.20,-3.06,1.99,-1.49,-1.88,-0.25,-0.81,0.27,84.00,174.00,167.00,135.00,781.00,1315.00,985.00,1082.00,,,,,,,,,,,,0,1,0,,-2964,15988,24,-34,159,-148
19.435,19.40,-2.10,-2.34,0.57,-2.54,0.03,-2.79,0.75,-1.05,0.52,75.00,189.00,167.00,155.00,752.00,1327.00,976.00,1085.00,,,,,,,,,,,,0,1,0,,-2996,15984,-128,17,61,-153
19.538,19.46,-2.07,-5.44,5.73,-5.77,3.85,-1.57,-0.31,-0.17,-0.26,60.00,186.00,144.00,159.00,779.00,1301.00,1002.00,1070.00,,,,,,,,,,,,0,1,0,,-2940,16056,56,-42,55,-115
19.559,19.51,-2.06,1.60,-1.95,3.01,-2.17,-1.83,-0.69,-1.46,0.37,80.00,173.00,170.00,132.00,799.00,1328.00,991.00,1107.00,,,,,,,,,,,,0,1,0,,-3060,15960,56,0,234,-133
19.621,19.57,-2.10,-2.82,-0.47,-0.34,-1.99,-2.81,0.44,-1.74,0.66,80.00,198.00,179.00,150.00,765.00,1339.00,981.00,1111.00,,,,,,,,,,,,0,1,0,,-2836,15984,-16,-135,219,-129
19.641,19.62,-2.11,-5.22,3.07,-5.87,1.94,-2.33,-0.15,-1.19,-0.03,69.00,198.00,160.00,168.00,783.00,1335.00,1008.00,1107.00,,,,,,,,,,,,0,1,0,,-2988,16060,8,-99,226,-147
19.703,19.68,-2.09,-1.81,-0.81,-3.03,0.76,-1.72,-0.93,-1.05,-0.64,80.00,192.00,162.00,155.00,808.00,1331.00,1039.00,1119.00,,,,,,,,,,,,0,1,0,,-2880,16072,12,-92,164,-156
19.765,19.73,-2.14,0.31,-5.08,0.80,-3.67,-2.98,-0.07,-2.46,0.32,97.00,198.00,192.00,150.00,789.00,1367.00,1012.00,1153.00,,,,,,,,,,,,0,1,0,,-2904,16016,0,-28,43,-115
19.806,19.79,-2.17,-6.89,1.61,-4.48,-3.90,-2.75,-0.03,-1.64,-0.06,77.00,220.00,214.00,186.00,784.00,1353.00,1018.00,1128.00,,,,,,,,,,,,0,1,0,,-3036,15980,88,9,144,-193
19.869,19.84,-2.15,-3.39,0.19,-5.38,1.66,-1.92,-1.00,-1.28,-0.86,78.00,199.00,161.00,166.00,814.00,1344.00,1056.00,1136.00,,,,,,,,,,,,0,1,0,,-3004,16128,-164,-74,315,-211
19.929,19.90,-2.18,2.83,-6.67,2.05,-3.99,-2.69,-0.17,-1.93,0.20,101.00,187.00,191.00,144.00,789.00,1355.00,1009.00,1133.00,,,,,,,,,,,,0,1,0,,-2924,16040,-40,-188,187,-129
19.992,19.95,-2.20,-1.30,-0.98,-1.73,-0.68,-2.58,0.24,-0.96,0.45,80.00,189.00,171.00,153.00,770.00,1334.00,978.00,1083.00,,,,,,,,,,,,0,1,0,,-2960,15888,16,-238,26,-162
20.035,20.01,-2.17,-4.19,4.70,-5.98,3.92,-1.49,-0.46,0.74,-0.52,62.00,182.00,144.00,160.00,784.00,1302.00,999.00,1039.00,,,,,,,,,,,,0,1,0,,-3012,16028,132,-244,30,-140
20.095,20.06,-2.16,2.70,-1.13,3.26,-2.25,-1.99,-0.29,-0.68,0.07,75.00,162.00,170.00,131.00,784.00,1322.00,993.00,1082.00,,,,,,,,,,,,0,1,0,,-2924,16120,244,-117,160,-233
20.136,20.12,-2.18,-1.30,-0.98,-0.39,-1.66,-2.54,0.35,-1.25,0.77,80.00,189.00,176.00,149.00,765.00,1328.00,966.00,1086.00,,,,,,,,,,,,0,1,0,,-3080,16044,-164,-29,174,-171
20.198,20.17,-2.22,-6.16,6.60,-6.63,3.51,-2.99,1.70,0.03,-0.28,58.00,187.00,149.00,166.00,717.00,1304.00,999.00,1062.00,,,,,,,,,,,,0,1,0,,-2992,15864,4,-87,177,-132
20.26,20.23,-2.20,-0.14,-0.66,-1.84,0.47,-1.99,-0.43,-0.67,-0.15,77.00,179.00,161.00,149.00,790.00,1327.00,1005.00,1088.00,,,,,,,,,,,,0,1,0,,-3024,15988,76,-199,150,-144
20.362,20.28,-2.23,-1.81,-0.81,0.36,-2.02,-2.71,0.07,-1.55,0.28,80.00,192.00,177.00,146.00,779.00,1347.00,998.00,1114.00,,,,,,,,,,,,0,1,0,,-3012,16028,72,-113,159,-209
20.383,20.34,-2.23,-5.26,1.30,-0.96,-0.83,-2.30,-0.09,-0.82,-0.06,76.00,208.00,170.00,149.00,780.00,1331.00,1003.00,1092.00,,,,,,,,,,,,0,1,0,,-2988,15964,-32,-74,158,-152
20.444,20.39,-2.20,-1.71,-0.37,-4.37,1.55,-1.64,-0.94,-0.55,-0.84,78.00,189.00,159.00,160.00,807.00,1327.00,1041.00,1103.00,,,,,,,,,,,,0,1,0,,-3052,16024,80,-49,67,-120
20.485,20.45,-2.24,3.18,-6.79,3.53,-4.59,-2.92,0.02,-2.09,0.27,101.00,185.00,192.00,138.00,784.00,1360.00,1008.00,1138.00,,,,,,,,,,,,0,1,0,,-2952,15984,152,-13,184,-41
20.547,20.50,-2.28,-4.95,0.48,-6.13,0.80,-3.11,0.45,-1.67,0.28,79.00,210.00,171.00,175.00,769.00,1355.00,1000.00,1119.00,,,,,,,,,,,,0,1,0,,-2880,15980,44,-93,320,-120
20.61,20.56,-2.28,-3.25,1.12,-5.00,2.47,-2.18,-0.34,-1.26,-0.26,74.00,193.00,153.00,160.00,789.00,1334.00,1022.00,1117.00,,,,,,,,,,,,0,1,0,,-2964,16028,12,-171,169,-164
20.672,20.61,-2.28,2.58,-4.46,3.82,-3.08,-2.41,-0.47,-1.95,0.13,90.00,178.00,176.00,131.00,798.00,1351.00,1013.00,1136.00,,,,,,,,,,,,0,1,0,,-2944,16024,-88,-64,61,-36
20.733,20.67,-2.34,-3.64,-0.19,-2.22,-1.15,-3.34,0.40,-2.58,0.64,80.00,203.00,177.00,158.00,774.00,1369.00,997.00,1149.00,,,,,,,,,,,,0,1,0,,-2952,16140,200,-143,190,-110
20.754,20.72,-2.34,-8.15,5.74,-7.05,3.90,-2.28,-0.33,-0.92,-0.40,63.00,207.00,147.00,167.00,790.00,1339.00,1023.00,1106.00,,,,,,,,,,,,0,1,0,,-2840,15928,84,-166,129,-293
20.816,20.78,-2.33,2.17,-2.15,5.20,-7.33,-2.21,-0.52,-1.01,-0.09,80.00,170.00,216.00,139.00,797.00,1342.00,1008.00,1101.00,,,,,,,,,,,,0,1,0,,-2880,16132,4,-126,-27,-239
20.899,20.83,-2.34,-1.61,-1.10,-0.74,-1.65,-2.50,-0.09,-1.09,0.47,81.00,192.00,177.00,151.00,783.00,1342.00,979.00,1088.00,,,,,,,,,,,,0,1,0,,-3028,15968,352,-1,-11,-150
20.919,20.89,-2.34,-3.30,1.39,-5.46,0.68,-2.45,0.22,-0.47,0.08,73.00,192.00,170.00,171.00,769.00,1328.00,989.00,1073.00,,,,,,,,,,,,0,1,0,,-3024,16016,168,-26,162,-130
20.981,20.94,-2.30,-1.77,1.13,-2.61,0.61,-1.55,-0.97,-0.29,-0.53,72.00,182.00,162.00,153.00,807.00,1323.00,1019.00,1083.00,,,,,,,,,,,,0,1,0,,-2864,16056,-24,6,258,-152
21.084,21.00,-2.33,3.40,-6.49,2.05,-3.99,-2.74,0.01,-1.55,0.40,99.00,182.00,191.00,144.00,782.00,1351.00,991.00,1110.00,,,,,,,,,,,,0,1,0,,-2840,15976,100,75,89,-140
21.105,21.05,-2.33,-5.66,2.44,-6.22,0.72,-2.44,0.29,-0.72,0.24,72.00,205.00,172.00,176.00,766.00,1325.00,985.00,1079.00,,,,,,,,,,,,0,1,0,,-2980,16120,-20,-37,142,-156
21.145,21.11,-2.23,-2.10,2.02,-4.27,2.11,-0.28,-2.63,-0.05,-0.54,69.00,180.00,154.00,157.00,863.00,1316.00,1015.00,1073.00,,,,,,,,,,,,0,1,0,,-2876,15936,-128,-108,78,-172
21.208,21.16,-2.23,3.12,-5.04,3.33,-2.91,-2.16,-0.23,-1.26,0.18,92.00,177.00,176.00,133.00,784.00,1329.00,998.00,1104.00,,,,,,,,,,,,0,1,0,,-3012,16028,188,-64,64,-163
21.25,21.22,-2.24,-2.32,-0.63,-2.04,-0.47,-2.58,0.24,-1.57,0.64,80.00,195.00,170.00,154.00,770.00,1334.00,979.00,1104.00,,,,,,,,,,,,0,1,0,,-3016,16012,196,43,52,-192
21.311,21.27,-2.22,-9.37,7.36,-5.04,3.48,-1.86,-0.43,-0.53,-0.25,59.00,208.00,145.00,156.00,788.00,1320.00,1008.00,1085.00,,,,,,,,,,,,0,1,0,,-2992,16088,48,-41,107,-173
21.353,21.33,-2.23,2.57,-2.51,2.58,-1.24,-2.35,-0.38,-1.48,-0.01,81.00,169.00,163.00,131.00,793.00,1344.00,1012.00,1119.00,,,,,,,,,,,,0,1,0,,-3060,15896,192,-11,170,-121
21.457,21.38,-2.27,-2.91,-0.89,0.05,-1.81,-3.11,0.45,-2.08,0.62,82.00,201.00,176.00,147.00,769.00,1355.00,989.00,1127.00,,,,,,,,,,,,0,1,0,,-2900,16020,24,-173,248,-143
21.478,21.44,-2.29,-8.05,5.41,-6.81,3.32,-2.58,-0.09,-1.45,-0.14,64.00,208.00,151.00,168.00,784.00,1346.00,1019.00,1122.00,,,,,,,,,,,,0,1,0,,-3036,16076,-52,-210,123,-159
21.519,21.49,-2.29,-1.55,-1.57,-3.15,0.46,-2.32,-0.69,-1.65,-0.38,83.00,194.00,165.00,157.00,806.00,1354.00,1036.00,1138.00,,,,,,,,,,,,0,1,0,,-2976,16012,156,-67,63,-108
21.582,21.55,-2.35,-0.35,-4.66,1.54,-4.02,-3.46,0.04,-2.73,0.21,96.00,201.00,193.00,147.00,791.00,1389.00,1023.00,1169.00,,,,,,,,,,,,0,1,0,,-2968,15988,96,-79,81,-194
21.623,21.60,-2.38,-6.68,1.30,-7.05,1.11,-3.01,0.06,-1.81,-0.28,78.00,220.00,171.00,180.00,784.00,1364.00,1033.00,1142.00,,,,,,,,,,,,0,1,0,,-3032,16192,-68,-52,209,-131
21.685,21.66,-2.36,-1.99,0.45,-3.96,1.41,-1.85,-0.94,-0.44,-0.86,75.00,187.00,159.00,158.00,810.00,1338.00,1040.00,1099.00,,,,,,,,,,,,0,1,0,,-2860,16100,28,-111,218,-86
21.745,21.71,-2.35,2.18,-5.70,2.08,-3.51,-2.26,-0.20,-1.77,0.46,97.00,187.00,186.00,142.00,784.00,1333.00,992.00,1118.00,,,,,,,,,,,,0,1,0,,-3024,15872,128,-144,80,-139
21.826,21.77,-2.37,-3.88,0.36,-3.00,-0.47,-2.76,0.40,-0.99,0.50,78.00,202.00,173.00,160.00,766.00,1338.00,976.00,1083.00,,,,,,,,,,,,0,1,0,,-2992,16016,-4,11,114,-81
21.847,21.82,-2.34,-1.73,1.90,-3.85,1.97,-1.72,-0.26,-0.04,-0.18,69.00,178.00,154.00,155.00,779.00,1307.00,995.00,1062.00,,,,,,,,,,,,0,1,0,,-2944,15928,196,-112,252,-86
21.908,21.88,-2.33,1.61,-2.19,2.57,-1.80,-2.09,-0.28,-0.97,0.19,81.00,174.00,168.00,133.00,785.00,1327.00,992.00,1091.00,,,,,,,,,,,,0,1,0,,-2824,16016,52,6,328,-124
21.97,21.93,-2.35,-1.82,0.39,-0.67,-1.25,-2.85,0.53,-1.37,0.68,75.00,186.00,173.00,149.00,762.00,1338.00,973.00,1094.00,,,,,,,,,,,,0,1,0,,-2868,16008,-60,-87,186,-62
22.013,21.99,-2.33,-5.18,5.95,-5.98,3.92,-1.97,-0.18,-0.09,-0.27,59.00,183.00,144.00,160.00,779.00,1317.00,1001.00,1067.00,,,,,,,,,,,,0,1,0,,-2952,16084,-132,-118,76,-150
22.074,22.04,-2.31,1.59,-1.72,0.44,-0.30,-1.94,-0.47,-1.43,0.08,79.00,172.00,161.00,139.00,791.00,1326.00,1006.00,1114.00,,,,,,,,,,,,0,1,0,,-2924,16076,-136,-48,58,-185
22.136,22.10,-2.33,-1.44,-1.16,1.18,-2.71,-2.66,0.06,-1.75,0.36,81.00,191.00,181.00,144.00,779.00,1345.00,997.00,1120.00,,,,,,,,,,,,0,1,0,,-3020,16068,32,-35,88,-136
22.177,22.15,-2.33,-5.26,1.30,-6.70,1.43,-2.28,-0.17,-1.16,-0.04,76.00,208.00,167.00,176.00,783.00,1333.00,1008.00,1106.00,,,,,,,,,,,,0,1,0,,-2884,16068,112,-26,189,-108
22.26,22.21,-2.31,-0.85,-2.03,-2.99,-0.26,-1.87,-0.77,-1.88,-0.43,84.00,191.00,171.00,159.00,803.00,1333.00,1043.00,1150.00,,,,,,,,,,,,0,1,0,,-2776,15952,56,-71,243,-128
22.302,22.26,-2.34,0.14,-5.95,2.36,-4.20,-3.06,0.07,-2.56,0.41,102.00,204.00,192.00,143.00,784.00,1366.00,1009.00,1155.00,,,,,,,,,,,,0,1,0,,-2860,16044,-176,-89,174,-155
22.344,22.32,-2.38,-6.29,1.41,-6.31,0.86,-2.99,0.24,-1.86,0.19,77.00,216.00,171.00,176.00,776.00,1356.00,1008.00,1130.00,,,,,,,,,,,,0,1,0,,-2952,15964,-76,-131,51,-154
22.406,22.37,-2.37,-2.39,-0.14,-6.05,3.57,-2.25,-0.57,-1.24,-0.59,78.00,193.00,147.00,162.00,800.00,1346.00,1040.00,1126.00,,,,,,,,,,,,0,1,0,,-2952,16008,220,-131,-15,-167
22.448,22.43,-2.39,-1.50,-2.03,0.86,-1.98,-2.71,-0.28,-1.45,-0.22,85.00,196.00,175.00,143.00,794.00,1360.00,1023.00,1124.00,,,,,,,,,,,,0,1,0,,-2872,16004,188,-81,94,-132
22.55,22.48,-2.44,-4.59,0.13,-2.73,-0.88,-3.41,0.45,-2.43,0.52,80.00,209.00,176.00,160.00,773.00,1371.00,1001.00,1146.00,,,,,,,,,,,,0,1,0,,-2872,16144,-68,-95,254,-182
22.57,22.54,-2.42,-5.09,4.42,-5.82,2.99,-2.02,-0.46,-0.44,-0.48,64.00,190.00,151.00,163.00,792.00,1330.00,1019.00,1088.00,,,,,,,,,,,,0,1,0,,-2948,16024,-96,-67,103,-266
22.632,22.59,-2.40,1.80,-2.25,1.99,-1.49,-1.99,-0.82,-1.05,0.03,81.00,173.00,167.00,135.00,807.00,1341.00,1002.00,1099.00,,,,,,,,,,,,0,1,0,,-3060,15968,208,-21,-114,-224
22.693,22.65,-2.46,-1.84,-0.56,0.50,-1.96,-3.72,0.72,-1.24,0.66,79.00,191.00,176.00,145.00,766.00,1378.00,972.00,1089.00,,,,,,,,,,,,0,1,0,,-2908,16008,120,-1,1,-206
22.755,22.70,-2.45,-3.13,1.33,-4.07,1.10,-2.26,-0.05,-0.46,0.02,73.00,191.00,162.00,160.00,778.00,1328.00,992.00,1074.00,,,,,,,,,,,,0,1,0,,-3016,15984,108,20,178,-210
22.796,22.76,-2.41,0.30,-1.52,-0.83,-0.77,-1.59,-0.80,-0.48,-0.29,80.00,180.00,169.00,148.00,800.00,1319.00,1009.00,1084.00,,,,,,,,,,,,0,1,0,,-3008,16160,-180,66,246,-117
22.858,22.81,-2.43,2.34,-5.95,1.62,-3.36,-2.73,0.10,-1.58,0.41,98.00,187.00,186.00,144.00,778.00,1347.00,991.00,1111.00,,,,,,,,,,,,0,1,0,,-2872,16008,-68,-9,222,-186
22.919,22.87,-2.43,-5.85,1.99,-6.22,0.94,-2.45,0.22,-0.99,0.25,74.00,209.00,170.00,175.00,769.00,1328.00,989.00,1090.00,,,,,,,,,,,,0,1,0,,-2892,16124,-52,-117,81,-217
22.98,22.92,-2.39,-1.64,0.33,-2.69,0.99,-1.61,-0.63,-0.28,-0.79,75.00,185.00,159.00,152.00,793.00,1314.00,1033.00,1090.00,,,,,,,,,,,,0,1,0,,-2936,16040,8,39,15,-174
23.042,22.98,-2.39,3.22,-6.43,2.42,-3.23,-2.57,-0.02,-1.74,0.32,99.00,183.00,182.00,139.00,781.00,1343.00,999.00,1121.00,,,,,,,,,,,,0,1,0,,-2952,16032,24,57,24,-130
23.083,23.03,-2.41,-2.77,0.22,-0.71,-1.45,-2.76,0.40,-1.31,0.25,77.00,194.00,175.00,150.00,766.00,1338.00,995.00,1104.00,,,,,,,,,,,,0,1,0,,-2964,16092,-124,38,214,-167
23.144,23.09,-2.38,-7.41,5.20,-5.54,3.27,-1.81,-0.46,-0.63,-0.27,64.00,204.00,148.00,160.00,789.00,1319.00,1011.00,1090.00,,,,,,,,,,,,0,1,0,,-2900,15904,-52,-74,236,-208
23.165,23.14,-2.38,-1.17,-2.14,2.08,-2.18,-2.40,-0.38,-1.67,0.07,85.00,194.00,173.00,137.00,794.00,1347.00,1011.00,1125.00,,,,,,,,,,,,0,1,0,,-2992,16044,-128,-118,166,-134
23.227,23.20,-2.42,-2.00,-1.86,-1.69,-1.23,-3.20,0.52,-2.64,0.79,85.00,199.00,176.00,155.00,767.00,1357.00,990.00,1147.00,,,,,,,,,,,,0,1,0,,-2860,16052,-168,-111,156,-138
23.329,23.25,-2.42,-6.10,4.19,-4.99,0.20,-2.36,-0.16,-1.12,-0.33,66.00,199.00,173.00,170.00,784.00,1337.00,1023.00,1113.00,,,,,,,,,,,,0,1,0,,-2960,15996,-60,-102,167,-100
23.349,23.31,-2.42,-2.29,-0.88,-3.76,0.89,-2.49,-0.59,-1.84,-0.39,81.00,196.00,163.00,159.00,804.00,1359.00,1040.00,1147.00,,,,,,,,,,,,0,1,0,,-2960,15880,124,-130,124,-189
23.41,23.36,-2.48,-2.19,-3.06,-0.40,-2.88,-3.45,0.13,-2.75,0.24,91.00,207.00,188.00,154.00,787.00,1385.00,1022.00,1169.00,,,,,,,,,,,,0,1,0,,-2936,16128,-64,-134,123,-172
23.451,23.42,-2.49,-5.62,0.94,-4.22,-0.27,-2.72,-0.02,-1.11,-0.15,78.00,213.00,175.00,167.00,783.00,1351.00,1013.00,1107.00,,,,,,,,,,,,0,1,0,,-3068,16104,-52,-192,3,-170
23.492,23.47,-2.45,-1.15,-0.79,-3.64,1.66,-1.75,-0.95,-0.41,-0.57,79.00,187.00,156.00,155.00,809.00,1333.00,1023.00,1089.00,,,,,,,,,,,,0,1,0,,-2928,15944,192,-52,-55,-154
23.554,23.53,-2.47,3.24,-6.06,1.26,-3.34,-2.85,0.00,-1.66,0.33,97.00,181.00,187.00,146.00,784.00,1357.00,997.00,1117.00,,,,,,,,,,,,0,1,0,,-3064,16036,128,-100,66,-190
23.657,23.58,-2.46,-5.26,1.30,-6.22,0.72,-2.33,0.04,-0.93,0.27,76.00,208.00,172.00,176.00,775.00,1328.00,987.00,1087.00,,,,,,,,,,,,0,1,0,,-3060,15984,68,-164,195,-163
23.678,23.64,-2.44,-2.94,2.04,-5.12,3.13,-1.99,-0.29,-0.65,-0.18,70.00,186.00,148.00,158.00,784.00,1322.00,1006.00,1088.00,,,,,,,,,,,,0,1,0,,-2916,15948,-24,-72,139,-201
23.72,23.69,-2.43,1.24,-2.06,2.61,-2.14,-2.18,-0.20,-1.21,0.27,81.00,176.00,171.00,134.00,783.00,1329.00,992.00,1099.00,,,,,,,,,,,,0,1,0,,-2908,16036,-8,-34,144,-134
23.782,23.75,-2.45,-2.43,0.11,-2.52,-0.95,-2.93,0.67,-1.56,0.69,77.00,192.00,176.00,159.00,757.00,1337.00,976.00,1102.00,,,,,,,,,,,,0,1,0,,-2992,15972,-72,-145,121,-135
23.845,23.80,-2.43,-7.14,7.25,-7.05,3.90,-1.92,-0.31,-1.02,-0.07,57.00,191.00,147.00,167.00,784.00,1319.00,1007.00,1101.00,,,,,,,,,,,,0,1,0,,-2996,16096,72,-133,117,-148
23.927,23.86,-2.41,3.16,-2.93,1.74,-1.41,-2.14,-0.38,-1.51,0.08,82.00,167.00,167.00,136.00,790.00,1333.00,1008.00,1118.00,,,,,,,,,,,,0,1,0,,-2988,16044,-20,5,118,-143
23.947,23.91,-2.43,-2.98,-0.41,-0.83,-1.52,-2.87,0.01,-1.89,0.20,80.00,199.00,176.00,151.00,784.00,1358.00,1008.00,1131.00,,,,,,,,,,,,0,1,0,,-2996,15888,-108,-39,115,-153
24.03,23.97,-2.45,-3.77,0.56,-6.80,1.80,-2.82,0.16,-1.55,-0.09,77.00,200.00,164.00,175.00,777.00,1350.00,1018.00,1125.00,,,,,,,,,,,,0,1,0,,-3036,16036,92,-61,179,-98
24.051,24.02,-2.42,-2.06,-1.40,-8.66,8.35,-1.84,-1.23,-1.38,-0.65,83.00,197.00,119.00,158.00,823.00,1348.00,1046.00,1134.00,,,,,,,,,,,,0,1,0,,-2840,16020,60,-177,183,-142
24.113,24.08,-2.47,0.96,-6.04,1.46,-3.89,-3.36,0.06,-2.75,0.31,101.00,198.00,192.00,147.00,789.00,1383.00,1018.00,1167.00,,,,,,,,,,,,0,1,0,,-2944,15900,-32,-130,102,-181
24.155,24.13,-2.50,-7.00,0.94,-8.22,1.61,-3.09,0.20,-2.11,0.00,80.00,225.00,170.00,186.00,779.00,1363.00,1023.00,1147.00,,,,,,,,,,,,0,1,0,,-2912,16068,144,-76,21,-138
24.217,24.19,-2.48,-3.19,-0.11,-6.22,3.13,-2.15,-0.97,-1.45,-0.84,79.00,199.00,151.00,165.00,816.00,1355.00,1058.00,1143.00,,,,,,,,,,,,0,1,0,,-2988,16012,252,-94,151,-173
24.281,24.24,-2.51,-0.23,-3.72,-1.25,0.62,-2.99,-0.28,-2.15,-0.20,91.00,195.00,158.00,145.00,798.00,1375.00,1035.00,1155.00,,,,,,,,,,,,0,1,0,,-2964,16204,12,-97,169,-360
24.322,24.30,-2.54,-3.23,0.14,-2.73,-0.88,-3.23,0.49,-1.55,0.44,78.00,198.00,176.00,160.00,769.00,1360.00,989.00,1109.00,,,,,,,,,,,,0,1,0,,-2924,15948,80,-63,-7,-242
24.404,24.35,-2.52,-5.51,4.85,-7.18,4.33,-2.05,-0.17,-2.01,0.41,63.00,191.00,144.00,166.00,780.00,1321.00,999.00,1130.00,,,,,,,,,,,,0,1,0,,-2968,15932,340,-28,-39,-139
24.425,24.41,-2.51,1.60,-1.95,0.14,-0.65,-2.35,-0.28,-1.15,0.21,80.00,173.00,165.00,142.00,789.00,1341.00,994.00,1098.00,,,,,,,,,,,,0,1,0,,-2920,16036,256,65,195,-196
24.488,24.46,-2.53,-1.47,-0.92,-0.83,-1.52,-2.84,0.40,-1.32,0.78,80.00,190.00,176.00,151.00,767.00,1342.00,967.00,1089.00,,,,,,,,,,,,0,1,0,,-3032,16012,124,31,251,-142
24.569,24.52,-2.52,-6.21,5.68,-6.05,3.57,-2.32,-0.06,-0.84,0.04,61.00,192.00,147.00,162.00,779.00,1331.00,998.00,1090.00,,,,,,,,,,,,0,1,0,,-3140,15952,28,45,184,-152
24.612,24.57,-2.49,-2.47,0.36,-2.92,0.83,-2.02,-0.56,-0.68,-0.24,76.00,191.00,161.00,154.00,796.00,1333.00,1010.00,1091.00,,,,,,,,,,,,0,1,0,,-2980,15976,96,-36,145,-136
24.673,24.63,-2.51,1.32,-4.84,0.98,-3.44,-2.89,0.06,-1.82,0.49,94.00,189.00,189.00,148.00,782.00,1357.00,991.00,1119.00,,,,,,,,,,,,0,1,0,,-2916,16116,136,-33,124,-210
24.757,24.68,-2.52,-4.84,0.68,-6.41,1.00,-2.59,0.17,-1.09,0.10,78.00,208.00,170.00,176.00,773.00,1337.00,999.00,1099.00,,,,,,,,,,,,0,1,0,,-3020,16060,-32,8,18,-184
24.777,24.74,-2.48,-1.30,-0.98,-4.79,2.16,-1.73,-0.86,-0.71,-0.47,80.00,189.00,155.00,160.00,805.00,1329.00,1023.00,1099.00,,,,,,,,,,,,0,1,0,,-2936,16084,24,68,27,-197
24.818,24.79,-2.50,1.48,-5.47,1.53,-3.23,-2.96,0.09,-2.22,0.50,97.00,191.00,185.00,144.00,782.00,1360.00,998.00,1137.00,,,,,,,,,,,,0,1,0,,-2948,16052,12,1,125,-190
24.9,24.85,-2.53,-4.74,0.88,-5.66,0.11,-3.10,0.35,-1.75,0.27,77.00,206.00,176.00,175.00,773.00,1358.00,1002.00,1123.00,,,,,,,,,,,,0,1,0,,-3028,15936,-152,-5,201,-128
24.961,24.90,-2.51,3.51,-1.16,-5.41,2.86,-2.15,-0.28,-1.07,-0.31,74.00,157.00,151.00,161.00,786.00,1330.00,1021.00,1110.00,,,,,,,,,,,,0,1,0,,-3132,16060,24,-113,212,-108
24.982,24.96,-2.53,0.94,-3.28,1.65,-1.82,-2.78,-0.09,-1.98,0.14,87.00,184.00,171.00,138.00,787.00,1357.00,1013.00,1137.00,,,,,,,,,,,,0,1,0,,-2908,16040,-28,-135,194,-141
25.043,25.01,-2.57,-3.91,-0.33,-2.93,-0.81,-3.43,0.53,-2.24,0.49,81.00,206.00,176.00,161.00,770.00,1369.00,999.00,1138.00,,,,,,,,,,,,0,1,0,,-2948,16128,4,-19,165,-39
25.146,25.07,-2.58,-7.31,4.32,-7.93,3.46,-2.75,-0.05,-1.29,-0.45,67.00,208.00,153.00,175.00,785.00,1354.00,1033.00,1124.00,,,,,,,,,,,,0,1,0,,-2996,15916,-4,-12,154,-123
25.166,25.12,-2.58,0.04,-2.55,-1.11,-1.10,-2.69,-0.59,-1.86,-0.37,85.00,187.00,173.00,151.00,807.00,1370.00,1039.00,1147.00,,,,,,,,,,,,0,1,0,,-2824,16096,-60,-126,197,-226
25.206,25.18,-2.62,-0.41,-3.45,-1.92,-1.36,-3.21,0.05,-1.73,0.21,90.00,195.00,178.00,157.00,787.00,1375.00,1005.00,1124.00,,,,,,,,,,,,0,1,0,,-3016,15988,-56,-182,121,-201
25.267,25.23,-2.62,-5.22,1.78,-6.31,0.65,-2.79,0.22,-0.86,0.02,74.00,205.00,173.00,177.00,774.00,1346.00,999.00,1091.00,,,,,,,,,,,,0,1,0,,-2940,16016,40,-89,22,-158
25.311,25.29,-2.59,-0.80,-0.91,-3.24,0.83,-1.89,-0.74,-0.43,-0.51,79.00,185.00,162.00,156.00,802.00,1333.00,1020.00,1088.00,,,,,,,,,,,,0,1,0,,-3012,16068,236,-119,58,-99
25.371,25.34,-2.60,3.40,-6.49,1.34,-3.46,-2.89,0.02,-1.94,0.61,99.00,182.00,188.00,146.00,784.00,1359.00,987.00,1121.00,,,,,,,,,,,,0,1,0,,-3036,16108,152,-118,216,-154
25.431,25.40,-2.62,-6.07,2.32,-6.31,0.86,-2.89,0.42,-0.96,0.20,73.00,209.00,171.00,176.00,767.00,1344.00,991.00,1090.00,,,,,,,,,,,,0,1,0,,-2952,15932,28,13,193,-166
25.493,25.45,-2.57,-5.27,3.91,-4.27,2.11,-1.75,-0.53,-0.59,-0.23,66.00,194.00,154.00,157.00,791.00,1318.00,1008.00,1087.00,,,,,,,,,,,,0,1,0,,-2824,16056,12,-23,118,-102
25.556,25.51,-2.57,0.92,-2.84,0.56,-1.01,-2.41,-0.15,-1.33,0.22,85.00,182.00,167.00,141.00,784.00,1339.00,997.00,1106.00,,,,,,,,,,,,0,1,0,,-2992,16060,64,-73,108,-78
25.617,25.56,-2.59,-2.35,-0.39,-2.52,-0.95,-3.05,0.52,-1.50,0.54,79.00,194.00,176.00,159.00,765.00,1349.00,983.00,1104.00,,,,,,,,,,,,0,1,0,,-2964,16056,56,-135,164,-164
25.678,25.62,-2.56,-8.05,5.41,-6.96,4.00,-2.07,-0.31,-0.62,-0.26,64.00,208.00,146.00,166.00,786.00,1327.00,1010.00,1089.00,,,,,,,,,,,,0,1,0,,-2996,15928,-8,-63,106,-129
25.718,25.67,-2.56,0.12,-1.46,-0.06,-0.36,-2.41,-0.47,-1.55,-0.00,80.00,181.00,163.00,142.00,798.00,1351.00,1013.00,1122.00,,,,,,,,,,,,0,1,0,,-2964,15984,28,-112,25,-122
25.759,25.73,-2.59,-2.91,-0.89,-2.73,-0.88,-3.24,0.44,-2.17,0.56,82.00,201.00,176.00,160.00,771.00,1362.00,994.00,1133.00,,,,,,,,,,,,0,1,0,,-2988,16080,-12,-134,128,-139
25.882,25.78,-2.61,-4.79,1.14,-11.37,3.00,-2.92,0.02,-1.67,-0.09,76.00,205.00,167.00,203.00,784.00,1360.00,1020.00,1130.00,,,,,,,,,,,,0,1,0,,-2952,16092,-24,-187,169,-139
25.903,25.84,-2.59,-2.03,-1.63,-3.29,-0.05,-2.20,-0.96,-1.51,-0.59,84.00,198.00,170.00,160.00,816.00,1357.00,1045.00,1138.00,,,,,,,,,,,,0,1,0,,-2912,16088,80,-166,101,-181
25.944,25.89,-2.63,0.45,-6.76,0.10,-3.63,-3.51,0.06,-2.91,0.35,106.00,206.00,194.00,154.00,791.00,1391.00,1019.00,1173.00,,,,,,,,,,,,0,1,0,,-2964,16060,-24,-122,71,-80
26.005,25.95,-2.66,-7.52,0.89,-8.27,1.09,-3.25,0.14,-2.19,0.03,81.00,230.00,175.00,189.00,784.00,1374.00,1023.00,1150.00,,,,,,,,,,,,0,1,0,,-2964,16196,92,-123,227,-118
26.046,26.00,-2.63,-1.12,-1.04,-4.17,1.03,-2.04,-0.94,-2.74,-0.28,80.00,188.00,163.00,161.00,813.00,1348.00,1051.00,1185.00,,,,,,,,,,,,0,1,0,,-2980,15992,172,-83,142,-244
26.108,26.06,-2.64,2.01,-5.46,1.62,-3.36,-2.79,-0.14,-1.44,0.27,96.00,187.00,186.00,144.00,789.00,1359.00,996.00,1109.00,,,,,,,,,,,,0,1,0,,-2992,15924,140,-47,-46,-195
26.148,26.11,-2.65,-2.86,0.74,-3.40,-0.12,-2.84,0.36,-1.07,0.41,75.00,192.00,171.00,161.00,769.00,1344.00,982.00,1089.00,,,,,,,,,,,,0,1,0,,-3064,15960,228,120,91,-129
26.231,26.17,-2.61,-4.31,3.87,-6.65,3.77,-1.79,-0.35,0.04,-0.34,65.00,187.00,147.00,165.00,784.00,1314.00,1002.00,1063.00,,,,,,,,,,,,0,1,0,,-2952,16024,184,21,241,-167
26.253,26.22,-2.59,1.61,-2.19,2.18,-1.78,-2.23,-0.30,-0.97,0.19,81.00,174.00,169.00,135.00,788.00,1335.00,992.00,1091.00,,,,,,,,,,,,0,1,0,,-2892,16164,-84,-6,218,-129
26.315,26.28,-2.61,-3.32,0.65,-1.66,-1.03,-3.01,0.61,-1.28,0.61,76.00,196.00,174.00,154.00,761.00,1344.00,975.00,1092.00,,,,,,,,,,,,0,1,0,,-2896,15976,-108,-22,100,-108
26.377,26.33,-2.60,-6.97,7.19,-7.77,3.65,-2.32,0.08,-0.33,-0.14,57.00,190.00,151.00,173.00,773.00,1326.00,998.00,1073.00,,,,,,,,,,,,0,1,0,,-3024,15988,44,-66,142,-137
26.418,26.39,-2.57,-0.95,-1.10,-1.46,-0.33,-2.10,-0.46,-0.98,-0.10,80.00,187.00,167.00,150.00,793.00,1334.00,1008.00,1100.00,,,,,,,,,,,,0,1,0,,-2928,16140,0,-79,71,-233
26.479,26.44,-2.60,-0.83,-2.26,-1.36,-2.65,-3.15,0.32,-1.95,0.43,85.00,192.00,189.00,159.00,775.00,1362.00,997.00,1127.00,,,,,,,,,,,,0,1,0,,-3128,16068,-28,-7,15,-205
26.521,26.50,-2.60,-5.92,2.27,-7.15,1.47,-2.63,0.07,-1.10,-0.06,73.00,208.00,168.00,179.00,778.00,1343.00,1008.00,1104.00,,,,,,,,,,,,0,1,0,,-3072,15944,84,97,57,-141
26.602,26.55,-2.57,-2.39,-0.14,-2.82,-0.74,-2.01,-0.81,-0.84,-0.74,78.00,193.00,175.00,160.00,807.00,1342.00,1041.00,1113.00,,,,,,,,,,,,0,1,0,,-3052,15936,16,22,165,-148
26.664,26.61,-2.60,1.28,-6.51,0.32,-3.70,-3.10,0.01,-2.35,0.36,103.00,198.00,194.00,153.00,787.00,1370.00,1008.00,1147.00,,,,,,,,,,,,0,1,0,,-3036,15896,-60,-101,255,-135
26.705,26.66,-2.62,-6.12,0.64,-4.31,-0.13,-3.06,0.24,-1.60,0.11,80.00,219.00,174.00,167.00,777.00,1360.00,1008.00,1121.00,,,,,,,,,,,,0,1,0,,-2928,16016,4,-244,289,-186
26.745,26.72,-2.62,-5.16,1.51,-7.34,3.02,-2.51,-0.16,-1.36,-0.25,75.00,206.00,155.00,173.00,786.00,1345.00,1023.00,1121.00,,,,,,,,,,,,0,1,0,,-2944,15980,48,-141,287,-126
26.807,26.77,-2.62,-0.35,-1.98,0.26,-1.35,-2.75,-0.36,-2.16,0.11,83.00,187.00,171.00,144.00,798.00,1365.00,1018.00,1146.00,,,,,,,,,,,,0,1,0,,-2896,15948,-160,39,181,-55
26.868,26.83,-2.68,-4.12,-0.03,-3.73,-0.54,-3.72,0.53,-2.57,0.53,80.00,206.00,176.00,165.00,774.00,1385.00,1003.00,1152.00,,,,,,,,,,,,0,1,0,,-2864,16036,-48,-8,185,7
26.909,26.88,-2.67,-7.09,5.09,-8.12,3.52,-2.47,-0.38,-0.73,-0.60,64.00,202.00,153.00,176.00,795.00,1351.00,1031.00,1104.00,,,,,,,,,,,,0,1,0,,-2756,15952,80,-150,123,-156
26.972,26.94,-2.65,1.81,-2.48,0.35,-1.49,-2.39,-0.48,-1.13,-0.02,82.00,174.00,172.00,144.00,798.00,1350.00,1006.00,1104.00,,,,,,,,,,,,0,1,0,,-2864,16036,-28,-146,-5,-325
27.035,26.99,-2.66,7.32,-14.86,-2.01,-1.22,-2.73,-0.09,-1.37,0.34,145.00,195.00,177.00,157.00,786.00,1354.00,991.00,1104.00,,,,,,,,,,,,0,1,0,,-3052,15976,100,-14,-40,-204
27.118,27.05,-2.66,-5.05,3.02,-5.56,0.61,-2.67,0.18,-0.68,0.07,69.00,197.00,171.00,172.00,774.00,1341.00,993.00,1082.00,,,,,,,,,,,,0,1,0,,-3092,16020,0,-83,80,-168
27.139,27.10,-2.61,-0.24,-1.33,-3.15,0.46,-1.77,-0.80,-0.57,-0.37,80.00,183.00,165.00,157.00,803.00,1329.00,1015.00,1090.00,,,,,,,,,,,,0,1,0,,-2976,16004,76,-140,259,-57
27.181,27.16,-2.57,1.15,-4.78,1.29,-3.64,-1.81,-1.58,-1.96,0.58,94.00,190.00,190.00,147.00,838.00,1359.00,989.00,1123.00,,,,,,,,,,,,0,1,0,,-2912,15992,-160,0,224,-151
27.242,27.21,-2.58,-5.32,1.57,-6.69,1.21,-2.64,0.34,-1.10,0.42,75.00,207.00,169.00,177.00,767.00,1334.00,982.00,1090.00,,,,,,,,,,,,0,1,0,,-2920,15916,-156,-62,182,-91
27.366,27.27,-2.55,-3.05,2.61,-6.31,3.03,-1.94,-0.45,-0.40,-0.55,68.00,184.00,152.00,166.00,790.00,1325.00,1022.00,1088.00,,,,,,,,,,,,0,1,0,,-2864,16056,-16,-155,96,-130
27.386,27.32,-2.54,0.20,-2.38,0.99,-1.38,-2.40,-0.22,-1.39,0.20,84.00,185.00,169.00,140.00,787.00,1341.00,999.00,1109.00,,,,,,,,,,,,0,1,0,,-2852,15984,-92,-172,75,-192
27.426,27.38,-2.56,-3.44,0.45,-3.00,-0.47,-3.00,0.51,-1.50,0.54,77.00,198.00,173.00,160.00,765.00,1347.00,983.00,1104.00,,,,,,,,,,,,0,1,0,,-2964,16000,92,-85,51,-66
27.468,27.43,-2.54,-5.29,3.37,-8.88,4.64,-2.05,-0.32,-0.63,-0.35,68.00,197.00,146.00,176.00,786.00,1326.00,1015.00,1092.00,,,,,,,,,,,,0,1,0,,-2908,16080,-40,-139,178,-84
27.55,27.49,-2.53,-0.08,-3.36,1.22,-1.46,-2.43,-0.42,-1.82,-0.00,89.00,192.00,169.00,139.00,796.00,1350.00,1018.00,1134.00,,,,,,,,,,,,0,1,0,,-2868,16060,-60,-117,239,-167
27.591,27.54,-2.57,-3.48,-1.14,-2.66,-1.21,-3.38,0.51,-2.52,0.84,84.00,207.00,179.00,161.00,770.00,1367.00,985.00,1140.00,,,,,,,,,,,,0,1,0,,-2844,15916,112,-180,137,-135
27.652,27.60,-2.59,-6.03,3.35,-7.60,2.75,-2.91,0.09,-0.82,-1.38,69.00,203.00,158.00,176.00,781.00,1357.00,1077.00,1131.00,,,,,,,,,,,,0,1,0,,-2892,16112,68,-126,41,-152
27.693,27.65,-2.58,-1.48,-2.25,-3.80,0.02,-2.41,-0.73,-1.74,-0.48,86.00,197.00,171.00,163.00,809.00,1360.00,1043.00,1145.00,,,,,,,,,,,,0,1,0,,-2868,16168,280,-133,63,-139
27.756,27.71,-2.62,-0.49,-5.74,-1.55,-3.07,-3.40,-0.05,-2.87,0.30,102.00,208.00,194.00,162.00,794.00,1389.00,1021.00,1173.00,,,,,,,,,,,,0,1,0,,-2868,16176,12,-140,282,-147
27.797,27.76,-2.64,-5.82,0.54,-6.31,0.86,-3.04,0.21,-1.39,0.04,80.00,217.00,171.00,176.00,778.00,1360.00,1008.00,1114.00,,,,,,,,,,,,0,1,0,,-2944,15940,116,-47,78,-213
27.839,27.82,-2.60,-1.72,0.86,-4.98,1.76,-1.82,-0.88,-0.38,-0.58,73.00,183.00,159.00,163.00,807.00,1334.00,1023.00,1088.00,,,,,,,,,,,,0,1,0,,-2996,16016,260,-4,-82,-140
27.901,27.87,-2.60,5.11,-7.98,2.05,-3.99,-2.61,-0.15,-1.44,0.44,104.00,177.00,191.00,144.00,787.00,1350.00,987.00,1104.00,,,,,,,,,,,,0,1,0,,-2964,16084,268,3,180,-151
27.962,27.93,-2.61,-2.19,-0.45,-3.10,-0.33,-2.71,0.36,-0.75,0.42,79.00,193.00,172.00,160.00,767.00,1337.00,976.00,1075.00,,,,,,,,,,,,0,1,0,,-3020,16116,28,-24,239,-176
28.025,27.98,-2.57,-4.57,4.24,-6.45,3.70,-1.82,-0.20,-0.15,-0.16,64.00,187.00,147.00,164.00,778.00,1310.00,996.00,1066.00,,,,,,,,,,,,0,1,0,,-2852,16052,-196,35,193,-44
28.065,28.04,-2.54,1.79,-2.02,1.27,-1.80,-2.08,-0.33,-0.91,0.25,80.00,172.00,172.00,140.00,787.00,1328.00,988.00,1087.00,,,,,,,,,,,,0,1,0,,-2936,16096,-68,-21,145,-164
28.127,28.09,-2.57,-2.43,0.11,-2.33,-0.04,-3.02,0.75,-1.47,0.83,77.00,192.00,167.00,154.00,755.00,1339.00,967.00,1094.00,,,,,,,,,,,,0,1,0,,-2816,16000,-80,-58,117,-156
28.189,28.15,-2.53,-5.87,5.57,-8.27,4.82,-1.74,-0.35,-0.14,-0.27,61.00,190.00,143.00,171.00,783.00,1311.00,1002.00,1069.00,,,,,,,,,,,,0,1,0,,-2920,16108,4,4,72,-207
28.271,28.20,-2.50,0.48,-1.58,-0.85,0.02,-2.08,-0.33,-0.93,-0.14,80.00,179.00,162.00,145.00,787.00,1328.00,1009.00,1099.00,,,,,,,,,,,,0,1,0,,-2936,16012,64,22,1,-258
28.292,28.26,-2.54,-2.65,-0.52,-0.29,-2.32,-3.27,0.55,-1.88,0.55,80.00,197.00,182.00,151.00,767.00,1360.00,989.00,1120.00,,,,,,,,,,,,0,1,0,,-3032,15968,52,55,96,-150
28.333,28.31,-2.55,-5.83,1.25,-7.97,1.86,-2.68,0.11,-1.17,-0.06,77.00,213.00,167.00,183.00,777.00,1344.00,1009.00,1107.00,,,,,,,,,,,,0,1,0,,-2980,15904,68,-69,199,-124
28.438,28.37,-2.52,-1.44,-1.16,-3.01,1.21,-2.06,-0.66,-1.03,-0.66,81.00,191.00,158.00,153.00,801.00,1339.00,1040.00,1119.00,,,,,,,,,,,,0,1,0,,-2948,15892,-192,-73,206,-109
28.458,28.42,-2.55,2.43,-7.25,2.13,-4.12,-3.02,-0.01,-2.41,0.29,105.00,193.00,192.00,144.00,787.00,1367.00,1013.00,1152.00,,,,,,,,,,,,0,1,0,,-2916,16012,72,-111,145,-73
28.5,28.48,-2.58,-6.97,1.40,-6.96,1.19,-3.12,0.35,-1.81,0.12,78.00,222.00,170.00,179.00,773.00,1359.00,1011.00,1130.00,,,,,,,,,,,,0,1,0,,-2920,16112,60,-135,112,-198
28.562,28.53,-2.58,-4.14,0.93,-6.63,3.51,-2.54,-0.17,-1.33,-0.45,76.00,201.00,149.00,166.00,787.00,1347.00,1034.00,1126.00,,,,,,,,,,,,0,1,0,,-2844,15984,24,18,61,-60
28.625,28.59,-2.59,0.28,-3.89,1.00,-1.92,-2.76,-0.26,-2.35,0.10,91.00,192.00,174.00,142.00,794.00,1362.00,1022.00,1155.00,,,,,,,,,,,,0,1,0,,-2852,15948,56,-118,160,-112
28.687,28.64,-2.63,-4.90,0.23,-3.93,-0.47,-3.51,0.48,-2.24,0.49,80.00,211.00,176.00,166.00,773.00,1375.00,999.00,1138.00,,,,,,,,,,,,0,1,0,,-2848,16060,76,-98,160,-297
28.75,28.70,-2.61,-5.94,5.29,-8.23,4.55,-2.16,-0.23,-0.48,-0.32,62.00,192.00,145.00,172.00,784.00,1329.00,1011.00,1085.00,,,,,,,,,,,,0,1,0,,-2944,16084,-16,-67,25,-199
28.792,28.75,-2.59,1.79,-2.02,0.99,-1.38,-2.20,-0.43,-0.90,-0.02,80.00,172.00,169.00,140.00,793.00,1338.00,1002.00,1094.00,,,,,,,,,,,,0,1,0,,-2980,16012,108,-42,73,-157
28.831,28.81,-2.59,-1.47,-0.92,0.73,-2.56,-2.66,0.06,-1.27,0.50,80.00,190.00,181.00,146.00,779.00,1345.00,981.00,1095.00,,,,,,,,,,,,0,1,0,,-2904,16064,0,-56,193,-134
28.913,28.86,-2.58,-5.64,2.95,-6.24,1.61,-2.41,0.16,-0.57,0.02,70.00,202.00,164.00,172.00,771.00,1328.00,994.00,1079.00,,,,,,,,,,,,0,1,0,,-2952,15988,-36,-121,225,-96
28.976,28.92,-2.54,-1.01,-0.61,-2.17,0.47,-1.74,-0.75,-0.62,-0.42,78.00,185.00,162.00,151.00,800.00,1325.00,1019.00,1094.00,,,,,,,,,,,,0,1,0,,-2944,15892,-52,-47,102,-130
29.038,28.97,-2.55,1.99,-5.83,2.05,-3.99,-2.76,0.04,-1.81,0.55,98.00,189.00,191.00,144.00,781.00,1351.00,988.00,1117.00,,,,,,,,,,,,0,1,0,,-2796,16064,76,-112,103,-98
29.058,29.03,-2.55,-5.26,1.30,-6.78,1.13,-2.46,0.32,-0.90,0.18,76.00,208.00,170.00,178.00,765.00,1325.00,991.00,1088.00,,,,,,,,,,,,0,1,0,,-2820,16040,92,-155,103,-167
29.099,29.08,-2.50,-2.41,1.86,-3.10,1.83,-1.61,-0.65,-0.16,-0.79,70.00,183.00,153.00,151.00,794.00,1315.00,1031.00,1085.00,,,,,,,,,,,,0,1,0,,-2904,15976,-16,-69,70,-220
29.181,29.14,-2.49,2.38,-5.19,1.97,-2.56,-2.31,-0.16,-1.48,0.23,94.00,183.00,177.00,139.00,783.00,1334.00,999.00,1112.00,,,,,,,,,,,,0,1,0,,-2964,16000,108,-165,-25,-111
29.222,29.19,-2.52,-2.45,-0.82,-2.99,-0.26,-3.14,0.82,-1.71,0.61,81.00,197.00,171.00,159.00,754.00,1343.00,983.00,1111.00,,,,,,,,,,,,0,1,0,,-2912,16064,136,-193,77,-161
29.285,29.25,-2.50,-6.28,5.41,-5.98,3.92,-2.01,-0.26,-0.75,-0.35,62.00,194.00,144.00,160.00,783.00,1322.00,1017.00,1097.00,,,,,,,,,,,,0,1,0,,-2908,15932,76,-262,149,-142
29.346,29.30,-2.49,-2.95,3.70,0.93,-1.03,-2.40,-0.22,-1.73,0.04,64.00,178.00,166.00,139.00,787.00,1341.00,1014.00,1129.00,,,,,,,,,,,,0,1,0,,-2924,16056,20,-198,136,-155
29.387,29.36,-2.53,-3.80,-0.14,-1.26,-1.37,-3.25,0.52,-2.19,0.58,80.00,204.00,176.00,153.00,768.00,1360.00,993.00,1133.00,,,,,,,,,,,,0,1,0,,-3012,16044,68,-185,67,-142
29.448,29.41,-2.54,-6.84,4.72,-7.22,3.71,-2.77,-0.02,-1.79,-0.10,65.00,202.00,149.00,169.00,784.00,1354.00,1023.00,1136.00,,,,,,,,,,,,0,1,0,,-2872,16148,92,-195,136,-145
29.552,29.47,-2.52,-2.62,-0.76,-3.46,0.67,-2.20,-0.71,-1.31,-0.59,81.00,198.00,164.00,158.00,805.00,1348.00,1041.00,1129.00,,,,,,,,,,,,0,1,0,,-2776,15856,60,-247,97,-250
29.572,29.52,-2.55,1.32,-5.22,1.82,-3.92,-3.05,0.16,-1.95,0.47,96.00,191.00,191.00,145.00,780.00,1362.00,995.00,1126.00,,,,,,,,,,,,0,1,0,,-2860,16092,284,-170,22,-225
29.612,29.58,-2.55,-6.60,3.27,-7.63,1.96,-2.54,0.33,-0.83,0.09,70.00,208.00,165.00,180.00,766.00,1329.00,995.00,1088.00,,,,,,,,,,,,0,1,0,,-2888,16008,100,-173,43,-176
29.673,29.63,-2.50,-2.05,1.74,-4.17,1.72,-1.57,-0.69,-0.20,-0.53,70.00,181.00,157.00,158.00,795.00,1314.00,1017.00,1079.00,,,,,,,,,,,,0,1,0,,-2924,16036,292,-112,167,-84
29.734,29.69,-2.51,3.44,-5.94,2.31,-3.59,-2.63,0.07,-1.44,0.40,96.00,179.00,186.00,141.00,778.00,1343.00,989.00,1105.00,,,,,,,,,,,,0,1,0,,-2944,16028,244,-145,290,-84
29.794,29.74,-2.52,-1.92,-0.06,-3.29,-0.05,-2.66,0.56,-1.22,0.63,77.00,189.00,170.00,160.00,758.00,1327.00,973.00,1089.00,,,,,,,,,,,,0,1,0,,-2988,16016,196,-109,183,-186
29.835,29.80,-2.47,-4.31,3.87,-5.76,3.59,-1.70,-0.27,-0.19,-0.20,65.00,187.00,146.00,160.00,779.00,1306.00,999.00,1069.00,,,,,,,,,,,,0,1,0,,-2892,15904,-116,-184,90,-81
29.918,29.85,-2.46,1.60,-1.95,4.50,-2.34,-2.14,-0.24,-1.23,0.17,80.00,173.00,167.00,125.00,784.00,1328.00,998.00,1103.00,,,,,,,,,,,,0,1,0,,-2888,16032,140,-238,103,-131
29.938,29.91,-2.49,-2.02,-0.50,-2.11,-1.09,-3.05,0.69,-1.80,0.77,79.00,192.00,176.00,157.00,758.00,1343.00,976.00,1110.00,,,,,,,,,,,,0,1,0,,-2964,16052,260,-166,166,-189
30.001,29.96,-2.46,-7.89,8.16,-7.49,4.56,-2.03,-0.20,-0.69,-0.22,55.00,192.00,143.00,167.00,781.00,1321.00,1009.00,1091.00,,,,,,,,,,,,0,1,0,,-2976,16024,148,-122,48,-162
30.043,30.02,-2.44,0.67,-1.64,-0.82,0.24,-2.06,-0.50,-1.43,-0.04,80.00,178.00,160.00,144.00,794.00,1333.00,1013.00,1118.00,,,,,,,,,,,,1,1,0,,-2916,15984,64,-38,-69,-9
30.105,30.07,-2.47,-3.51,-1.99,-1.17,-1.51,-2.94,0.06,-2.08,0.16,88.00,212.00,177.00,153.00,783.00,1360.00,1014.00,1141.00,,,,,,,,,,,,1,1,0,,-2852,16116,464,-124,-17,-62
30.168,30.13,-2.48,-5.93,1.05,-6.72,1.88,-2.70,0.12,-1.54,-0.11,78.00,215.00,163.00,174.00,777.00,1345.00,1019.00,1125.00,,,,,,,,,,,,1,1,0,,-3048,16040,340,-175,73,-279
30.27,30.18,-2.46,-1.95,-0.99,-3.85,1.73,-2.17,-0.67,-1.27,-0.81,81.00,194.00,156.00,156.00,803.00,1345.00,1053.00,1134.00,,,,,,,,,,,,1,1,0,,-2932,15900,256,-127,130,-134
30.291,30.24,-2.50,0.80,-5.80,1.10,-3.87,-3.23,0.11,-2.83,0.35,100.00,198.00,193.00,149.00,785.00,1374.00,1017.00,1169.00,,,,,,,,,,,,1,1,0,,-2924,15968,120,-120,82,-108
30.313,30.29,-2.55,-7.85,1.69,-6.70,1.43,-3.47,0.59,-2.15,0.20,78.00,228.00,167.00,176.00,768.00,1369.00,1013.00,1143.00,,,,,,,,,,,,1,1,0,,-2952,16392,360,-175,233,-222
30.374,30.35,-2.53,-5.10,3.85,-5.66,3.69,-2.14,-0.24,-0.98,-0.10,66.00,193.00,145.00,159.00,784.00,1328.00,1008.00,1100.00,,,,,,,,,,,,1,1,0,,-3000,16132,100,-266,55,-208
30.436,30.40,-2.51,6.09,-9.00,3.16,-2.11,-2.21,-0.21,-0.88,0.12,108.00,175.00,169.00,131.00,784.00,1331.00,994.00,1089.00,,,,,,,,,,,,1,1,0,,-3036,15960,452,98,95,-62
30.478,30.46,-2.53,-4.45,3.08,0.07,-1.07,-2.84,0.77,-1.23,0.75,68.00,192.00,169.00,144.00,752.00,1329.00,967.00,1086.00,,,,,,,,,,,,1,1,0,,-2828,15808,352,-28,191,-81
30.541,30.51,-2.49,-3.91,4.91,-7.77,4.53,-1.78,0.02,0.12,-0.23,61.00,179.00,144.00,169.00,768.00,1300.00,995.00,1057.00,,,,,,,,,,,,1,1,0,,-2956,15660,320,110,474,-196
30.641,30.57,-2.47,1.41,-1.89,2.93,-0.91,-2.01,-0.23,-1.06,0.43,80.00,174.00,159.00,128.00,782.00,1321.00,981.00,1088.00,,,,,,,,,,,,1,1,0,,-2904,15988,76,-58,328,-143
30.661,30.62,-2.48,-0.77,-1.15,-0.04,-1.67,-2.73,0.25,-1.44,0.61,80.00,186.00,175.00,147.00,772.00,1342.00,978.00,1099.00,,,,,,,,,,,,1,1,0,,-2828,16024,268,-42,203,-61
30.703,30.68,-2.47,-4.36,2.00,-5.18,1.59,-2.32,0.23,-0.65,0.06,72.00,197.00,161.00,165.00,767.00,1321.00,993.00,1081.00,,,,,,,,,,,,1,1,0,,-2868,15860,240,-90,-86,0
30.765,30.73,-2.44,-0.98,-0.85,-2.12,1.38,-1.81,-0.60,-0.71,-0.47,79.00,186.00,154.00,147.00,795.00,1324.00,1023.00,1099.00,,,,,,,,,,,,1,1,0,,-2808,15932,324,-336,-27,-185
30.828,30.79,-2.47,2.85,-6.49,0.90,-3.31,-3.02,0.20,-2.16,0.53,100.00,186.00,188.00,148.00,778.00,1359.00,995.00,1133.00,,,,,,,,,,,,1,1,0,,-2956,16024,400,-258,199,-319
30.869,30.84,-2.49,-6.39,2.42,-6.99,1.86,-2.81,0.39,-1.26,0.18,73.00,211.00,164.00,176.00,767.00,1341.00,998.00,1104.00,,,,,,,,,,,,1,1,0,,-2936,15968,384,-90,64,-98
31.013,30.90,-2.45,-2.39,0.83,-4.48,2.18,-1.82,-0.65,-0.59,-0.74,74.00,188.00,154.00,158.00,797.00,1326.00,1036.00,1102.00,,,,,,,,,,,,1,1,0,,-2996,16060,240,113,52,-7
31.034,30.95,-2.45,1.30,-3.40,1.41,-2.27,-2.47,-0.20,-1.77,0.16,87.00,182.00,176.00,141.00,787.00,1344.00,1008.00,1127.00,,,,,,,,,,,,1,1,0,,-2916,15924,236,189,5,255
31.055,31.01,-2.49,-3.60,0.50,-3.07,0.10,-3.27,0.60,-2.19,0.49,77.00,199.00,168.00,158.00,765.00,1358.00,998.00,1136.00,,,,,,,,,,,,1,1,0,,-2688,16064,492,-18,222,286
31.095,31.06,-2.48,-6.11,5.35,-6.59,4.13,-2.14,-0.24,-0.68,-0.44,62.00,193.00,144.00,163.00,784.00,1328.00,1021.00,1097.00,,,,,,,,,,,,1,1,0,,-2720,16076,84,-10,537,37
31.138,31.12,-2.46,0.12,-1.46,1.99,-1.49,-2.17,-0.27,-1.02,-0.07,80.00,181.00,167.00,135.00,786.00,1331.00,1007.00,1101.00,,,,,,,,,,,,1,1,0,,-2856,16116,252,242,626,-65
31.22,31.17,-2.48,-1.09,-1.28,-1.02,-1.24,-2.83,0.67,-1.23,0.67,81.00,189.00,174.00,151.00,756.00,1332.00,971.00,1088.00,,,,,,,,,,,,1,1,0,,-2852,15940,140,357,466,140
31.262,31.23,-2.45,-4.39,4.18,-5.85,3.50,-1.96,-0.11,-0.46,0.02,64.00,186.00,147.00,161.00,776.00,1314.00,992.00,1074.00,,,,,,,,,,,,1,1,0,,-2584,16000,-4,297,365,292
31.364,31.28,-2.41,0.42,-0.85,-1.15,0.47,-1.55,-0.46,-0.38,-0.27,77.00,176.00,159.00,145.00,785.00,1305.00,1006.00,1079.00,,,,,,,,,,,,1,1,0,,-2640,16280,188,-104,396,189
31.385,31.34,-2.42,1.67,-4.76,1.71,-3.49,-2.60,0.25,-1.58,0.45,93.00,186.00,187.00,144.00,770.00,1335.00,989.00,1110.00,,,,,,,,,,,,1,1,0,,-2668,16376,76,-252,278,-66
31.426,31.39,-2.41,-5.54,1.89,-6.25,1.84,-2.27,0.40,-0.41,-0.02,74.00,207.00,162.00,171.00,759.00,1312.00,993.00,1073.00,,,,,,,,,,,,1,1,0,,-2352,15504,40,111,516,-154
31.489,31.45,-2.35,-2.13,1.25,-3.09,2.32,-1.15,-0.78,-0.43,-0.51,72.00,184.00,149.00,149.00,793.00,1296.00,1020.00,1088.00,,,,,,,,,,,,1,1,0,,-2496,15840,60,232,461,24
31.591,31.50,-2.35,4.33,-6.62,3.85,-3.40,-2.36,-0.02,-1.80,0.43,98.00,176.00,179.00,132.00,778.00,1332.00,994.00,1120.00,,,,,,,,,,,,1,1,0,,-2668,16308,124,-315,158,-66
31.612,31.56,-2.36,-3.15,0.59,-2.85,0.24,-2.64,0.53,-1.24,0.36,76.00,195.00,166.00,156.00,759.00,1327.00,988.00,1098.00,,,,,,,,,,,,1,1,0,,-2748,16240,44,121,246,14
31.653,31.61,-2.33,-5.26,4.47,-3.75,2.79,-1.76,-0.20,-0.71,-0.23,64.00,191.00,147.00,151.00,777.00,1307.00,1010.00,1092.00,,,,,,,,,,,,1,1,0,,-2628,16148,-152,131,265,-35
31.736,31.67,-2.32,1.81,-2.48,3.16,-2.11,-2.08,-0.37,-1.70,0.12,82.00,174.00,169.00,131.00,789.00,1330.00,1009.00,1125.00,,,,,,,,,,,,1,1,0,,-2596,15884,-216,599,397,99
31.756,31.72,-2.36,-3.02,-0.17,-0.83,-1.52,-3.14,0.80,-1.83,0.39,79.00,198.00,176.00,151.00,755.00,1344.00,997.00,1123.00,,,,,,,,,,,,1,1,0,,-2520,16252,-120,263,276,313
31.797,31.78,-2.36,-6.53,5.19,-6.27,3.89,-2.26,-0.03,-1.02,-0.34,63.00,197.00,145.00,162.00,777.00,1327.00,1022.00,1109.00,,,,,,,,,,,,1,1,0,,-2316,16428,20,-346,258,233
31.859,31.83,-2.34,-0.06,-1.39,-0.49,0.02,-2.01,-0.28,-0.97,-0.25,80.00,182.00,161.00,143.00,784.00,1323.00,1016.00,1104.00,,,,,,,,,,,,1,1,0,,-2380,16492,-48,-354,173,-25
31.921,31.89,-2.36,-1.18,-0.55,-2.25,-1.35,-2.74,0.37,-0.81,0.15,78.00,186.00,179.00,159.00,767.00,1338.00,991.00,1085.00,,,,,,,,,,,,1,1,0,,-2492,16284,32,-283,168,-400
31.98,31.94,-2.34,-4.30,1.72,-6.37,2.46,-1.99,0.17,-0.41,0.02,73.00,198.00,157.00,169.00,765.00,1306.00,991.00,1072.00,,,,,,,,,,,,1,1,0,,-2472,16128,-132,1,45,-173
32.042,32.00,-2.29,0.48,-1.58,-2.13,1.15,-1.34,-0.51,-0.02,-0.55,80.00,179.00,156.00,148.00,784.00,1296.00,1015.00,1072.00,,,,,,,,,,,,1,1,0,,-2400,16172,-96,241,3,-16
32.104,32.05,-2.30,2.72,-5.70,2.78,-3.75,-2.47,0.26,-1.86,0.62,96.00,183.00,186.00,139.00,768.00,1328.00,985.00,1117.00,,,,,,,,,,,,1,1,0,,-2468,16136,-76,123,118,-93
32.144,32.11,-2.30,-4.96,1.94,-4.88,1.61,-2.37,0.56,-0.69,0.23,73.00,202.00,160.00,163.00,754.00,1312.00,985.00,1078.00,,,,,,,,,,,,1,1,0,,-2412,16092,-268,252,286,-79
32.185,32.16,-2.27,-3.58,2.79,-3.31,2.90,-1.59,-0.11,-0.52,-0.17,68.00,187.00,145.00,148.00,771.00,1295.00,1003.00,1082.00,,,,,,,,,,,,1,1,0,,-2288,16116,-556,22,128,35
32.247,32.22,-2.26,1.44,-2.35,3.14,-1.20,-2.02,-0.02,-1.15,0.01,82.00,176.00,161.00,128.00,773.00,1314.00,1005.00,1104.00,,,,,,,,,,,,1,1,1,,-2228,16224,-324,164,177,77
32.309,32.27,-2.28,-2.22,-0.20,-1.82,-0.54,-2.80,0.68,-1.41,0.39,78.00,192.00,170.00,153.00,755.00,1330.00,989.00,1104.00,,,,,,,,,,,,1,1,1,,-2244,16348,-412,-81,307,-50
32.35,32.33,-2.27,-5.18,4.16,-6.87,5.01,-2.02,0.01,-0.53,-0.25,65.00,192.00,138.00,161.00,772.00,1313.00,1008.00,1085.00,,,,,,,,,,,,1,1,1,,-2096,15904,-268,-223,589,96
32.412,32.38,-2.26,1.43,-2.12,1.59,-0.91,-2.15,-0.30,-1.74,-0.08,81.00,175.00,163.00,135.00,787.00,1331.00,1021.00,1133.00,,,,,,,,,,,,1,1,1,,-2096,16176,-224,-380,800,157
32.495,32.44,-2.29,-3.07,-0.84,0.27,-1.89,-2.79,0.19,-1.98,0.11,82.00,202.00,176.00,146.00,775.00,1347.00,1015.00,1138.00,,,,,,,,,,,,1,1,1,,-1896,16184,-356,-824,556,-141
32.516,32.49,-2.30,-4.09,0.67,-6.79,1.57,-2.42,0.09,-1.12,-0.24,77.00,202.00,166.00,176.00,774.00,1331.00,1018.00,1110.00,,,,,,,,,,,,1,1,1,,-2100,16448,-96,-675,334,-596
32.577,32.55,-2.26,-1.18,-0.55,-2.14,0.92,-1.50,-0.73,-0.46,-0.69,78.00,186.00,158.00,149.00,796.00,1312.00,1031.00,1095.00,,,,,,,,,,,,1,1,1,,-2136,16364,116,-546,-162,-653
32.64,32.60,-2.27,2.03,-4.48,1.62,-3.36,-2.52,0.13,-1.62,0.37,91.00,182.00,186.00,144.00,774.00,1335.00,994.00,1114.00,,,,,,,,,,,,1,1,1,,-2412,16136,64,-205,-617,-436
32.682,32.66,-2.27,-5.80,3.00,-5.77,1.79,-2.21,0.29,-0.64,0.04,70.00,203.00,161.00,168.00,763.00,1313.00,994.00,1081.00,,,,,,,,,,,,1,1,1,,-2528,16264,488,-44,-511,-310
32.745,32.71,-2.22,-2.28,2.08,-3.97,3.12,-1.42,-0.48,-0.17,-0.57,69.00,181.00,145.00,151.00,784.00,1299.00,1019.00,1079.00,,,,,,,,,,,,1,1,1,,-2508,16168,304,-70,-73,-365
32.848,32.77,-2.20,1.04,-1.76,3.53,-1.79,-1.84,-0.32,-1.21,0.10,80.00,176.00,165.00,128.00,783.00,1315.00,1001.00,1104.00,,,,,,,,,,,,1,1,1,,-2376,15968,184,-43,168,-259
32.869,32.82,-2.22,-3.75,2.05,-0.35,-0.71,-2.59,0.68,-1.27,0.54,71.00,192.00,167.00,145.00,752.00,1319.00,979.00,1094.00,,,,,,,,,,,,1,1,1,,-2396,16036,8,-124,93,-93
32.931,32.88,-2.19,-4.39,4.18,-5.82,4.39,-1.64,-0.14,-0.30,-0.35,64.00,186.00,140.00,157.00,773.00,1299.00,1009.00,1078.00,,,,,,,,,,,,1,1,1,,-2380,16152,40,18,-55,-192
32.973,32.93,-2.18,2.19,-2.61,2.43,-1.31,-1.99,-0.29,-1.22,-0.11,82.00,172.00,164.00,132.00,784.00,1322.00,1013.00,1111.00,,,,,,,,,,,,1,1,1,,-2368,16140,-20,42,-235,-270
33.034,32.99,-2.21,-1.84,-0.56,-0.04,-1.67,-2.77,0.50,-1.96,0.54,79.00,191.00,175.00,147.00,762.00,1335.00,991.00,1124.00,,,,,,,,,,,,1,1,1,,-2620,16100,92,2,-280,-194
33.094,33.04,-2.22,-7.73,5.31,-4.47,1.47,-2.42,0.09,-1.05,-0.53,64.00,206.00,160.00,161.00,774.00,1331.00,1033.00,1116.00,,,,,,,,,,,,1,1,1,,-2492,16160,92,44,-258,-167
33.156,33.10,-2.21,-1.81,-0.81,-0.72,0.09,-1.98,-0.64,-1.52,-0.53,80.00,192.00,161.00,144.00,799.00,1334.00,1042.00,1137.00,,,,,,,,,,,,1,1,1,,-2540,16144,156,-27,-120,-149
33.218,33.15,-2.26,0.97,-5.11,1.60,-3.84,-3.14,0.07,-2.66,0.21,96.00,193.00,191.00,146.00,785.00,1370.00,1022.00,1166.00,,,,,,,,,,,,1,1,1,,-2516,16084,160,-154,112,-78
33.238,33.21,-2.28,-5.05,0.99,-6.98,1.63,-2.62,0.16,-1.11,-0.08,77.00,208.00,166.00,177.00,774.00,1339.00,1009.00,1105.00,,,,,,,,,,,,1,1,1,,-2488,16212,136,-117,145,-132
33.279,33.26,-2.24,-2.76,2.79,-3.43,1.82,-1.57,-0.73,-0.19,-0.86,67.00,181.00,154.00,153.00,797.00,1316.00,1035.00,1088.00,,,,,,,,,,,,1,1,1,,-2260,16040,160,-28,91,-186
33.341,33.32,-2.25,3.82,-5.87,1.69,-2.67,-2.37,-0.09,-1.95,0.82,95.00,176.00,179.00,141.00,781.00,1335.00,976.00,1115.00,,,,,,,,,,,,1,1,1,,-2384,16140,160,-87,173,-138
33.403,33.37,-2.27,-2.73,0.94,-1.68,-0.26,-2.62,0.45,-1.11,0.33,74.00,190.00,167.00,151.00,762.00,1329.00,987.00,1093.00,,,,,,,,,,,,1,1,1,,-2328,16156,308,-100,310,-205
33.464,33.43,-2.24,-5.00,5.89,-5.77,3.85,-1.79,-0.33,-0.27,-0.40,59.00,182.00,144.00,159.00,783.00,1313.00,1011.00,1078.00,,,,,,,,,,,,1,1,1,,-2440,16008,60,-97,305,-283
33.527,33.48,-2.24,2.95,-2.41,2.33,-1.16,-2.19,-0.24,-1.22,-0.02,80.00,166.00,163.00,132.00,785.00,1331.00,1008.00,1108.00,,,,,,,,,,,,1,1,1,,-2364,16036,12,-157,215,-229
33.589,33.54,-2.28,-1.61,-1.10,-1.30,-0.83,-3.10,0.69,-1.79,0.52,81.00,192.00,171.00,151.00,759.00,1346.00,989.00,1117.00,,,,,,,,,,,,1,1,1,,-2476,16168,144,-40,110,-233
33.65,33.59,-2.28,-7.03,6.89,-7.44,4.03,-2.20,-0.12,-0.91,-0.31,58.00,192.00,147.00,169.00,780.00,1327.00,1018.00,1103.00,,,,,,,,,,,,1,1,1,,-2428,16072,28,-73,36,-260
33.672,33.65,-2.27,-0.37,-1.75,-2.73,0.32,-2.16,-0.51,-1.53,-0.19,82.00,186.00,165.00,155.00,796.00,1339.00,1023.00,1127.00,,,,,,,,,,,,1,1,1,,-2620,16100,268,-59,-19,-216
33.732,33.70,-2.31,-1.62,-2.42,-0.12,-2.07,-2.98,-0.07,-2.45,0.28,87.00,199.00,179.00,149.00,789.00,1367.00,1014.00,1154.00,,,,,,,,,,,,1,1,1,,-2624,16072,200,0,102,-136
33.793,33.76,-2.34,-5.67,0.49,-7.16,1.70,-2.87,0.03,-1.54,-0.15,80.00,216.00,166.00,178.00,783.00,1357.00,1021.00,1126.00,,,,,,,,,,,,1,1,1,,-2520,16220,204,-77,146,-172
33.855,33.81,-2.32,-2.35,-0.39,-3.75,1.34,-1.99,-0.94,-1.28,-0.86,79.00,194.00,159.00,157.00,812.00,1345.00,1056.00,1136.00,,,,,,,,,,,,1,1,1,,-2524,16064,68,-6,282,-122
33.937,33.87,-2.37,2.09,-7.14,1.60,-3.84,-3.35,-0.02,-2.68,-0.02,105.00,195.00,191.00,146.00,792.00,1385.00,1035.00,1174.00,,,,,,,,,,,,1,1,1,,-2488,16064,184,-29,165,-131
33.958,33.92,-2.33,-5.82,0.54,-6.12,0.58,-1.62,-0.41,-2.31,0.07,80.00,217.00,173.00,176.00,784.00,1307.00,1023.00,1154.00,,,,,,,,,,,,1,1,1,,-2448,16188,-120,31,245,-87
34.0,33.98,-2.33,-3.44,0.45,-5.59,2.19,-2.21,-0.52,-0.93,-0.64,77.00,198.00,157.00,165.00,797.00,1342.00,1037.00,1114.00,,,,,,,,,,,,1,1,1,,-2332,16164,144,-26,222,-120
34.061,34.03,-2.34,1.63,-2.64,1.03,-1.17,-2.67,-0.18,-1.54,0.09,83.00,176.00,167.00,139.00,789.00,1354.00,1008.00,1119.00,,,,,,,,,,,,1,1,1,,-2532,16020,36,4,145,-149
34.123,34.09,-2.39,-3.20,0.85,-2.50,-0.74,-3.18,0.49,-1.63,0.62,75.00,194.00,174.00,158.00,768.00,1357.00,981.00,1107.00,,,,,,,,,,,,1,1,1,,-2620,16108,52,59,204,-88
34.163,34.14,-2.35,-3.81,5.18,-6.52,3.35,-1.59,-0.40,-0.54,-0.34,60.00,177.00,150.00,166.00,783.00,1305.00,1013.00,1088.00,,,,,,,,,,,,1,1,1,,-2452,15884,396,28,216,85
34.244,34.20,-2.35,0.85,-1.70,-0.62,-0.06,-2.48,-0.43,-1.43,-0.20,80.00,177.00,162.00,144.00,797.00,1353.00,1022.00,1123.00,,,,,,,,,,,,1,1,1,,-2452,16128,176,-256,275,26
34.306,34.25,-2.40,-1.92,-1.23,-1.47,-2.02,-3.30,0.15,-1.89,0.20,82.00,195.00,183.00,157.00,784.00,1376.00,1008.00,1131.00,,,,,,,,,,,,1,1,1,,-2336,16088,72,-486,287,-129
34.327,34.31,-2.42,-5.79,1.73,-8.14,1.69,-2.74,-0.29,-1.51,-0.16,75.00,210.00,169.00,185.00,795.00,1362.00,1021.00,1125.00,,,,,,,,,,,,1,1,1,,-2384,16136,200,-386,219,-190
34.388,34.36,-2.41,-0.49,-2.37,-3.59,0.16,-2.34,-0.75,-1.32,-0.79,85.00,190.00,169.00,161.00,809.00,1357.00,1053.00,1136.00,,,,,,,,,,,,1,1,1,,-2476,16292,516,-86,143,-85
34.45,34.42,-2.47,2.41,-7.42,0.27,-3.87,-3.51,0.04,-2.76,0.26,106.00,194.00,196.00,154.00,792.00,1392.00,1021.00,1169.00,,,,,,,,,,,,1,1,1,,-2468,16288,272,271,173,-131
34.49,34.47,-2.51,-6.27,0.69,-6.68,0.77,-3.31,0.09,-2.17,0.02,80.00,220.00,173.00,179.00,787.00,1379.00,1023.00,1149.00,,,,,,,,,,,,1,1,1,,-2380,15932,76,403,170,-60
34.55,34.53,-2.52,-2.35,-0.39,-6.74,2.35,-2.65,-0.67,-1.74,-0.67,79.00,194.00,159.00,172.00,810.00,1371.00,1054.00,1151.00,,,,,,,,,,,,1,1,1,,-2264,15984,-248,-52,40,-46
34.611,34.58,-2.55,-16.17,20.38,-0.61,-1.59,-3.23,-0.40,-2.40,-0.24,33.00,192.00,176.00,150.00,807.00,1393.00,1042.00,1168.00,,,,,,,,,,,,1,1,1,,-2308,16096,44,-277,173,-158
34.673,34.64,-2.63,-3.07,-1.93,-4.72,-0.42,-4.05,0.41,-2.81,0.24,87.00,208.00,178.00,171.00,784.00,1408.00,1023.00,1172.00,,,,,,,,,,,,1,1,1,,-2324,16264,36,-4,277,-135
34.734,34.69,-2.66,-7.64,4.99,-8.30,3.58,-3.28,-0.23,-1.69,-1.00,65.00,207.00,153.00,177.00,800.00,1389.00,1072.00,1159.00,,,,,,,,,,,,1,1,2,,-2240,16044,96,-7,177,17
34.795,34.75,-2.70,0.96,-3.91,-0.39,-1.66,-3.47,-0.53,-2.57,-0.41,90.00,187.00,176.00,149.00,816.00,1411.00,1055.00,1181.00,,,,,,,,,,,,1,1,2,,-2140,16084,204,-128,48,-219
34.836,34.80,-2.75,-2.78,-0.71,-3.06,-1.98,-3.61,0.05,-2.49,0.28,81.00,199.00,188.00,167.00,793.00,1397.00,1015.00,1156.00,,,,,,,,,,,,1,1,2,,-2372,16084,84,-169,-98,-104
34.896,34.86,-2.77,-3.23,0.14,-6.03,0.23,-3.14,-0.11,-1.45,-0.42,78.00,198.00,176.00,177.00,793.00,1377.00,1034.00,1130.00,,,,,,,,,,,,1,1,2,,-2320,16152,272,-80,-96,65
34.959,34.91,-2.74,-1.30,-0.98,-4.50,0.14,-2.33,-0.98,-1.18,-0.81,80.00,189.00,172.00,167.00,819.00,1365.00,1051.00,1130.00,,,,,,,,,,,,1,1,2,,-2316,16204,104,140,66,14
35.041,34.97,-2.79,1.48,-5.47,-0.90,-3.57,-3.62,-0.04,-1.95,-0.84,97.00,191.00,197.00,160.00,797.00,1401.00,1068.00,1166.00,,,,,,,,,,,,1,1,2,,-2160,16188,228,-42,64,-64
35.061,35.02,-2.81,-5.57,0.69,-8.52,1.07,-3.14,-0.11,-1.79,-0.10,79.00,214.00,176.00,191.00,793.00,1377.00,1023.00,1136.00,,,,,,,,,,,,1,1,2,,-2228,16096,236,-30,26,-149
35.103,35.08,-2.78,-2.22,-0.20,-4.58,1.16,-2.29,-0.90,-1.25,-0.83,78.00,192.00,163.00,163.00,815.00,1360.00,1054.00,1134.00,,,,,,,,,,,,1,1,2,,-2152,16176,208,-107,122,-210
35.165,35.13,-2.80,1.48,-5.66,0.76,-3.37,-3.19,-0.28,-2.02,-0.30,98.00,192.00,189.00,149.00,801.00,1386.00,1038.00,1152.00,,,,,,,,,,,,1,1,2,,-2276,16232,208,-223,29,-293
35.227,35.19,-2.84,-4.09,0.67,-4.52,-0.28,-3.65,0.30,-2.39,0.35,77.00,202.00,176.00,169.00,783.00,1390.00,1009.00,1149.00,,,,,,,,,,,,1,1,2,,-2300,16124,240,-6,-21,-328
35.27,35.24,-2.84,-4.92,2.44,-7.07,3.05,-2.73,-0.55,-1.37,-0.72,71.00,199.00,154.00,171.00,806.00,1371.00,1050.00,1136.00,,,,,,,,,,,,1,1,2,,-2348,16068,188,-42,-36,-317
35.331,35.30,-2.85,1.85,-4.42,0.36,-2.02,-3.08,-0.66,-2.36,-0.30,91.00,183.00,177.00,146.00,816.00,1394.00,1045.00,1168.00,,,,,,,,,,,,1,1,2,,-2420,16064,256,44,99,-271
35.455,35.35,-2.90,-6.51,3.51,-4.36,-0.95,-3.84,0.13,-3.07,0.45,69.00,206.00,182.00,171.00,793.00,1407.00,1016.00,1177.00,,,,,,,,,,,,1,1,2,,-2492,15976,116,20,210,-246
35.476,35.41,-2.93,-7.80,5.04,-8.51,3.06,-3.53,-0.21,-2.36,-0.46,65.00,208.00,158.00,181.00,803.00,1402.00,1054.00,1173.00,,,,,,,,,,,,1,1,2,,-2456,16100,84,-74,224,-255
35.537,35.46,-2.94,0.30,-4.88,-6.13,1.24,-3.21,-0.69,-2.43,-0.73,96.00,197.00,167.00,173.00,819.00,1402.00,1071.00,1185.00,,,,,,,,,,,,1,1,2,,-2360,16044,16,-50,259,-98
35.558,35.52,-3.01,-1.13,-4.97,-2.69,-2.97,-4.33,-0.13,-3.52,-0.09,99.00,209.00,197.00,169.00,811.00,1444.00,1055.00,1216.00,,,,,,,,,,,,1,1,2,,-2400,16252,120,-50,182,-200
35.621,35.57,-3.06,-5.42,-0.05,-9.20,1.30,-3.92,-0.08,-2.48,-0.44,82.00,217.00,176.00,195.00,803.00,1419.00,1055.00,1178.00,,,,,,,,,,,,1,1,2,,-2396,16116,-112,-89,135,-348
35.661,35.63,-3.05,-2.94,0.28,-5.27,0.40,-2.97,-0.76,-1.38,-1.00,77.00,195.00,172.00,171.00,819.00,1392.00,1066.00,1145.00,,,,,,,,,,,,1,1,2,,-2556,16044,68,-58,-79,-245
35.703,35.68,-3.08,2.29,-6.85,0.62,-3.89,-3.57,-0.18,-2.41,-0.04,103.00,192.00,195.00,152.00,802.00,1403.00,1031.00,1162.00,,,,,,,,,,,,1,1,2,,-2552,16064,128,-57,-58,-146
35.785,35.74,-3.10,-2.78,-0.71,-5.38,0.12,-3.54,0.23,-1.87,0.02,81.00,199.00,175.00,173.00,784.00,1386.00,1018.00,1136.00,,,,,,,,,,,,1,1,2,,-2516,16212,208,-25,205,-142
35.847,35.79,-3.08,-5.18,4.16,-7.15,2.96,-2.70,-0.33,-1.10,-0.53,65.00,192.00,155.00,172.00,796.00,1361.00,1034.00,1118.00,,,,,,,,,,,,1,1,2,,-2468,16008,136,-150,280,-163
35.887,35.85,-3.08,0.72,-2.34,-7.67,5.96,-2.99,-0.44,-1.76,-0.11,83.00,181.00,133.00,162.00,805.00,1381.00,1023.00,1135.00,,,,,,,,,,,,1,1,2,,-2368,16164,108,-131,104,-114
35.949,35.90,-3.11,-2.32,-0.63,-3.55,-0.81,-3.76,0.43,-1.86,0.23,80.00,195.00,178.00,165.00,779.00,1391.00,1006.00,1129.00,,,,,,,,,,,,1,1,2,,-2344,16100,172,-162,42,-152
36.011,35.96,-3.09,-8.19,6.35,-8.33,3.84,-2.75,-0.38,-1.56,-0.45,61.00,204.00,151.00,176.00,799.00,1366.00,1038.00,1136.00,,,,,,,,,,,,1,1,2,,-2300,16240,196,-38,71,-286
36.072,36.01,-3.08,-1.24,-1.45,-3.89,0.37,-2.89,-0.61,-2.00,-0.35,82.00,191.00,168.00,162.00,811.00,1382.00,1041.00,1153.00,,,,,,,,,,,,1,1,2,,-2496,16056,164,-4,-19,-248
36.092,36.07,-3.12,-2.14,-2.03,-2.52,-1.87,-3.73,-0.10,-2.76,-0.06,86.00,201.00,185.00,163.00,801.00,1409.00,1039.00,1179.00,,,,,,,,,,,,1,1,2,,-2468,16092,160,34,-25,-148
36.154,36.12,-3.13,-6.68,1.30,-8.35,1.01,-3.46,-0.07,-2.19,-0.36,78.00,220.00,176.00,190.00,796.00,1393.00,1045.00,1162.00,,,,,,,,,,,,1,1,2,,-2388,16008,236,39,127,-145
36.216,36.18,-3.12,-3.43,-0.49,-5.18,0.48,-2.79,-0.89,-1.89,-0.97,81.00,203.00,171.00,170.00,822.00,1387.00,1074.00,1167.00,,,,,,,,,,,,1,1,2,,-2456,16100,84,-68,246,-80
36.277,36.23,-3.17,-0.49,-5.55,-6.52,-1.50,-4.27,-0.19,-3.24,-0.01,101.00,207.00,195.00,189.00,813.00,1443.00,1045.00,1200.00,,,,,,,,,,,,1,1,2,,-2420,16064,168,-101,199,-172
36.34,36.29,-3.21,-5.77,-0.37,-7.83,0.84,-3.86,0.18,-2.78,-0.09,84.00,222.00,176.00,187.00,791.00,1406.00,1041.00,1181.00,,,,,,,,,,,,1,1,2,,-2356,16052,48,-43,136,-100
36.401,36.34,-3.21,-4.89,0.94,-7.29,2.30,-3.30,-0.36,-2.15,-0.67,77.00,207.00,161.00,176.00,806.00,1395.00,1062.00,1170.00,,,,,,,,,,,,1,1,2,,-2524,16256,8,-110,55,-135
36.441,36.40,-3.24,-0.96,-2.64,0.15,-2.46,-3.74,-0.33,-3.15,-0.30,87.00,195.00,182.00,149.00,811.00,1418.00,1060.00,1205.00,,,,,,,,,,,,1,1,2,,-2332,16052,72,-42,194,-114
36.524,36.45,-3.29,-3.99,-0.75,-3.55,-1.91,-4.33,0.50,-2.93,0.03,83.00,209.00,189.00,170.00,784.00,1420.00,1037.00,1184.00,,,,,,,,,,,,1,1,2,,-2404,16068,228,-162,154,-211
36.544,36.51,-3.28,-6.19,3.94,-8.64,3.46,-3.06,-0.28,-1.42,-0.55,67.00,201.00,155.00,180.00,799.00,1379.00,1041.00,1133.00,,,,,,,,,,,,1,1,2,,-2448,16008,76,-32,110,-227
36.584,36.56,-3.26,2.03,-3.86,-0.58,-1.39,-2.83,-0.70,-1.76,-0.50,88.00,179.00,174.00,149.00,814.00,1382.00,1045.00,1147.00,,,,,,,,,,,,1,1,2,,-2452,16120,108,-31,21,-122
36.644,36.62,-3.27,-2.88,-1.13,-2.18,-1.68,-3.41,-0.11,-2.28,0.06,83.00,202.00,182.00,160.00,797.00,1392.00,1023.00,1153.00,,,,,,,,,,,,1,1,2,,-2416,16244,180,-79,144,-176
36.706,36.67,-3.27,-4.75,0.18,-8.65,1.65,-3.40,0.12,-1.11,-0.58,80.00,210.00,171.00,189.00,787.00,1383.00,1037.00,1120.00,,,,,,,,,,,,1,1,2,,-2524,16248,32,-129,246,-180
36.767,36.73,-3.24,-2.32,-0.63,-5.08,0.99,-2.53,-0.94,-1.59,-0.75,80.00,195.00,166.00,167.00,820.00,1374.00,1056.00,1147.00,,,,,,,,,,,,1,1,2,,-2460,16120,-8,2,238,-128
36.89,36.78,-3.25,0.14,-5.77,-0.49,-3.71,-3.45,-0.21,-2.84,0.25,101.00,203.00,197.00,158.00,802.00,1398.00,1023.00,1173.00,,,,,,,,,,,,1,1,2,,-2384,15992,68,-89,135,-135
36.911,36.84,-3.30,-6.97,1.40,-8.18,0.96,-4.27,0.43,-1.99,-0.03,78.00,222.00,176.00,189.00,786.00,1419.00,1023.00,1143.00,,,,,,,,,,,,1,1,2,,-2384,16088,-36,34,126,-162
36.931,36.89,-3.26,-4.96,1.94,-5.67,1.87,-2.53,-0.57,-1.51,-0.68,73.00,202.00,160.00,167.00,804.00,1361.00,1050.00,1141.00,,,,,,,,,,,,1,1,2,,-2432,16096,-20,-79,39,-192
36.972,36.95,-3.26,-1.64,-0.86,-0.43,-1.86,-3.31,-0.24,-2.41,-0.20,80.00,191.00,178.00,150.00,801.00,1391.00,1040.00,1167.00,,,,,,,,,,,,1,1,2,,-2460,16004,128,-30,16,-208
37.074,37.00,-3.30,-1.31,-4.53,-3.75,-0.74,-3.91,0.62,-2.77,0.30,97.00,208.00,178.00,166.00,773.00,1392.00,1019.00,1168.00,,,,,,,,,,,,1,1,2,,-2360,16116,136,-129,8,-245
37.094,37.06,-3.27,-6.99,3.67,-8.39,4.35,-2.87,-0.34,-1.69,-0.74,69.00,209.00,147.00,174.00,799.00,1371.00,1057.00,1151.00,,,,,,,,,,,,1,1,2,,-2528,16000,180,-303,72,-434
37.136,37.11,-3.27,5.64,-11.99,0.72,-2.04,-3.15,-0.52,-2.62,-0.39,128.00,193.00,176.00,144.00,811.00,1393.00,1055.00,1183.00,,,,,,,,,,,,1,1,2,,-2552,16116,136,-198,185,-165
37.197,37.17,-3.30,-3.10,-2.95,-3.38,-2.17,-3.89,0.19,-3.07,0.03,92.00,214.00,191.00,170.00,791.00,1407.00,1040.00,1191.00,,,,,,,,,,,,1,1,2,,-2380,16128,228,-266,188,-19
37.258,37.22,-3.32,-6.51,0.55,-8.54,1.29,-3.78,0.08,-2.67,-0.57,81.00,223.00,174.00,190.00,794.00,1405.00,1066.00,1191.00,,,,,,,,,,,,1,1,2,,-2316,16284,140,6,317,-29
37.319,37.28,-3.30,-1.69,-3.43,0.22,-1.55,-2.83,-0.97,-2.02,-0.96,92.00,205.00,173.00,145.00,826.00,1392.00,1076.00,1173.00,,,,,,,,,,,,1,1,2,,-2432,16144,256,-163,386,-140
37.36,37.33,-3.33,0.96,-6.22,-7.87,-1.23,-3.99,0.11,-3.02,0.01,102.00,199.00,197.00,198.00,796.00,1416.00,1040.00,1189.00,,,,,,,,,,,,1,1,2,,-2464,15912,464,204,38,-208
37.421,37.39,-3.34,-6.12,0.64,-8.02,1.11,-3.42,0.17,-2.31,0.07,80.00,219.00,174.00,187.00,785.00,1382.00,1023.00,1154.00,,,,,,,,,,,,1,1,2,,-2504,16272,272,307,87,-73
37.463,37.44,-3.29,-2.43,0.11,-5.68,2.11,-2.37,-0.79,-1.30,-0.92,77.00,192.00,158.00,166.00,811.00,1360.00,1060.00,1139.00,,,,,,,,,,,,1,1,2,,-2416,16064,120,336,192,-65
37.546,37.50,-3.27,1.31,-5.41,0.24,-2.60,-2.96,-0.26,-2.20,-0.25,97.00,192.00,183.00,149.00,797.00,1373.00,1039.00,1159.00,,,,,,,,,,,,1,1,2,,-2264,15960,-136,-344,281,-289
37.629,37.55,-3.30,-4.48,0.32,-3.93,-0.47,-3.78,0.67,-2.40,0.21,79.00,207.00,176.00,166.00,769.00,1383.00,1017.00,1154.00,,,,,,,,,,,,1,1,2,,-2412,16068,336,-511,291,-260
37.65,37.61,-3.27,-7.51,5.52,-8.04,3.62,-2.65,-0.23,-1.54,-0.54,63.00,203.00,152.00,175.00,791.00,1355.00,1043.00,1138.00,,,,,,,,,,,,1,1,2,,-2472,16144,344,84,55,5
37.691,37.66,-3.24,1.32,-4.24,0.35,-1.49,-2.84,-0.44,-2.49,-0.21,91.00,186.00,172.00,144.00,803.00,1373.00,1042.00,1171.00,,,,,,,,,,,,1,1,2,,-2252,16328,348,375,20,46
37.754,37.72,-3.27,-2.34,-3.01,-2.41,-1.80,-3.73,0.30,-2.81,0.04,91.00,208.00,184.00,162.00,784.00,1394.00,1034.00,1178.00,,,,,,,,,,,,1,1,2,,-2368,16400,-28,434,-43,-361
37.795,37.77,-3.28,-4.64,0.38,-6.63,1.97,-3.42,-0.02,-2.31,-0.53,79.00,208.00,162.00,173.00,793.00,1389.00,1057.00,1173.00,,,,,,,,,,,,1,1,2,,-2460,15976,-128,305,-146,-570
37.857,37.83,-3.26,-1.34,-3.94,-4.59,0.50,-2.94,-0.71,-2.45,-0.86,94.00,205.00,169.00,166.00,816.00,1388.00,1079.00,1190.00,,,,,,,,,,,,1,1,3,,-2736,15880,-232,16,-125,-482
37.919,37.88,-3.29,0.41,-7.60,-0.69,-3.64,-3.86,0.01,-3.61,-0.11,111.00,211.00,197.00,159.00,798.00,1412.00,1058.00,1221.00,,,,,,,,,,,,1,1,3,,-2732,15960,-92,-191,-48,-163
38.023,37.94,-3.31,-6.97,-0.40,-8.27,1.09,-3.69,0.17,-2.89,-0.37,86.00,233.00,175.00,189.00,789.00,1397.00,1059.00,1195.00,,,,,,,,,,,,1,1,3,,-2540,16064,76,-150,54,58
38.043,37.99,-3.30,-4.54,-0.12,-7.02,2.33,-3.02,-0.75,-2.45,-1.12,81.00,210.00,160.00,174.00,819.00,1394.00,1094.00,1198.00,,,,,,,,,,,,1,1,3,,-2536,16232,136,-216,247,30
38.085,38.05,-3.32,1.02,-7.97,0.06,-3.80,-3.80,-0.26,-3.71,-0.30,112.00,208.00,196.00,155.00,809.00,1419.00,1071.00,1232.00,,,,,,,,,,,,1,1,3,,-2360,16080,224,-231,335,-57
38.127,38.10,-3.37,-4.27,-2.76,-4.44,-0.61,-4.29,0.46,-3.32,-0.17,93.00,223.00,179.00,170.00,785.00,1419.00,1056.00,1209.00,,,,,,,,,,,,1,1,3,,-2448,16284,-16,-34,135,-284
38.207,38.16,-3.35,-6.21,2.88,-7.91,3.21,-2.92,-0.30,-1.83,-0.73,71.00,207.00,155.00,176.00,798.00,1372.00,1059.00,1157.00,,,,,,,,,,,,1,1,3,,-2492,16128,-64,125,62,-216
38.269,38.21,-3.33,-0.20,-1.80,-7.20,9.64,-3.04,-0.42,-2.36,-0.30,82.00,185.00,108.00,144.00,805.00,1383.00,1045.00,1168.00,,,,,,,,,,,,1,1,3,,-2456,15996,-132,98,-110,-61
38.351,38.27,-3.36,-3.56,-0.67,-3.04,-0.88,-3.91,0.57,-2.59,0.46,82.00,205.00,177.00,162.00,775.00,1394.00,1007.00,1155.00,,,,,,,,,,,,1,1,3,,-2496,16040,-8,24,-11,12
38.372,38.32,-3.34,-7.31,4.32,-6.65,2.44,-3.04,0.06,-1.84,-0.39,67.00,208.00,158.00,171.00,784.00,1365.00,1040.00,1147.00,,,,,,,,,,,,1,1,3,,-2520,16236,4,-247,255,-272
38.412,38.38,-3.31,-3.31,-0.30,-4.18,0.80,-2.69,-0.43,-2.01,-0.49,80.00,201.00,165.00,162.00,800.00,1364.00,1049.00,1158.00,,,,,,,,,,,,1,1,3,,-2488,16100,-152,-227,202,-437
38.473,38.43,-3.33,0.80,-5.99,-0.40,-3.36,-3.70,0.31,-2.54,-0.42,101.00,199.00,193.00,156.00,783.00,1392.00,1055.00,1180.00,,,,,,,,,,,,1,1,3,,-2520,16056,-52,-123,-80,-112
38.535,38.49,-3.32,-5.97,0.59,-7.93,1.19,-3.08,0.10,-2.00,-0.32,80.00,218.00,173.00,186.00,783.00,1366.00,1039.00,1152.00,,,,,,,,,,,,1,1,3,,-2588,16300,284,-107,7,-54
38.577,38.54,-3.27,-2.45,-0.82,-4.37,1.55,-2.33,-0.84,-1.63,-1.05,81.00,197.00,159.00,160.00,813.00,1360.00,1074.00,1158.00,,,,,,,,,,,,1,1,3,,-2456,16160,488,-50,328,-234
38.639,38.60,-3.28,0.96,-6.22,1.26,-3.34,-3.58,0.13,-3.06,-0.08,102.00,199.00,187.00,146.00,789.00,1392.00,1046.00,1194.00,,,,,,,,,,,,1,1,3,,-2404,16116,104,-35,421,-156
38.719,38.65,-3.30,-4.59,0.13,-5.56,0.18,-3.61,0.45,-2.77,-0.04,80.00,209.00,175.00,174.00,776.00,1382.00,1038.00,1179.00,,,,,,,,,,,,1,1,3,,-2340,16080,-116,-20,357,-106
38.739,38.71,-3.28,-7.31,4.32,-7.71,4.00,-2.90,-0.19,-2.14,-0.62,67.00,208.00,148.00,171.00,793.00,1367.00,1059.00,1168.00,,,,,,,,,,,,1,1,3,,-2324,16124,-172,-149,347,-187
38.8,38.76,-3.28,-0.23,-3.72,1.65,-2.35,-3.27,-0.30,-3.51,-0.16,91.00,195.00,176.00,140.00,803.00,1391.00,1059.00,1218.00,,,,,,,,,,,,1,1,3,,-2372,16124,-124,-213,247,-155
38.862,38.82,-3.32,-3.27,-2.69,-4.69,0.64,-4.12,0.64,-3.39,0.24,91.00,214.00,168.00,166.00,775.00,1403.00,1034.00,1199.00,,,,,,,,,,,,1,1,3,,-2540,15984,-20,-163,165,-29
38.922,38.87,-3.32,-7.84,4.23,-8.01,3.37,-3.30,-0.17,-2.45,-0.75,68.00,213.00,154.00,176.00,798.00,1388.00,1072.00,1186.00,,,,,,,,,,,,1,1,3,,-2412,16212,76,-147,160,-129
38.963,38.93,-3.32,-2.81,-2.85,-3.61,-0.26,-3.31,-0.44,-2.99,-0.56,91.00,211.00,173.00,163.00,810.00,1399.00,1072.00,1206.00,,,,,,,,,,,,1,1,3,,-2496,16392,-164,-106,281,-271
39.024,38.98,-3.35,-2.34,-3.01,-1.52,-2.89,-3.84,0.01,-3.08,-0.18,91.00,208.00,192.00,161.00,798.00,1411.00,1052.00,1198.00,,,,,,,,,,,,1,1,3,,-2500,16156,100,-160,142,-250
39.085,39.04,-3.34,-3.91,-2.27,-9.09,1.90,-3.25,0.14,-1.95,-0.39,90.00,217.00,170.00,191.00,784.00,1374.00,1042.00,1152.00,,,,,,,,,,,,1,1,3,,-2372,15852,112,-28,55,-23
39.126,39.09,-3.29,-1.95,-0.99,-5.39,2.13,-2.30,-0.81,-1.39,-0.89,81.00,194.00,157.00,164.00,811.00,1357.00,1060.00,1142.00,,,,,,,,,,,,1,1,3,,-2384,16072,208,-136,127,-9
39.167,39.15,-3.30,2.21,-7.70,1.77,-4.09,-3.47,0.19,-2.89,0.28,108.00,197.00,193.00,146.00,785.00,1384.00,1022.00,1174.00,,,,,,,,,,,,1,1,3,,-2580,16108,164,-142,262,-74
39.228,39.20,-3.31,-5.82,-0.14,-6.22,0.30,-3.61,0.66,-2.05,-0.01,83.00,221.00,176.00,178.00,767.00,1374.00,1023.00,1145.00,,,,,,,,,,,,1,1,3,,-2304,15940,192,-109,223,-123
