Time_Host,Time_Arduino,easingdata,CH1_Oxy,CH1_Deoxy,CH2_Oxy,CH2_Deoxy,CH3_Oxy,CH3_Deoxy,CH4_Oxy,CH4_Deoxy,CH1_PD730,CH1_PD850,CH2_PD730,CH2_PD850,CH3_PD730,CH3_PD850,CH4_PD730,CH4_PD850,Answers,airplane_playstate,trail_times,frameRate,Airplane X,Airplane Y,Correct,Wrong,Slow,AnswerRate,CorrectRate,VFTstates,VFTchoose,VFTCount,Culfstates,ax,ay,az,gx,gy,gz
1.354,0.04,0.00,0.00,0.00,0.00,0.00,0.00,0.00,0.00,0.00,58.00,209.00,590.00,815.00,1051.00,2473.00,738.00,1262.00,,,,,,,,,,,,0,0,0,,-3036,15976,-392,-26,110,-52
1.374,0.10,0.00,0.00,0.00,0.00,0.00,0.00,0.00,0.00,0.00,54.00,228.00,587.00,838.00,1019.00,2474.00,727.00,1211.00,,,,,,,,,,,,0,0,0,,-2956,16128,-360,-6,253,-86
1.394,0.15,0.00,0.00,0.00,0.00,0.00,0.00,0.00,0.00,0.00,33.00,225.00,560.00,843.00,1043.00,2450.00,750.00,1198.00,,,,,,,,,,,,0,0,0,,-2912,15956,-524,-63,254,-65
1.416,0.21,0.00,0.00,0.00,0.00,0.00,0.00,0.00,0.00,0.00,53.00,206.00,582.00,816.00,1052.00,2467.00,746.00,1222.00,,,,,,,,,,,,0,0,0,,-2992,16100,-436,-67,187,-151
1.437,0.26,0.00,0.00,0.00,0.00,0.00,0.00,0.00,0.00,0.00,62.00,229.00,593.00,834.00,1033.00,2482.00,730.00,1230.00,,,,,,,,,,,,0,0,0,,-2976,16012,-464,43,41,-168
1.457,1.06,0.00,0.00,0.00,0.00,0.00,0.00,0.00,0.00,0.00,18.00,224.00,592.00,826.00,1011.00,2473.00,716.00,1216.00,,,,,,,,,,,,0,0,0,,-3044,16088,-464,-92,20,-224
1.478,1.12,0.00,0.00,0.00,0.00,0.00,0.00,0.00,0.00,0.00,32.00,224.00,565.00,839.00,1041.00,2443.00,746.00,1193.00,,,,,,,,,,,,0,0,0,,-3040,16100,-472,32,43,-258
1.539,1.17,0.00,0.00,0.00,0.00,0.00,0.00,0.00,0.00,0.00,49.00,209.00,586.00,820.00,1059.00,2466.00,752.00,1216.00,,,,,,,,,,,,0,0,0,,-3004,15956,-744,62,-12,-199
1.601,1.23,0.00,0.00,0.00,0.00,0.00,0.00,0.00,0.00,0.00,64.00,226.00,640.00,828.00,1043.00,2495.00,738.00,1239.00,,,,,,,,,,,,0,0,0,,-3116,15972,-488,-22,38,-176
1.724,1.28,0.00,0.00,0.00,0.00,0.00,0.00,0.00,0.00,0.00,50.00,255.00,587.00,862.00,1042.00,2477.00,737.00,1216.00,,,,,,,,,,,,0,0,0,,-3104,15912,-552,-82,176,-170
1.744,1.34,0.02,1.34,-2.55,-0.26,0.13,0.40,-0.72,0.77,-1.09,53.00,227.00,587.00,838.00,1073.00,2479.00,772.00,1219.00,,,,,,,,,,,,0,0,0,,-3144,15960,-572,-112,248,-140
1.785,1.39,-0.01,9.49,-12.90,0.84,-1.20,-0.53,0.06,-0.87,0.27,80.00,217.00,618.00,831.00,1046.00,2518.00,739.00,1254.00,,,,,,,,,,,,0,0,0,,-3108,15984,-472,-78,256,-29
1.806,1.45,-0.03,-3.87,0.65,-1.32,0.32,-0.44,0.21,0.07,0.03,49.00,256.00,592.00,869.00,1036.00,2499.00,736.00,1216.00,,,,,,,,,,,,0,0,0,,-3124,16020,-600,-86,296,-18
1.869,1.50,-0.03,-0.84,0.01,-0.88,0.59,-0.04,-0.31,0.34,-0.46,48.00,231.00,579.00,848.00,1058.00,2495.00,752.00,1219.00,,,,,,,,,,,,0,0,0,,-3080,16060,-680,-48,330,-62
1.929,1.56,-0.04,4.61,-6.55,0.02,-0.16,-0.23,-0.30,-0.54,0.11,62.00,222.00,593.00,835.00,1061.00,2513.00,741.00,1243.00,,,,,,,,,,,,0,0,0,,-3008,15812,-444,-8,299,-150
2.01,1.61,-0.07,-1.20,-1.34,-0.96,0.02,-0.70,0.29,-0.85,0.72,52.00,243.00,598.00,864.00,1036.00,2519.00,721.00,1238.00,,,,,,,,,,,,0,0,0,,-2920,16228,-652,-67,275,-209
2.03,1.67,-0.05,-6.07,7.08,-1.82,1.32,0.30,-0.27,0.93,-0.58,36.00,235.00,566.00,863.00,1049.00,2459.00,749.00,1195.00,,,,,,,,,,,,0,0,0,,-2968,15852,-652,-126,109,-150
2.092,1.72,-0.03,6.25,-6.19,0.99,-0.45,0.41,-0.34,0.42,-0.49,59.00,206.00,592.00,810.00,1051.00,2453.00,752.00,1216.00,,,,,,,,,,,,0,0,0,,-2852,16044,-484,-136,8,16
2.132,1.78,-0.04,4.02,-6.35,0.56,-0.37,-0.30,0.48,-0.41,0.52,62.00,226.00,594.00,822.00,1018.00,2467.00,723.00,1223.00,,,,,,,,,,,,0,0,0,,-2828,16204,-660,-82,146,-219
2.194,1.83,-0.04,-2.09,0.43,-0.53,0.34,0.14,0.05,0.39,0.04,48.00,240.00,583.00,842.00,1034.00,2453.00,731.00,1200.00,,,,,,,,,,,,0,0,0,,-2916,15924,-680,-55,101,-306
2.257,1.89,0.01,1.90,-2.39,0.32,0.12,0.84,-0.82,1.17,-1.13,52.00,221.00,581.00,819.00,1070.00,2442.00,768.00,1201.00,,,,,,,,,,,,0,0,0,,-2996,15944,-504,-36,69,-226
2.297,1.94,0.01,8.33,-12.04,1.32,-1.09,0.01,-0.01,-0.54,0.41,78.00,222.00,609.00,813.00,1040.00,2470.00,729.00,1233.00,,,,,,,,,,,,0,0,0,,-2972,16032,-564,-193,147,-202
2.379,2.00,0.01,-3.23,0.43,-1.00,0.72,0.09,0.28,0.53,0.12,49.00,251.00,576.00,849.00,1022.00,2443.00,726.00,1191.00,,,,,,,,,,,,0,0,0,,-2980,16072,-592,-160,83,-302
2.421,2.05,0.05,0.46,-0.43,-0.20,0.62,0.82,-0.60,1.31,-0.84,48.00,222.00,571.00,825.00,1058.00,2430.00,754.00,1185.00,,,,,,,,,,,,0,0,0,,-3180,16040,-452,17,-31,-255
2.463,2.11,0.06,7.70,-9.56,1.38,-0.80,0.22,-0.07,0.04,0.16,69.00,213.00,599.00,805.00,1039.00,2453.00,731.00,1213.00,,,,,,,,,,,,0,0,0,,-3232,15968,-464,8,22,-255
2.525,2.16,0.05,1.21,-2.85,-0.14,-0.01,-0.25,0.60,0.10,0.58,54.00,230.00,590.00,837.00,1011.00,2455.00,714.00,1197.00,,,,,,,,,,,,0,0,0,,-3212,15996,-448,-39,102,-148
2.587,2.22,0.07,-5.10,7.28,-0.59,0.88,0.43,-0.23,1.15,-0.51,35.00,225.00,567.00,832.00,1044.00,2443.00,743.00,1182.00,,,,,,,,,,,,0,0,0,,-3056,16056,-620,-72,279,-130
2.65,2.27,0.08,8.45,-6.61,0.86,-0.41,0.28,-0.37,-0.40,0.21,58.00,191.00,592.00,813.00,1055.00,2467.00,735.00,1233.00,,,,,,,,,,,,0,0,0,,-3008,15992,-460,-102,149,-57
2.754,2.33,0.05,0.94,-3.10,0.09,-0.49,-0.48,0.53,-0.38,0.66,55.00,234.00,603.00,840.00,1019.00,2482.00,717.00,1217.00,,,,,,,,,,,,0,0,0,,-3024,16032,-588,-36,148,-81
2.773,2.38,0.05,-3.88,3.06,-0.96,0.71,-0.00,-0.01,0.61,-0.30,43.00,240.00,576.00,848.00,1040.00,2471.00,742.00,1201.00,,,,,,,,,,,,0,0,0,,-2952,15816,-512,76,132,-222
2.813,2.44,0.06,1.35,-2.90,-0.22,0.02,0.28,-0.58,0.58,-0.69,54.00,229.00,590.00,839.00,1067.00,2481.00,758.00,1215.00,,,,,,,,,,,,0,0,0,,-3048,16224,-760,-28,82,-266
2.876,2.49,0.05,9.38,-12.39,0.84,-0.93,-0.07,-0.02,-0.47,0.61,78.00,215.00,609.00,825.00,1042.00,2478.00,720.00,1223.00,,,,,,,,,,,,0,0,0,,-3168,15892,-428,-171,152,-271
2.918,2.55,0.06,-1.70,-0.45,-0.76,0.55,0.23,0.23,0.71,-0.01,50.00,242.00,579.00,845.00,1022.00,2432.00,729.00,1187.00,,,,,,,,,,,,0,0,0,,-3088,15924,-592,-117,143,-195
2.98,2.60,0.11,0.90,-0.58,0.20,0.48,1.06,-0.67,1.86,-1.34,48.00,219.00,571.00,815.00,1057.00,2411.00,767.00,1175.00,,,,,,,,,,,,0,0,0,,-3024,15956,-532,-132,185,-200
3.021,2.66,0.12,10.05,-12.85,1.76,-0.99,0.31,-0.06,0.65,-0.39,79.00,212.00,601.00,797.00,1037.00,2444.00,745.00,1202.00,,,,,,,,,,,,0,0,0,,-3000,15824,-356,-168,183,-51
3.123,2.71,0.13,-3.14,1.98,0.04,0.44,0.28,0.38,0.80,0.42,45.00,240.00,574.00,821.00,1013.00,2418.00,711.00,1169.00,,,,,,,,,,,,0,0,0,,-3012,16020,-780,-121,245,-189
3.143,2.77,0.16,-0.04,2.21,0.11,0.84,0.83,0.01,1.71,-0.48,42.00,211.00,561.00,810.00,1023.00,2389.00,734.00,1155.00,,,,,,,,,,,,0,0,0,,-2972,16212,-548,-194,174,-104
3.184,2.82,0.19,6.90,-6.40,0.92,0.01,0.76,-0.25,0.88,-0.15,59.00,202.00,578.00,802.00,1039.00,2413.00,732.00,1183.00,,,,,,,,,,,,0,0,0,,-2908,16136,-652,-157,79,-207
3.244,2.88,0.18,1.44,-1.88,0.81,-0.14,0.01,0.58,0.46,0.77,51.00,222.00,584.00,809.00,1007.00,2431.00,702.00,1174.00,,,,,,,,,,,,0,0,0,,-3052,16000,-680,-56,11,-260
3.305,2.93,0.22,-9.02,13.39,-0.31,1.04,0.96,-0.34,1.56,-0.25,27.00,223.00,559.00,819.00,1040.00,2399.00,727.00,1155.00,,,,,,,,,,,,0,0,0,,-3000,16000,-448,-13,25,-215
3.346,2.99,0.24,5.16,-3.84,1.27,-0.26,0.64,-0.33,0.95,-0.24,53.00,202.00,583.00,797.00,1046.00,2430.00,735.00,1183.00,,,,,,,,,,,,0,0,0,,-3108,16052,-436,-90,151,-228
3.407,3.04,0.24,6.67,-8.40,0.81,-0.42,0.22,-0.07,0.23,0.38,66.00,215.00,593.00,815.00,1039.00,2453.00,720.00,1197.00,,,,,,,,,,,,0,0,0,,-3040,16028,-452,-105,124,-176
3.488,3.10,0.24,-1.38,-0.93,-0.80,0.56,0.21,0.22,0.85,0.09,51.00,242.00,579.00,846.00,1023.00,2435.00,723.00,1177.00,,,,,,,,,,,,0,0,0,,-2964,16056,-408,-93,101,-161
3.508,3.15,0.26,1.39,-1.12,0.46,-0.28,0.71,-0.65,1.55,-0.94,49.00,218.00,592.00,823.00,1063.00,2444.00,755.00,1177.00,,,,,,,,,,,,0,0,0,,-3148,16028,-420,-56,114,-167
3.57,3.21,0.25,9.74,-12.75,0.98,-1.03,-0.07,-0.02,-0.24,0.51,79.00,214.00,611.00,823.00,1042.00,2478.00,721.00,1215.00,,,,,,,,,,,,0,0,0,,-2984,15844,-528,11,170,-195
3.63,3.26,0.23,-2.96,0.35,-0.82,0.38,-0.05,0.31,0.59,0.26,49.00,249.00,585.00,851.00,1023.00,2454.00,720.00,1184.00,,,,,,,,,,,,0,0,0,,-3020,16208,-616,-72,133,-246
3.672,3.32,0.27,1.08,0.56,-0.08,0.58,1.03,-0.46,1.95,-0.95,45.00,211.00,571.00,822.00,1046.00,2401.00,750.00,1159.00,,,,,,,,,,,,0,0,0,,-3084,15924,-596,-130,83,-234
3.734,3.37,0.29,6.41,-6.24,1.67,-0.24,0.64,0.08,0.75,0.33,59.00,205.00,578.00,784.00,1023.00,2403.00,715.00,1174.00,,,,,,,,,,,,0,0,0,,-3176,16020,-608,-125,18,-173
3.796,3.43,0.30,1.89,-2.03,1.09,-0.14,0.38,0.60,1.00,0.64,51.00,219.00,581.00,800.00,999.00,2394.00,700.00,1153.00,,,,,,,,,,,,0,0,0,,-3124,16020,-468,-136,85,-190
3.856,3.48,0.34,-4.50,9.32,0.16,1.19,1.28,-0.14,2.14,-0.39,31.00,208.00,550.00,801.00,1023.00,2357.00,725.00,1133.00,,,,,,,,,,,,0,0,0,,-2980,16000,-480,-74,150,-247
3.917,3.54,0.39,8.97,-6.78,2.10,-0.26,1.21,-0.38,1.58,-0.18,58.00,188.00,574.00,771.00,1038.00,2379.00,724.00,1152.00,,,,,,,,,,,,0,0,0,,-3048,16068,-620,-91,53,-187
3.978,3.59,0.39,3.57,-2.59,1.60,-0.47,0.46,0.60,1.08,0.59,51.00,208.00,586.00,791.00,998.00,2387.00,701.00,1151.00,,,,,,,,,,,,0,0,0,,-3088,15912,-484,-139,99,-170
4.04,3.65,0.42,-2.28,4.81,0.37,0.78,0.93,0.13,1.46,0.09,38.00,215.00,560.00,803.00,1015.00,2373.00,715.00,1149.00,,,,,,,,,,,,0,0,0,,-2984,16068,-508,-121,154,-160
4.061,3.70,0.46,2.59,-1.14,1.48,-0.02,1.21,-0.42,2.17,-0.83,48.00,208.00,573.00,785.00,1040.00,2381.00,742.00,1145.00,,,,,,,,,,,,0,0,0,,-3180,15980,-488,-95,55,-210
4.123,3.76,0.46,10.67,-13.06,2.28,-1.29,0.42,0.30,0.54,0.30,79.00,208.00,605.00,787.00,1015.00,2410.00,719.00,1185.00,,,,,,,,,,,,0,0,0,,-3108,15976,-444,-41,21,-143
4.225,3.81,0.46,-1.82,0.34,0.13,0.54,0.58,0.28,1.47,0.04,48.00,238.00,570.00,816.00,1013.00,2396.00,717.00,1150.00,,,,,,,,,,,,0,0,0,,-3144,15992,-268,-102,128,-140
4.245,3.87,0.51,2.59,-1.14,0.41,0.67,1.34,-0.66,2.30,-1.12,48.00,208.00,563.00,804.00,1051.00,2384.00,752.00,1148.00,,,,,,,,,,,,0,0,0,,-3084,15968,-480,-70,129,-182
4.287,3.92,0.50,12.99,-14.07,2.12,-0.96,0.44,0.15,0.87,0.16,80.00,195.00,596.00,785.00,1023.00,2418.00,720.00,1174.00,,,,,,,,,,,,0,0,0,,-3036,16000,-448,-58,36,-134
4.328,3.98,0.49,0.61,-0.48,0.29,0.26,0.23,0.43,1.17,0.30,48.00,221.00,577.00,817.00,1011.00,2419.00,711.00,1156.00,,,,,,,,,,,,0,0,0,,-3092,16012,-344,-13,75,-162
4.411,4.03,0.51,-2.35,3.89,-0.13,0.79,0.88,-0.31,1.71,-0.48,40.00,221.00,565.00,819.00,1040.00,2405.00,734.00,1155.00,,,,,,,,,,,,0,0,0,,-3148,15936,-492,-37,91,-134
4.472,4.09,0.51,4.53,-2.92,1.54,-0.39,0.59,-0.33,0.80,0.01,51.00,202.00,584.00,791.00,1047.00,2435.00,727.00,1182.00,,,,,,,,,,,,0,0,0,,-3024,15920,-480,-53,111,-211
4.513,4.14,0.48,4.22,-5.81,0.52,-0.26,-0.23,0.61,0.29,0.67,60.00,221.00,591.00,821.00,1010.00,2452.00,708.00,1185.00,,,,,,,,,,,,0,0,0,,-3036,16060,-372,-79,181,-109
4.594,4.20,0.49,-6.20,8.73,-0.34,0.96,0.83,-0.16,1.73,-0.30,33.00,226.00,562.00,822.00,1033.00,2401.00,727.00,1149.00,,,,,,,,,,,,0,0,0,,-2976,15952,-312,-52,114,-313
4.615,4.25,0.53,2.91,-1.25,1.43,-0.03,1.18,-0.41,1.83,-0.49,48.00,206.00,574.00,787.00,1040.00,2383.00,733.00,1150.00,,,,,,,,,,,,0,0,0,,-3236,15980,-348,-61,36,-197
4.677,4.31,0.53,8.00,-9.12,1.85,-0.74,0.56,0.21,0.73,0.34,67.00,208.00,592.00,789.00,1017.00,2402.00,715.00,1175.00,,,,,,,,,,,,0,0,0,,-3108,16092,-340,-89,125,-152
4.719,4.36,0.55,2.23,-4.51,0.16,0.49,0.90,0.26,1.81,-0.13,58.00,231.00,571.00,816.00,1008.00,2367.00,719.00,1140.00,,,,,,,,,,,,0,0,0,,-3200,16028,-368,-57,133,-213
4.779,4.42,0.61,3.55,-1.47,1.37,0.25,1.77,-0.84,2.60,-1.08,48.00,202.00,566.00,783.00,1053.00,2355.00,746.00,1133.00,,,,,,,,,,,,0,0,0,,-3184,15884,-456,-9,182,-69
4.84,4.47,0.61,13.16,-14.13,2.47,-0.95,0.69,0.21,0.86,0.40,80.00,194.00,592.00,774.00,1015.00,2390.00,711.00,1167.00,,,,,,,,,,,,0,0,0,,-3124,15916,-436,-102,154,-126
4.902,4.53,0.62,-1.04,0.47,0.59,0.32,0.82,0.38,1.68,0.23,47.00,230.00,572.00,806.00,1003.00,2367.00,707.00,1135.00,,,,,,,,,,,,0,0,0,,-3012,16056,-504,-65,194,-159
4.965,4.58,0.66,0.19,2.57,1.61,-0.15,1.32,-0.15,2.23,-0.42,41.00,207.00,576.00,784.00,1023.00,2354.00,725.00,1130.00,,,,,,,,,,,,0,0,0,,-3104,15940,-632,19,75,-73
5.027,4.64,0.68,10.05,-8.38,2.44,-0.47,1.15,-0.36,1.61,-0.06,62.00,188.00,577.00,765.00,1038.00,2383.00,719.00,1147.00,,,,,,,,,,,,0,0,0,,-3160,16044,-360,0,30,-129
5.069,4.69,0.66,4.34,-3.91,1.09,0.18,0.30,0.70,1.21,0.76,54.00,209.00,571.00,793.00,995.00,2395.00,693.00,1140.00,,,,,,,,,,,,0,0,0,,-3132,15992,-284,-65,184,-114
5.13,4.75,0.68,-6.11,10.46,0.07,1.08,1.03,-0.05,2.31,-0.58,30.00,215.00,554.00,806.00,1023.00,2375.00,730.00,1131.00,,,,,,,,,,,,0,0,0,,-3048,15992,-492,-111,210,-112
5.192,4.80,0.70,7.66,-6.02,2.09,-0.38,1.04,-0.43,1.56,-0.25,57.00,194.00,578.00,774.00,1044.00,2398.00,727.00,1155.00,,,,,,,,,,,,0,0,0,,-3084,16016,-600,-110,191,-142
5.232,4.86,0.68,7.26,-8.02,1.06,-0.29,0.34,0.18,0.98,0.13,64.00,208.00,586.00,804.00,1023.00,2425.00,720.00,1170.00,,,,,,,,,,,,0,0,0,,-3100,16052,-584,-48,131,-90
5.335,4.91,0.68,1.51,-3.29,-0.17,0.48,0.68,-0.13,1.16,-0.01,55.00,230.00,575.00,827.00,1034.00,2413.00,723.00,1166.00,,,,,,,,,,,,0,0,0,,-2996,15952,-460,2,165,-148
5.355,4.97,0.70,2.35,-2.54,0.41,0.22,1.06,-0.81,1.79,-0.95,52.00,218.00,577.00,814.00,1065.00,2420.00,752.00,1166.00,,,,,,,,,,,,0,0,0,,-2992,15996,-492,-37,136,-90
5.396,5.02,0.67,9.64,-12.95,1.35,-1.13,0.10,-0.01,-0.10,0.49,80.00,216.00,610.00,813.00,1038.00,2461.00,720.00,1209.00,,,,,,,,,,,,0,0,0,,-3012,16068,-468,-10,118,-110
5.457,5.08,0.65,-0.29,-2.69,-1.02,0.89,0.19,0.05,0.70,0.24,55.00,243.00,571.00,846.00,1033.00,2448.00,719.00,1179.00,,,,,,,,,,,,0,0,0,,-3052,16064,-544,-61,194,-8
5.5,5.13,0.66,4.79,-6.31,-0.35,0.57,0.85,-0.65,2.00,-1.09,61.00,219.00,574.00,831.00,1060.00,2430.00,755.00,1161.00,,,,,,,,,,,,0,0,0,,-2988,16052,-516,-108,88,-179
5.54,5.19,0.67,8.55,-9.03,1.76,-0.62,0.87,-0.32,1.01,0.14,66.00,203.00,589.00,789.00,1041.00,2407.00,719.00,1168.00,,,,,,,,,,,,0,0,0,,-2996,15940,-360,-82,115,-123
5.621,5.24,0.65,1.36,-0.73,1.09,-0.04,0.31,0.55,1.19,0.39,48.00,216.00,578.00,798.00,1003.00,2404.00,707.00,1152.00,,,,,,,,,,,,0,0,0,,-3052,16000,-344,-9,62,-97
5.704,5.30,0.67,-2.37,6.36,0.67,0.72,1.12,-0.08,2.08,-0.40,35.00,207.00,559.00,795.00,1023.00,2368.00,726.00,1136.00,,,,,,,,,,,,0,0,0,,-3128,16120,-392,17,108,-140
5.724,5.35,0.69,8.17,-6.19,2.46,-0.44,1.01,-0.26,1.35,-0.08,57.00,191.00,576.00,764.00,1035.00,2390.00,723.00,1159.00,,,,,,,,,,,,0,0,0,,-3104,16008,-424,70,253,-107
5.765,5.41,0.67,3.25,-2.12,1.71,-0.72,0.34,0.53,0.87,0.74,50.00,208.00,593.00,793.00,1004.00,2403.00,698.00,1156.00,,,,,,,,,,,,0,0,0,,-2996,16040,-496,-29,148,-130
5.825,5.46,0.68,-2.28,4.81,-0.03,1.05,0.90,-0.01,1.51,-0.05,38.00,215.00,556.00,810.00,1023.00,2384.00,720.00,1151.00,,,,,,,,,,,,0,0,0,,-3008,16108,-596,-48,135,-152
5.887,5.52,0.71,3.57,-2.23,1.46,-0.07,1.26,-0.54,2.00,-0.80,50.00,206.00,575.00,787.00,1046.00,2384.00,743.00,1152.00,,,,,,,,,,,,0,0,0,,-3056,16060,-556,97,61,-165
5.927,5.57,0.70,5.94,-6.08,1.85,-1.08,0.41,0.19,0.48,0.30,59.00,208.00,603.00,796.00,1021.00,2418.00,720.00,1188.00,,,,,,,,,,,,0,0,0,,-3080,15932,-624,132,60,-202
5.989,5.63,0.69,-1.96,0.39,-0.08,0.35,0.54,0.20,1.32,0.04,48.00,239.00,578.00,827.00,1018.00,2405.00,719.00,1157.00,,,,,,,,,,,,0,0,0,,-3076,16032,-556,66,100,-133
6.071,5.68,0.72,0.81,1.49,0.51,0.44,1.32,-0.89,2.26,-1.16,43.00,208.00,569.00,806.00,1065.00,2401.00,754.00,1151.00,,,,,,,,,,,,0,0,0,,-3092,16008,-704,-74,86,-164
6.132,5.74,0.71,11.19,-13.47,1.83,-0.95,0.50,-0.18,0.20,0.39,80.00,206.00,599.00,794.00,1040.00,2433.00,720.00,1198.00,,,,,,,,,,,,0,0,0,,-3136,16004,-552,-84,173,-157
6.152,5.79,0.68,2.22,-3.19,0.42,0.02,0.09,0.44,0.89,0.28,54.00,223.00,583.00,818.00,1013.00,2432.00,715.00,1169.00,,,,,,,,,,,,0,0,0,,-3092,16008,-504,-50,198,-147
6.212,5.85,0.68,0.18,1.70,-0.05,0.66,0.72,-0.23,1.91,-0.67,43.00,212.00,568.00,819.00,1039.00,2416.00,739.00,1152.00,,,,,,,,,,,,0,0,0,,-3120,15976,-700,-59,156,-146
6.273,5.90,0.67,6.95,-7.04,1.53,-0.60,0.48,-0.33,0.85,-0.18,61.00,205.00,591.00,796.00,1049.00,2445.00,734.00,1186.00,,,,,,,,,,,,0,0,0,,-3052,16096,-676,-5,91,-165
6.313,5.96,0.63,5.12,-7.31,0.31,-0.22,-0.21,0.40,0.24,0.74,64.00,222.00,592.00,827.00,1021.00,2464.00,706.00,1185.00,,,,,,,,,,,,0,0,0,,-3056,15988,-736,-36,127,-114
6.374,6.01,0.63,-2.83,3.59,-1.05,0.93,0.69,-0.29,1.52,-0.51,41.00,227.00,570.00,846.00,1043.00,2423.00,738.00,1165.00,,,,,,,,,,,,0,0,0,,-3012,16080,-600,-164,99,-262
6.435,6.07,0.65,6.50,-5.63,1.38,-0.24,0.96,-0.44,1.43,-0.48,57.00,201.00,581.00,793.00,1046.00,2406.00,738.00,1168.00,,,,,,,,,,,,0,0,0,,-3192,16064,-484,-193,62,-178
6.477,6.12,0.63,7.85,-9.61,1.56,-0.83,0.32,0.26,0.45,0.30,69.00,212.00,598.00,800.00,1019.00,2422.00,720.00,1189.00,,,,,,,,,,,,0,0,0,,-3040,15932,-488,-108,48,-149
6.538,6.18,0.63,-0.79,-0.39,-0.12,0.49,0.52,0.30,1.49,-0.04,49.00,233.00,574.00,825.00,1013.00,2400.00,720.00,1152.00,,,,,,,,,,,,0,0,0,,-3104,16012,-476,-153,152,-166
6.601,6.23,0.66,2.12,-0.99,0.85,0.26,1.37,-0.70,2.20,-1.06,48.00,211.00,571.00,799.00,1053.00,2384.00,751.00,1151.00,,,,,,,,,,,,0,0,0,,-2984,15952,-528,-62,206,-66
6.663,6.29,0.65,10.87,-13.36,2.05,-1.09,0.45,0.14,0.29,0.36,80.00,208.00,601.00,790.00,1023.00,2417.00,720.00,1195.00,,,,,,,,,,,,0,0,0,,-3176,16040,-616,-109,169,-185
6.746,6.34,0.64,-1.54,0.25,0.16,0.17,0.43,0.42,1.18,0.21,48.00,236.00,581.00,823.00,1008.00,2401.00,714.00,1158.00,,,,,,,,,,,,0,0,0,,-3020,16032,-716,-141,136,-114
6.809,6.40,0.67,2.09,-0.59,0.25,0.82,1.18,-0.41,2.10,-0.66,47.00,209.00,560.00,806.00,1040.00,2383.00,736.00,1143.00,,,,,,,,,,,,0,0,0,,-3008,16092,-448,-54,128,-149
6.829,6.45,0.68,6.37,-6.53,1.68,-0.31,0.81,-0.28,1.01,0.12,60.00,207.00,580.00,785.00,1040.00,2410.00,720.00,1169.00,,,,,,,,,,,,0,0,0,,-3020,15976,-508,-22,88,-252
6.871,6.51,0.65,1.24,-1.07,0.63,-0.21,0.19,0.50,0.69,0.61,49.00,219.00,588.00,816.00,1008.00,2419.00,705.00,1168.00,,,,,,,,,,,,0,0,0,,-3164,16032,-544,-28,95,-163
6.933,6.56,0.66,-2.05,3.79,-0.39,0.94,0.88,-0.33,1.75,-0.44,40.00,219.00,563.00,824.00,1041.00,2406.00,732.00,1152.00,,,,,,,,,,,,0,0,0,,-3076,16020,-684,-104,147,-171
6.995,6.62,0.67,5.14,-4.17,1.06,-0.19,0.73,-0.49,0.93,-0.19,54.00,204.00,583.00,802.00,1053.00,2431.00,733.00,1182.00,,,,,,,,,,,,0,0,0,,-2988,15956,-600,-73,135,-196
7.057,6.67,0.64,5.27,-7.36,0.64,-0.49,0.10,0.08,0.24,0.43,64.00,221.00,597.00,822.00,1033.00,2455.00,718.00,1195.00,,,,,,,,,,,,0,0,0,,-3068,16052,-484,-25,111,-201
7.098,6.73,0.62,-1.62,-0.11,-0.71,0.44,0.32,-0.12,0.92,-0.01,49.00,239.00,582.00,846.00,1040.00,2447.00,726.00,1177.00,,,,,,,,,,,,0,0,0,,-3104,15940,-620,-41,103,-190
7.16,6.78,0.62,1.46,-2.24,0.02,0.06,0.58,-0.61,1.29,-1.00,52.00,224.00,586.00,830.00,1063.00,2454.00,761.00,1191.00,,,,,,,,,,,,0,0,0,,-3088,16016,-572,-38,80,-172
7.202,6.84,0.58,10.39,-13.88,0.84,-1.29,-0.21,-0.06,-0.31,0.41,83.00,215.00,621.00,833.00,1047.00,2495.00,726.00,1222.00,,,,,,,,,,,,0,0,0,,-3008,15928,-408,-54,147,-280
7.243,6.89,0.54,-2.25,-2.03,-1.39,0.35,-0.16,0.04,0.60,-0.10,55.00,258.00,592.00,871.00,1040.00,2483.00,734.00,1195.00,,,,,,,,,,,,0,0,0,,-3204,16232,-704,-91,149,-239
7.305,6.95,0.56,0.61,-0.48,-0.12,0.27,0.94,-0.78,1.85,-1.09,48.00,221.00,581.00,830.00,1066.00,2430.00,757.00,1168.00,,,,,,,,,,,,0,0,0,,-3128,15900,-476,-176,84,-247
7.367,7.00,0.56,9.18,-10.33,1.76,-0.90,0.58,-0.21,0.46,0.22,70.00,205.00,598.00,795.00,1040.00,2427.00,723.00,1191.00,,,,,,,,,,,,0,0,0,,-3192,15984,-392,-118,53,-209
7.408,7.06,0.54,1.77,-2.70,0.50,-0.00,0.13,0.52,0.85,0.38,53.00,224.00,583.00,816.00,1008.00,2423.00,712.00,1168.00,,,,,,,,,,,,0,0,0,,-3148,16084,-504,-109,135,-188
7.47,7.11,0.56,-1.67,4.60,-0.21,0.94,0.99,-0.31,1.81,-0.56,38.00,211.00,561.00,818.00,1038.00,2395.00,736.00,1153.00,,,,,,,,,,,,0,0,0,,-3180,15864,-464,-56,115,-205
7.533,7.17,0.58,8.59,-7.59,1.96,-0.43,0.94,-0.50,1.29,-0.23,61.00,195.00,581.00,779.00,1050.00,2412.00,730.00,1167.00,,,,,,,,,,,,0,0,0,,-3156,16060,-572,-28,126,-157
7.594,7.22,0.56,3.40,-4.26,0.99,-0.45,0.17,0.49,0.53,0.69,56.00,219.00,592.00,810.00,1009.00,2421.00,704.00,1173.00,,,,,,,,,,,,0,0,0,,-3180,15996,-592,-160,123,-97
7.636,7.28,0.57,-5.51,6.89,-0.41,1.01,0.65,-0.12,1.34,-0.12,36.00,231.00,561.00,823.00,1034.00,2415.00,725.00,1161.00,,,,,,,,,,,,0,0,0,,-3224,15980,-424,-125,188,-150
7.699,7.33,0.59,0.90,-0.58,0.68,0.19,1.01,-0.61,1.74,-0.93,48.00,219.00,575.00,806.00,1055.00,2413.00,752.00,1168.00,,,,,,,,,,,,0,0,0,,-3212,15976,-668,-20,41,-150
7.76,7.39,0.57,6.96,-10.36,1.24,-0.97,0.24,-0.00,0.17,0.35,73.00,224.00,606.00,813.00,1035.00,2447.00,722.00,1201.00,,,,,,,,,,,,0,0,0,,-3152,15928,-448,-52,30,-96
7.802,7.44,0.56,-0.29,-2.69,-0.93,0.67,0.46,-0.00,1.11,-0.09,55.00,243.00,577.00,848.00,1031.00,2426.00,727.00,1171.00,,,,,,,,,,,,0,0,0,,-3208,15992,-416,-118,214,-171
7.904,7.50,0.59,1.51,-0.78,0.02,0.38,1.05,-0.84,1.78,-1.09,48.00,215.00,576.00,823.00,1067.00,2423.00,758.00,1171.00,,,,,,,,,,,,0,0,0,,-3020,16000,-496,-124,196,-104
7.924,7.55,0.57,10.39,-13.88,1.56,-1.44,0.13,-0.09,0.06,0.26,83.00,215.00,618.00,813.00,1042.00,2463.00,727.00,1209.00,,,,,,,,,,,,0,0,0,,-3128,16000,-548,-113,107,-116
7.964,7.61,0.54,-0.14,-1.34,-0.11,0.07,0.01,0.14,0.61,0.20,51.00,233.00,587.00,834.00,1031.00,2459.00,722.00,1185.00,,,,,,,,,,,,0,0,0,,-3036,15988,-472,-45,144,-216
8.047,7.66,0.54,0.31,-0.38,-0.79,0.81,0.62,-0.45,1.55,-0.72,48.00,223.00,571.00,840.00,1053.00,2439.00,746.00,1170.00,,,,,,,,,,,,0,0,0,,-3048,16020,-548,-30,162,-152
8.088,7.72,0.53,7.00,-7.65,0.72,-0.33,0.19,-0.36,0.26,-0.06,63.00,208.00,591.00,816.00,1056.00,2475.00,737.00,1210.00,,,,,,,,,,,,0,0,0,,-3096,15984,-524,-16,161,-129
8.128,7.77,0.47,3.68,-6.82,-0.46,-0.03,-0.51,0.46,0.01,0.45,64.00,232.00,594.00,848.00,1023.00,2489.00,720.00,1205.00,,,,,,,,,,,,0,0,0,,-3076,15956,-644,33,105,-206
8.251,7.83,0.47,-5.32,4.89,-1.49,0.92,0.33,-0.56,-0.15,1.18,40.00,242.00,575.00,861.00,1065.00,2475.00,694.00,1189.00,,,,,,,,,,,,0,0,0,,-3192,16168,-604,-85,193,-82
8.272,7.88,0.47,5.57,-7.46,0.25,-0.24,0.56,-0.65,0.97,-0.65,64.00,219.00,593.00,829.00,1066.00,2459.00,751.00,1195.00,,,,,,,,,,,,0,0,0,,-3104,16036,-468,-100,119,-249
8.292,7.94,0.46,8.90,-11.51,-1.05,0.02,0.24,-0.09,0.11,0.06,75.00,214.00,599.00,867.00,1040.00,2453.00,734.00,1213.00,,,,,,,,,,,,0,0,0,,-2996,15956,-572,-33,103,-141
8.354,7.99,0.46,-2.05,-0.70,-0.73,0.63,0.40,0.16,0.74,0.13,51.00,247.00,576.00,842.00,1023.00,2421.00,723.00,1181.00,,,,,,,,,,,,0,0,0,,-3164,16076,-596,20,186,-119
8.416,8.05,0.47,3.72,-4.03,0.38,0.16,0.68,-0.57,1.58,-1.15,55.00,215.00,579.00,816.00,1059.00,2442.00,763.00,1182.00,,,,,,,,,,,,0,0,0,,-3140,16072,-540,-39,186,-165
8.458,8.10,0.46,9.79,-13.00,1.73,-1.13,0.37,-0.12,-0.03,0.21,80.00,215.00,606.00,801.00,1039.00,2442.00,730.00,1215.00,,,,,,,,,,,,0,0,0,,-3080,16048,-588,-39,200,-56
8.52,8.16,0.45,-2.32,-0.61,-0.51,0.50,0.31,0.28,0.10,0.47,51.00,249.00,578.00,838.00,1018.00,2422.00,718.00,1200.00,,,,,,,,,,,,0,0,0,,-3132,15876,-596,-117,115,-171
8.582,8.21,0.48,1.51,-0.78,0.04,0.66,0.96,-0.34,1.61,-0.62,48.00,215.00,567.00,816.00,1040.00,2399.00,741.00,1164.00,,,,,,,,,,,,0,0,0,,-3100,16136,-564,-67,78,-156
8.623,8.27,0.49,7.48,-7.81,1.40,-0.37,0.65,-0.32,0.53,0.25,63.00,205.00,585.00,795.00,1045.00,2428.00,721.00,1187.00,,,,,,,,,,,,0,0,0,,-3108,16080,-548,20,77,-228
8.684,8.32,0.46,2.22,-3.19,0.41,-0.19,0.02,0.52,0.82,0.21,54.00,223.00,590.00,823.00,1010.00,2434.00,719.00,1175.00,,,,,,,,,,,,0,0,0,,-3144,15924,-476,-13,76,-176
8.748,8.38,0.48,-3.91,5.36,-0.45,0.89,0.74,-0.28,1.55,-0.52,38.00,226.00,565.00,827.00,1041.00,2417.00,738.00,1164.00,,,,,,,,,,,,0,0,0,,-3124,15960,-648,-102,194,-91
8.789,8.43,0.49,5.60,-4.67,1.05,-0.41,0.66,-0.55,0.71,-0.26,55.00,203.00,590.00,807.00,1058.00,2442.00,739.00,1195.00,,,,,,,,,,,,0,0,0,,-2956,15984,-560,-107,220,-160
8.852,8.49,0.47,5.04,-7.85,0.27,-0.40,0.08,-0.05,0.24,0.12,66.00,226.00,598.00,832.00,1041.00,2466.00,730.00,1205.00,,,,,,,,,,,,0,0,0,,-3008,16052,-612,-89,153,-61
8.913,8.54,0.43,0.98,-4.09,-0.98,0.53,-0.22,-0.06,0.83,-0.25,58.00,240.00,582.00,853.00,1047.00,2496.00,737.00,1189.00,,,,,,,,,,,,0,0,0,,-3000,16116,-460,-70,88,-129
9.014,8.60,0.44,2.37,-3.58,0.14,-0.07,0.64,-0.84,1.20,-1.02,55.00,224.00,589.00,829.00,1075.00,2463.00,763.00,1196.00,,,,,,,,,,,,0,0,0,,-3016,15932,-560,16,91,-116
9.035,8.65,0.43,9.77,-14.33,0.92,-1.31,0.10,-0.53,-0.29,0.07,86.00,223.00,621.00,831.00,1068.00,2496.00,739.00,1232.00,,,,,,,,,,,,0,0,0,,-2980,15824,-612,56,96,-140
9.076,8.71,0.41,-0.45,-4.55,-1.14,0.11,0.04,-0.08,0.53,-0.13,61.00,257.00,597.00,868.00,1043.00,2471.00,736.00,1199.00,,,,,,,,,,,,0,0,0,,-3096,16064,-888,-61,125,-318
9.117,8.76,0.44,0.17,-0.33,-0.26,0.47,1.00,-0.74,1.57,-1.19,48.00,224.00,576.00,830.00,1062.00,2421.00,765.00,1184.00,,,,,,,,,,,,0,0,0,,-3084,15812,-500,-160,116,-169
9.18,8.82,0.45,9.90,-10.83,1.64,-0.67,0.67,-0.29,0.59,-0.02,71.00,202.00,592.00,794.00,1043.00,2424.00,731.00,1193.00,,,,,,,,,,,,0,0,0,,-3004,15968,-772,-129,14,-171
9.243,8.87,0.43,1.15,-1.78,0.41,0.12,0.13,0.47,0.52,0.51,51.00,224.00,580.00,816.00,1011.00,2427.00,711.00,1179.00,,,,,,,,,,,,0,0,0,,-3028,16080,-504,-131,7,-218
9.369,8.93,0.44,-1.55,4.09,-0.17,0.93,0.65,0.15,1.78,-0.55,39.00,213.00,561.00,817.00,1019.00,2398.00,736.00,1154.00,,,,,,,,,,,,0,0,0,,-3212,16048,-608,-36,80,-133
9.39,8.98,0.46,7.17,-6.80,1.44,-0.19,0.86,-0.48,0.29,0.51,60.00,202.00,579.00,790.00,1050.00,2418.00,714.00,1190.00,,,,,,,,,,,,0,0,0,,-3116,15944,-624,15,123,-140
9.41,9.04,0.45,6.48,-7.76,0.74,-0.27,0.15,0.35,0.45,0.46,64.00,213.00,589.00,814.00,1017.00,2432.00,714.00,1184.00,,,,,,,,,,,,0,0,0,,-2924,15964,-692,-83,132,-123
9.473,9.09,0.46,-2.10,3.34,0.12,0.64,0.72,-0.23,1.03,0.08,41.00,222.00,567.00,814.00,1039.00,2416.00,721.00,1169.00,,,,,,,,,,,,0,0,0,,-3004,16028,-652,-53,114,-204
9.535,9.15,0.50,3.88,-3.41,0.94,-0.06,1.15,-0.91,1.51,-0.78,53.00,210.00,580.00,803.00,1069.00,2418.00,749.00,1174.00,,,,,,,,,,,,0,0,0,,-3116,16000,-596,-163,27,-164
9.577,9.20,0.49,9.34,-12.84,1.27,-0.92,0.29,-0.11,0.17,0.22,80.00,218.00,604.00,811.00,1040.00,2449.00,727.00,1205.00,,,,,,,,,,,,0,0,0,,-3156,15936,-588,-201,30,-167
9.659,9.26,0.49,-0.18,-2.38,-0.43,0.37,0.51,-0.17,1.01,-0.14,54.00,240.00,581.00,838.00,1039.00,2431.00,730.00,1177.00,,,,,,,,,,,,0,0,0,,-3048,16080,-452,-211,144,-137
9.721,9.31,0.51,1.05,-0.63,0.18,0.33,1.02,-0.90,1.56,-1.12,48.00,218.00,576.00,819.00,1071.00,2430.00,762.00,1182.00,,,,,,,,,,,,0,0,0,,-3072,16096,-476,-99,170,-126
9.742,9.37,0.50,8.90,-11.51,1.14,-0.72,0.26,-0.29,0.22,0.20,75.00,214.00,599.00,811.00,1051.00,2464.00,727.00,1203.00,,,,,,,,,,,,0,0,0,,-3048,16048,-552,-24,131,-152
9.783,9.42,0.52,1.37,-3.24,-0.07,0.06,0.82,-1.08,0.51,0.18,55.00,231.00,587.00,833.00,1086.00,2462.00,724.00,1190.00,,,,,,,,,,,,0,0,0,,-3128,16000,-560,-20,83,-159
9.844,9.48,0.52,-0.08,0.54,-0.69,0.97,0.57,-0.43,1.33,-0.55,46.00,221.00,565.00,833.00,1053.00,2443.00,742.00,1175.00,,,,,,,,,,,,0,0,0,,-3068,16116,-464,-24,103,-175
9.905,9.53,0.50,6.21,-6.48,0.92,-0.58,0.17,-0.40,0.44,-0.17,60.00,208.00,597.00,815.00,1059.00,2480.00,739.00,1205.00,,,,,,,,,,,,0,0,0,,-3024,15964,-592,-79,198,-60
9.967,9.59,0.48,0.86,-1.68,0.35,-0.52,0.02,0.07,0.29,0.36,51.00,226.00,601.00,832.00,1035.00,2463.00,720.00,1195.00,,,,,,,,,,,,0,0,0,,-3100,16080,-516,-196,151,-232
10.029,9.64,0.50,-0.73,2.01,-0.21,0.71,0.83,-0.29,1.62,-0.37,43.00,218.00,568.00,823.00,1040.00,2409.00,731.00,1156.00,,,,,,,,,,,,0,0,0,,-3148,16032,-316,-78,111,-152
10.11,9.70,0.52,3.11,-2.44,0.87,0.10,1.06,-0.65,1.53,-0.69,51.00,211.00,576.00,802.00,1056.00,2410.00,745.00,1170.00,,,,,,,,,,,,0,0,0,,-3108,16024,-672,-17,102,-116
10.132,9.75,0.52,7.35,-8.34,1.64,-0.86,0.51,-0.13,0.27,0.42,65.00,209.00,598.00,798.00,1037.00,2429.00,718.00,1194.00,,,,,,,,,,,,0,0,0,,-3116,16016,-416,-93,138,-255
10.173,9.81,0.53,-1.02,-0.68,0.14,0.34,0.67,0.07,1.37,-0.03,50.00,237.00,576.00,820.00,1023.00,2401.00,721.00,1157.00,,,,,,,,,,,,0,0,0,,-3024,15848,-848,121,-228,16
10.235,9.86,0.57,2.91,-1.25,0.99,-0.04,1.36,-0.85,2.19,-1.08,48.00,206.00,579.00,801.00,1062.00,2395.00,752.00,1152.00,,,,,,,,,,,,0,0,0,,-3000,15920,-636,-23,-1023,298
10.296,9.92,0.58,12.03,-13.05,2.14,-0.93,0.69,-0.23,0.23,0.38,77.00,197.00,595.00,784.00,1039.00,2418.00,720.00,1197.00,,,,,,,,,,,,0,0,0,,-2864,16272,-268,11,-1024,111
10.337,9.97,0.57,2.23,-3.53,0.30,0.29,0.36,0.43,1.22,0.12,55.00,225.00,576.00,816.00,1009.00,2407.00,717.00,1159.00,,,,,,,,,,,,0,0,0,,-3036,16188,64,7,-179,-301
10.4,10.03,0.60,1.18,0.94,0.55,0.66,1.12,-0.35,1.83,-0.49,44.00,208.00,562.00,800.00,1038.00,2385.00,733.00,1150.00,,,,,,,,,,,,0,0,0,,-3164,15908,-416,-159,534,-499
10.482,10.08,0.60,6.82,-4.39,1.79,-0.38,0.67,-0.27,1.01,0.01,53.00,192.00,581.00,783.00,1042.00,2423.00,724.00,1172.00,,,,,,,,,,,,0,0,0,,-3028,15776,-744,-91,282,-157
10.503,10.14,0.58,2.52,-3.29,0.81,-0.33,0.18,0.32,0.73,0.52,54.00,221.00,590.00,813.00,1018.00,2431.00,708.00,1169.00,,,,,,,,,,,,0,0,0,,-2984,16100,-460,-60,-81,-61
10.563,10.19,0.59,-4.07,6.93,-0.28,1.00,0.73,-0.26,1.82,-0.54,35.00,218.00,560.00,819.00,1040.00,2416.00,735.00,1152.00,,,,,,,,,,,,0,0,0,,-3064,16120,-492,-22,110,-217
10.605,10.25,0.59,11.10,-12.97,1.40,-0.28,0.77,-0.57,1.41,-0.47,78.00,204.00,582.00,793.00,1057.00,2433.00,738.00,1169.00,,,,,,,,,,,,0,0,0,,-3072,15796,-384,-40,259,-191
10.668,10.30,0.57,6.33,-7.71,0.91,-0.52,0.17,-0.07,0.31,0.20,64.00,214.00,595.00,814.00,1040.00,2458.00,726.00,1199.00,,,,,,,,,,,,0,0,0,,-3068,15980,-608,-71,179,-204
10.73,10.36,0.56,0.69,-3.68,-0.82,0.50,0.26,-0.22,0.97,-0.15,57.00,240.00,581.00,848.00,1047.00,2459.00,731.00,1179.00,,,,,,,,,,,,0,0,0,,-3112,15944,-672,-49,127,-184
10.771,10.41,0.56,1.54,-1.17,0.02,0.28,0.65,-0.79,1.36,-0.98,49.00,217.00,579.00,825.00,1072.00,2459.00,759.00,1187.00,,,,,,,,,,,,0,0,0,,-3056,15776,-612,-91,95,-102
10.873,10.47,0.54,9.94,-13.05,0.78,-0.78,0.02,-0.21,0.01,0.27,80.00,214.00,605.00,824.00,1051.00,2482.00,727.00,1211.00,,,,,,,,,,,,0,0,0,,-3072,16228,-636,-138,68,-307
10.894,10.52,0.50,-1.07,-0.29,-0.14,0.21,-0.14,0.34,1.14,0.05,49.00,235.00,583.00,832.00,1023.00,2461.00,721.00,1165.00,,,,,,,,,,,,0,0,0,,-3064,16000,-460,-98,94,-181
10.935,10.58,0.54,2.38,-0.28,0.77,0.42,1.25,-0.56,1.99,-0.70,46.00,205.00,567.00,798.00,1047.00,2386.00,739.00,1149.00,,,,,,,,,,,,0,0,0,,-3220,15956,-560,-56,151,-188
10.996,10.63,0.56,6.11,-4.50,1.65,-0.17,0.90,-0.31,0.84,0.33,54.00,198.00,576.00,783.00,1040.00,2404.00,714.00,1170.00,,,,,,,,,,,,0,0,0,,-3040,16020,-348,-91,284,-158
11.057,10.69,0.55,2.93,-1.64,1.11,-0.08,0.45,0.40,0.43,1.29,49.00,208.00,579.00,798.00,1009.00,2401.00,683.00,1159.00,,,,,,,,,,,,0,0,0,,-3128,15916,-576,-52,197,-100
11.098,10.74,0.58,-3.19,8.29,0.10,1.04,1.09,-0.29,1.97,-0.46,32.00,203.00,555.00,806.00,1035.00,2384.00,730.00,1143.00,,,,,,,,,,,,0,0,0,,-3084,15960,-604,-47,157,-131
11.203,10.80,0.60,6.19,-3.47,2.41,-0.62,0.96,-0.34,1.44,-0.33,51.00,192.00,582.00,769.00,1040.00,2399.00,732.00,1163.00,,,,,,,,,,,,0,0,0,,-3108,16100,-444,-128,148,-57
11.245,10.85,0.59,4.96,-4.45,1.63,-0.51,0.44,0.22,0.92,0.27,55.00,207.00,587.00,791.00,1019.00,2413.00,715.00,1168.00,,,,,,,,,,,,0,0,0,,-3036,15960,-524,-93,201,-158
11.266,10.91,0.60,1.44,-1.88,0.30,0.38,0.70,0.06,1.59,-0.26,51.00,222.00,573.00,814.00,1023.00,2399.00,727.00,1154.00,,,,,,,,,,,,0,0,0,,-3124,15976,-544,-77,101,-146
11.327,10.96,0.62,4.67,-3.67,1.10,0.08,1.17,-0.81,1.84,-0.89,53.00,205.00,574.00,795.00,1063.00,2410.00,749.00,1162.00,,,,,,,,,,,,0,0,0,,-3160,16020,-444,-93,101,-114
11.388,11.02,0.61,10.99,-13.17,1.54,-0.67,0.34,-0.09,0.29,0.38,79.00,206.00,593.00,797.00,1038.00,2443.00,719.00,1194.00,,,,,,,,,,,,0,0,0,,-3068,15948,-436,-138,262,-84
11.429,11.07,0.59,-0.38,-1.62,-0.17,0.35,0.28,0.20,1.20,0.03,52.00,237.00,579.00,830.00,1023.00,2430.00,721.00,1163.00,,,,,,,,,,,,0,0,0,,-2968,16044,-464,-159,286,-131
11.49,11.13,0.61,2.15,-1.37,0.31,0.31,0.91,-0.60,1.85,-0.97,49.00,213.00,575.00,815.00,1056.00,2421.00,752.00,1164.00,,,,,,,,,,,,0,0,0,,-3012,16088,-504,-130,178,-151
11.574,11.18,0.60,9.41,-10.67,1.53,-0.70,0.38,-0.23,0.74,0.13,71.00,205.00,594.00,798.00,1045.00,2448.00,723.00,1181.00,,,,,,,,,,,,0,0,0,,-2996,16100,-504,-43,146,-186
11.595,11.24,0.57,1.76,-2.34,0.26,0.08,-0.01,0.30,0.61,0.51,52.00,222.00,583.00,822.00,1023.00,2451.00,710.00,1175.00,,,,,,,,,,,,0,0,0,,-3080,15916,-500,-47,145,-147
11.657,11.29,0.57,-0.35,2.31,-0.31,0.91,0.59,-0.39,1.57,-0.65,42.00,213.00,563.00,822.00,1050.00,2438.00,743.00,1167.00,,,,,,,,,,,,0,0,0,,-2892,16060,-520,-21,117,-136
11.719,11.35,0.55,6.16,-6.77,0.89,-0.26,0.26,-0.40,0.58,-0.07,61.00,210.00,587.00,809.00,1057.00,2471.00,733.00,1195.00,,,,,,,,,,,,0,0,0,,-3084,16080,-500,-42,140,-85
11.76,11.40,0.52,4.05,-6.06,0.15,-0.17,-0.10,0.15,0.28,0.62,61.00,224.00,592.00,831.00,1033.00,2470.00,710.00,1187.00,,,,,,,,,,,,0,0,0,,-2976,16040,-484,-123,66,-238
11.822,11.46,0.53,0.90,-0.58,-0.23,0.89,0.65,-0.23,1.32,-0.32,48.00,219.00,563.00,820.00,1040.00,2422.00,733.00,1168.00,,,,,,,,,,,,0,0,0,,-3148,15920,-468,-76,114,-130
11.884,11.51,0.55,7.35,-8.34,1.13,-0.06,1.01,-0.63,1.74,-0.93,65.00,209.00,578.00,797.00,1056.00,2414.00,752.00,1168.00,,,,,,,,,,,,0,0,0,,-3060,16108,-368,-33,91,-135
11.945,11.57,0.54,10.14,-11.92,1.60,-0.66,0.32,-0.07,0.24,0.27,75.00,206.00,592.00,795.00,1037.00,2443.00,724.00,1200.00,,,,,,,,,,,,0,0,0,,-3180,16180,-616,-33,143,-164
11.987,11.62,0.54,-8.17,9.40,0.19,0.35,0.51,0.21,1.13,0.13,33.00,240.00,575.00,818.00,1018.00,2407.00,718.00,1163.00,,,,,,,,,,,,0,0,0,,-3096,15920,-584,48,150,-110
12.07,11.68,0.57,2.25,-0.64,0.53,0.73,1.23,-0.78,1.99,-1.12,47.00,208.00,560.00,799.00,1060.00,2402.00,756.00,1162.00,,,,,,,,,,,,0,0,0,,-3052,16072,-624,-44,127,-169
12.112,11.73,0.57,13.31,-12.99,2.12,-1.05,0.56,-0.20,0.48,0.30,75.00,187.00,599.00,787.00,1040.00,2429.00,720.00,1188.00,,,,,,,,,,,,0,0,0,,-3080,15948,-580,-82,164,-134
12.173,11.79,0.56,1.76,-2.34,0.90,-0.04,0.27,0.39,1.19,0.13,52.00,222.00,580.00,804.00,1013.00,2419.00,717.00,1160.00,,,,,,,,,,,,0,0,0,,-3024,15984,-448,-1,196,-90
12.195,11.84,0.57,1.90,-0.12,0.29,0.81,0.86,-0.30,1.77,-0.39,46.00,208.00,560.00,805.00,1040.00,2407.00,730.00,1150.00,,,,,,,,,,,,0,0,0,,-2964,16084,-900,54,6,60
12.339,11.90,0.58,8.52,-7.86,1.61,-0.15,0.64,-0.23,0.78,0.17,62.00,197.00,576.00,784.00,1040.00,2423.00,721.00,1178.00,,,,,,,,,,,,0,0,0,,-3016,15956,-580,-55,48,-211
12.36,11.95,0.56,5.51,-6.85,0.72,-0.33,0.21,-0.12,0.50,0.55,62.00,216.00,591.00,816.00,1042.00,2457.00,710.00,1179.00,,,,,,,,,,,,0,0,0,,-2996,15900,-564,-115,180,-112
12.38,12.01,0.56,0.35,-0.77,-0.58,1.14,0.57,-0.18,1.67,-0.51,49.00,225.00,559.00,826.00,1039.00,2427.00,736.00,1158.00,,,,,,,,,,,,0,0,0,,-2976,16040,-484,-204,173,-104
12.422,12.06,0.57,6.22,-7.39,0.63,-0.11,0.74,-0.59,1.36,-0.53,63.00,213.00,585.00,814.00,1059.00,2437.00,741.00,1173.00,,,,,,,,,,,,0,0,0,,-2916,16008,-616,-129,4,-143
12.485,12.12,0.53,7.40,-9.99,0.88,-0.76,-0.08,-0.00,0.01,0.43,71.00,218.00,603.00,820.00,1041.00,2478.00,721.00,1206.00,,,,,,,,,,,,0,0,0,,-3108,16128,-256,-134,35,-142
12.525,12.17,0.51,0.84,-4.05,-1.02,0.54,0.11,-0.03,0.68,0.15,58.00,241.00,582.00,854.00,1039.00,2461.00,723.00,1183.00,,,,,,,,,,,,0,0,0,,-2964,16044,-588,-61,56,-178
12.587,12.23,0.51,4.20,-6.11,-0.26,0.13,0.54,-0.72,1.46,-1.25,61.00,223.00,587.00,838.00,1070.00,2465.00,769.00,1191.00,,,,,,,,,,,,0,0,0,,-2968,16092,-640,-78,100,-130
12.668,12.28,0.49,10.17,-14.24,1.27,-1.19,0.07,-0.21,-0.32,0.67,85.00,219.00,613.00,817.00,1050.00,2477.00,716.00,1214.00,,,,,,,,,,,,0,0,0,,-2944,15972,-464,-149,67,-273
12.689,12.34,0.47,1.25,-4.50,-0.11,0.07,0.00,0.53,1.04,0.16,59.00,240.00,587.00,834.00,1010.00,2435.00,718.00,1166.00,,,,,,,,,,,,0,0,0,,-3080,15900,-528,-96,41,-190
12.752,12.39,0.49,2.59,-1.14,0.21,0.74,0.88,-0.31,1.51,-0.31,48.00,208.00,563.00,809.00,1040.00,2405.00,730.00,1159.00,,,,,,,,,,,,0,0,0,,-3084,16024,-504,-82,100,-222
12.814,12.45,0.50,8.70,-8.51,1.74,-0.29,0.75,-0.26,0.80,0.16,64.00,199.00,579.00,783.00,1040.00,2415.00,721.00,1177.00,,,,,,,,,,,,0,0,0,,-3064,15972,-432,-108,120,-194
12.855,12.50,0.48,4.58,-5.31,1.10,-0.30,0.14,0.54,0.17,0.81,58.00,215.00,586.00,803.00,1007.00,2421.00,704.00,1186.00,,,,,,,,,,,,0,0,0,,-3072,15984,-456,-49,178,-156
12.917,12.56,0.50,-0.51,1.51,-0.19,1.00,0.77,0.04,1.87,-0.45,44.00,219.00,559.00,816.00,1023.00,2394.00,731.00,1147.00,,,,,,,,,,,,0,0,0,,-3168,15876,-544,-87,125,-179
12.978,12.61,0.51,6.94,-6.10,1.62,-0.22,0.84,-0.40,1.37,-0.38,58.00,200.00,578.00,785.00,1046.00,2415.00,735.00,1168.00,,,,,,,,,,,,0,0,0,,-2952,16016,-520,-163,139,-144
13.04,12.67,0.50,6.31,-8.55,1.32,-0.72,0.17,0.24,0.52,0.23,67.00,219.00,597.00,805.00,1023.00,2438.00,722.00,1188.00,,,,,,,,,,,,0,0,0,,-3056,16160,-352,-79,82,-150
13.102,12.72,0.49,0.11,-2.82,0.05,0.34,0.29,0.20,1.14,-0.08,55.00,240.00,577.00,823.00,1023.00,2429.00,726.00,1169.00,,,,,,,,,,,,0,0,0,,-3024,15936,-460,-39,66,-166
13.162,12.78,0.51,3.97,-5.10,0.42,0.15,0.89,-0.64,1.76,-0.96,58.00,219.00,579.00,815.00,1059.00,2426.00,753.00,1168.00,,,,,,,,,,,,0,0,0,,-3108,16000,-416,-105,182,-144
13.183,12.83,0.49,10.08,-13.78,1.26,-1.03,0.10,-0.01,-0.01,0.48,83.00,217.00,608.00,814.00,1038.00,2461.00,719.00,1205.00,,,,,,,,,,,,0,0,0,,-3056,15984,-476,-152,248,-125
13.244,12.89,0.46,-1.30,-1.67,-0.08,-0.06,0.00,0.33,0.84,0.17,53.00,246.00,591.00,836.00,1021.00,2448.00,720.00,1175.00,,,,,,,,,,,,0,0,0,,-3096,16064,-532,-78,191,-143
13.306,12.94,0.47,0.90,-0.58,-0.25,0.50,0.59,-0.45,1.65,-0.90,48.00,219.00,575.00,829.00,1054.00,2443.00,752.00,1171.00,,,,,,,,,,,,0,0,0,,-2968,15988,-384,-23,153,-146
13.407,13.00,0.45,6.33,-7.71,2.86,-3.25,0.15,-0.15,0.39,0.15,64.00,214.00,666.00,811.00,1045.00,2465.00,727.00,1197.00,,,,,,,,,,,,0,0,0,,-3008,16032,-552,-32,118,-175
13.448,13.05,0.41,2.23,-4.51,0.03,-0.13,-0.39,0.50,0.17,0.68,58.00,231.00,592.00,834.00,1019.00,2475.00,709.00,1190.00,,,,,,,,,,,,0,0,0,,-3064,16072,-568,-75,118,-180
13.469,13.11,0.40,-1.18,0.52,-1.18,1.07,0.21,-0.17,1.25,-0.49,47.00,231.00,567.00,847.00,1045.00,2461.00,741.00,1177.00,,,,,,,,,,,,0,0,0,,-3120,15832,-468,-32,147,-224
13.532,13.16,0.38,7.38,-8.91,0.42,-0.26,0.02,-0.28,0.60,-0.23,67.00,212.00,592.00,824.00,1055.00,2487.00,739.00,1199.00,,,,,,,,,,,,0,0,0,,-3052,16268,-608,-88,205,-158
13.573,13.22,0.36,4.04,-7.51,0.17,-0.42,-0.07,0.17,-0.02,0.59,66.00,233.00,600.00,836.00,1031.00,2465.00,715.00,1202.00,,,,,,,,,,,,0,0,0,,-3052,15996,-316,-151,109,-230
13.654,13.27,0.36,3.19,-5.77,-0.20,0.29,0.37,-0.01,0.54,0.77,61.00,230.00,581.00,832.00,1033.00,2435.00,701.00,1170.00,,,,,,,,,,,,0,0,0,,-3036,16136,-384,-69,89,-196
13.695,13.33,0.39,3.11,-3.49,0.64,0.01,0.90,-0.61,1.66,-0.88,54.00,217.00,581.00,811.00,1057.00,2423.00,751.00,1170.00,,,,,,,,,,,,0,0,0,,-3112,16080,-480,-221,102,-97
13.817,13.38,0.37,9.34,-12.84,1.44,-1.13,0.05,0.28,0.12,0.42,80.00,218.00,609.00,810.00,1023.00,2447.00,720.00,1201.00,,,,,,,,,,,,0,0,0,,-3036,16072,-488,-205,40,-283
13.838,13.44,0.37,-0.02,-2.78,-0.36,0.54,0.31,0.28,1.03,0.11,55.00,241.00,575.00,832.00,1018.00,2422.00,720.00,1168.00,,,,,,,,,,,,0,0,0,,-3024,16104,-596,-82,18,-218
13.879,13.49,0.40,0.21,0.44,0.17,0.52,1.04,-0.57,1.96,-1.13,46.00,219.00,570.00,815.00,1052.00,2407.00,757.00,1164.00,,,,,,,,,,,,0,0,0,,-3116,16056,-388,-125,103,-217
13.92,13.55,0.40,11.35,-13.52,2.15,-1.00,0.39,0.02,0.62,0.25,80.00,205.00,597.00,785.00,1031.00,2431.00,720.00,1183.00,,,,,,,,,,,,0,0,0,,-3040,16056,-408,-117,161,-183
13.96,13.60,0.38,1.94,-3.44,1.23,-0.25,0.03,0.59,0.32,0.55,55.00,227.00,583.00,798.00,1006.00,2428.00,712.00,1187.00,,,,,,,,,,,,0,0,0,,-3108,15984,-592,-104,27,-252
14.023,13.66,0.40,-0.29,1.02,-0.20,0.97,0.79,-0.21,1.79,-0.43,45.00,220.00,560.00,817.00,1036.00,2407.00,731.00,1150.00,,,,,,,,,,,,0,0,0,,-3048,15960,-460,-76,-64,-262
14.066,13.71,0.41,7.89,-8.24,1.78,-0.50,0.56,-0.32,0.86,-0.14,64.00,204.00,585.00,786.00,1047.00,2437.00,732.00,1184.00,,,,,,,,,,,,0,0,0,,-3056,15884,-488,-107,34,-172
14.148,13.77,0.38,5.08,-7.58,0.37,-0.28,-0.24,0.61,0.42,0.42,65.00,224.00,593.00,826.00,1010.00,2453.00,716.00,1187.00,,,,,,,,,,,,0,0,0,,-3092,15960,-304,-138,126,-138
14.21,13.82,0.37,-1.95,1.17,-0.96,0.94,0.22,0.00,1.18,-0.30,46.00,234.00,569.00,843.00,1035.00,2448.00,734.00,1174.00,,,,,,,,,,,,0,0,0,,-3028,16040,-272,-92,134,-78
14.271,13.88,0.38,13.86,-10.25,0.33,-0.17,0.61,-0.64,1.29,-0.78,64.00,170.00,590.00,825.00,1064.00,2453.00,752.00,1184.00,,,,,,,,,,,,0,0,0,,-3044,16004,-312,-74,123,-125
14.292,13.93,0.35,9.73,-14.09,0.83,-1.04,-0.25,0.13,-0.09,0.21,85.00,222.00,613.00,828.00,1037.00,2486.00,731.00,1218.00,,,,,,,,,,,,0,0,0,,-3124,16012,-400,-14,135,-141
14.354,13.99,0.33,-0.32,-4.59,-1.09,0.25,-0.12,0.01,0.81,-0.07,61.00,256.00,592.00,863.00,1041.00,2481.00,730.00,1184.00,,,,,,,,,,,,0,0,0,,-3056,15932,-484,-42,90,-153
14.416,14.04,0.34,1.94,-3.77,-0.34,0.37,0.57,-0.76,1.38,-1.22,56.00,229.00,580.00,835.00,1072.00,2465.00,769.00,1194.00,,,,,,,,,,,,0,0,0,,-3168,16096,-452,-1,18,-148
14.456,14.10,0.30,10.68,-15.68,0.92,-1.22,-0.38,-0.04,-0.58,0.50,91.00,223.00,618.00,829.00,1049.00,2510.00,726.00,1232.00,,,,,,,,,,,,0,0,0,,-3052,16012,-368,-34,84,-115
14.518,14.15,0.27,2.57,-6.45,-0.56,0.04,-0.28,0.17,0.28,0.34,64.00,240.00,593.00,850.00,1035.00,2486.00,721.00,1196.00,,,,,,,,,,,,0,0,0,,-3072,16008,-412,-83,86,-321
14.58,14.21,0.29,0.46,-0.43,-0.51,0.75,0.67,-0.25,1.61,-0.64,48.00,222.00,570.00,832.00,1041.00,2422.00,742.00,1165.00,,,,,,,,,,,,0,0,0,,-3164,16008,-352,-74,33,-162
14.622,14.26,0.30,9.20,-8.68,1.56,-0.55,0.48,-0.17,0.63,0.17,64.00,196.00,589.00,794.00,1040.00,2435.00,723.00,1185.00,,,,,,,,,,,,0,0,0,,-3168,15928,-272,-15,152,-124
14.725,14.32,0.28,3.69,-4.69,0.55,-0.18,-0.13,0.67,0.38,0.67,57.00,219.00,588.00,818.00,1005.00,2439.00,707.00,1181.00,,,,,,,,,,,,0,0,0,,-3172,15964,-424,-60,196,-132
14.746,14.37,0.30,-3.61,5.75,-0.33,0.98,0.65,-0.14,1.60,-0.44,37.00,221.00,561.00,821.00,1035.00,2416.00,734.00,1159.00,,,,,,,,,,,,0,0,0,,-3236,15872,-432,43,250,-35
14.787,14.43,0.32,6.48,-7.76,0.91,-0.11,0.69,-0.26,1.33,-0.52,64.00,213.00,582.00,805.00,1041.00,2420.00,741.00,1174.00,,,,,,,,,,,,0,0,0,,-3092,15968,-520,-34,276,-42
14.89,14.48,0.30,8.53,-11.13,0.88,-0.57,0.03,0.28,-0.02,0.44,74.00,215.00,597.00,816.00,1023.00,2448.00,721.00,1207.00,,,,,,,,,,,,0,0,0,,-3092,16176,-456,-100,238,-120
14.91,14.54,0.30,1.39,-4.86,-0.35,0.35,0.24,0.30,1.09,0.09,60.00,241.00,581.00,836.00,1018.00,2427.00,720.00,1166.00,,,,,,,,,,,,0,0,0,,-3080,15884,-612,-22,92,-134
14.972,14.59,0.34,5.67,-7.78,0.56,0.14,1.03,-0.69,1.78,-1.02,65.00,220.00,578.00,811.00,1059.00,2416.00,755.00,1169.00,,,,,,,,,,,,0,0,0,,-3140,16024,-340,38,26,-120
15.013,14.65,0.32,10.41,-13.20,1.50,-1.21,0.01,0.29,-0.21,0.63,80.00,211.00,611.00,810.00,1023.00,2450.00,716.00,1210.00,,,,,,,,,,,,0,0,0,,-3100,15976,-288,22,202,-129
15.074,14.70,0.30,-1.43,-1.62,-0.63,0.22,-0.08,0.47,1.19,0.11,53.00,247.00,588.00,848.00,1015.00,2447.00,718.00,1161.00,,,,,,,,,,,,0,0,0,,-3120,16072,-504,-24,330,-54
15.115,14.76,0.31,1.20,-0.68,-0.18,0.55,0.52,-0.20,1.35,-0.45,48.00,217.00,573.00,826.00,1041.00,2433.00,738.00,1171.00,,,,,,,,,,,,0,0,0,,-3068,16052,-660,-39,254,12
15.177,14.81,0.31,8.40,-9.53,1.08,-0.45,0.31,-0.29,0.31,0.17,68.00,207.00,591.00,807.00,1050.00,2459.00,727.00,1200.00,,,,,,,,,,,,0,0,0,,-3004,16040,-568,-124,248,-62
15.259,14.87,0.27,3.40,-6.73,-0.24,-0.04,-0.45,0.59,0.20,0.49,64.00,234.00,592.00,841.00,1015.00,2475.00,716.00,1195.00,,,,,,,,,,,,0,0,0,,-3008,16064,-564,-102,160,-71
15.28,14.92,0.28,-0.90,0.42,-0.58,0.78,0.40,-0.25,-1.59,0.56,47.00,229.00,570.00,834.00,1046.00,2448.00,737.00,1280.00,,,,,,,,,,,,0,0,0,,-2864,16028,-352,-91,152,-122
15.342,14.98,0.27,7.10,-7.97,0.53,-0.33,0.13,-0.35,0.49,-0.19,64.00,209.00,593.00,822.00,1057.00,2481.00,739.00,1203.00,,,,,,,,,,,,0,0,0,,-3068,16052,-524,-17,155,-254
15.402,15.03,0.23,6.46,-10.44,-0.08,-0.58,-0.58,0.19,-0.20,0.12,74.00,229.00,608.00,848.00,1040.00,2515.00,736.00,1226.00,,,,,,,,,,,,0,0,0,,-3136,16224,-520,-128,253,-118
15.463,15.09,0.21,0.59,-5.20,-1.32,0.32,-0.21,0.18,0.51,-0.10,62.00,251.00,592.00,869.00,1033.00,2478.00,735.00,1199.00,,,,,,,,,,,,0,0,0,,-3096,16084,-304,-146,165,-138
15.504,15.14,0.23,4.12,-5.15,0.26,0.08,0.73,-0.71,1.42,-0.97,58.00,218.00,583.00,822.00,1066.00,2446.00,758.00,1184.00,,,,,,,,,,,,0,0,0,,-2952,16008,-468,-30,172,-33
15.566,15.20,0.22,10.10,-13.10,1.46,-1.19,0.01,0.11,0.03,0.11,80.00,213.00,611.00,811.00,1033.00,2462.00,733.00,1215.00,,,,,,,,,,,,0,0,0,,-2928,16096,-556,-14,118,-74
15.609,15.25,0.21,-0.29,-2.69,-0.79,0.59,0.01,0.40,0.78,0.06,55.00,243.00,578.00,845.00,1017.00,2443.00,725.00,1181.00,,,,,,,,,,,,0,0,0,,-3104,16068,-596,-54,107,-228
15.67,15.31,0.23,3.10,-2.07,0.07,0.40,0.58,-0.21,1.78,-1.00,50.00,209.00,575.00,821.00,1040.00,2427.00,754.00,1168.00,,,,,,,,,,,,0,0,0,,-2936,16060,-636,-12,48,-173
15.731,15.36,0.23,7.26,-8.02,1.19,-0.33,0.30,-0.11,0.49,0.21,64.00,208.00,586.00,801.00,1040.00,2448.00,723.00,1190.00,,,,,,,,,,,,0,0,0,,-3088,16092,-528,-141,68,-294
15.772,15.42,0.21,2.65,-4.66,0.50,-0.29,-0.29,0.75,0.47,0.53,58.00,228.00,592.00,822.00,1003.00,2448.00,711.00,1181.00,,,,,,,,,,,,0,0,0,,-2960,16052,-560,-63,16,-230
15.833,15.47,0.27,-0.29,1.02,-0.67,1.03,1.45,-1.35,1.50,-0.48,45.00,220.00,563.00,831.00,1089.00,2418.00,737.00,1165.00,,,,,,,,,,,,0,0,0,,-3108,16036,-456,58,26,-203
15.895,15.53,0.28,7.38,-7.48,1.09,-0.33,0.41,-0.25,0.78,-0.19,62.00,204.00,587.00,804.00,1046.00,2447.00,735.00,1189.00,,,,,,,,,,,,0,0,0,,-3076,15992,-352,37,122,-205
16.02,15.58,0.25,6.07,-8.19,0.24,-0.36,-0.27,0.38,0.05,0.51,66.00,219.00,597.00,832.00,1023.00,2471.00,717.00,1201.00,,,,,,,,,,,,0,0,0,,-3184,15968,-432,-78,340,-118
16.061,15.64,0.25,1.80,-4.69,-0.76,0.32,0.17,-0.07,0.71,-0.01,59.00,236.00,586.00,850.00,1040.00,2458.00,729.00,1187.00,,,,,,,,,,,,0,0,0,,-3132,15996,-696,-178,397,-124
16.081,15.69,0.26,6.01,-6.72,-0.01,-0.02,0.44,-0.63,1.17,-0.91,61.00,211.00,589.00,833.00,1067.00,2469.00,759.00,1194.00,,,,,,,,,,,,0,0,0,,-3048,16056,-612,-201,225,-130
16.123,15.75,0.22,10.80,-15.51,0.62,-0.91,-0.48,0.15,-0.53,0.46,90.00,221.00,611.00,832.00,1040.00,2507.00,727.00,1231.00,,,,,,,,,,,,0,0,0,,-2972,16108,-344,-129,75,-108
16.184,15.80,0.19,0.33,-5.11,-1.33,0.30,-0.31,0.13,0.28,0.21,62.00,253.00,593.00,870.00,1038.00,2492.00,726.00,1200.00,,,,,,,,,,,,0,0,0,,-3016,16156,-432,18,77,-163
16.245,15.86,0.18,1.64,-3.00,-0.79,0.46,-0.07,-0.08,1.16,-0.96,54.00,227.00,582.00,848.00,1045.00,2482.00,761.00,1196.00,,,,,,,,,,,,0,0,0,,-3028,16108,-512,6,125,-128
16.286,15.91,0.16,8.98,-12.49,0.54,-0.79,-0.17,-0.13,-0.06,0.25,79.00,219.00,608.00,832.00,1050.00,2495.00,729.00,1215.00,,,,,,,,,,,,0,0,0,,-3032,15948,-504,-70,82,-290
16.389,15.97,0.14,2.50,-4.92,-0.33,0.08,-0.28,0.53,0.33,0.60,59.00,231.00,589.00,841.00,1015.00,2462.00,710.00,1185.00,,,,,,,,,,,,0,0,0,,-3092,15892,-448,-136,33,-185
16.409,16.02,0.16,-2.46,4.39,-0.72,1.12,0.61,-0.18,1.55,-0.50,39.00,219.00,561.00,831.00,1038.00,2423.00,737.00,1163.00,,,,,,,,,,,,0,0,0,,-3140,15988,-424,-43,90,-194
16.451,16.08,0.18,8.19,-7.75,1.39,-0.49,0.43,-0.21,0.54,0.02,62.00,199.00,589.00,798.00,1043.00,2442.00,730.00,1194.00,,,,,,,,,,,,0,0,0,,-3004,16076,-556,-158,154,-150
16.493,16.13,0.16,5.66,-6.90,0.46,-0.18,-0.20,0.64,0.13,0.75,62.00,215.00,589.00,821.00,1008.00,2448.00,707.00,1190.00,,,,,,,,,,,,0,0,0,,-3104,15972,-404,-38,234,-157
16.555,16.19,0.16,-2.44,3.01,-0.87,1.20,0.15,0.32,0.83,-0.00,42.00,227.00,560.00,834.00,1019.00,2435.00,727.00,1181.00,,,,,,,,,,,,0,0,0,,-2960,16024,-600,-55,97,-138
16.619,16.24,0.19,4.52,-5.91,0.10,0.35,0.74,-0.54,1.35,-0.78,60.00,219.00,576.00,821.00,1056.00,2434.00,751.00,1181.00,,,,,,,,,,,,0,0,0,,-3056,16088,-544,-56,62,-153
16.659,16.30,0.17,12.39,-16.65,1.22,-1.02,-0.19,0.36,-0.16,0.46,93.00,214.00,608.00,815.00,1023.00,2465.00,722.00,1213.00,,,,,,,,,,,,0,0,0,,-3076,16048,-616,-32,80,-211
16.721,16.35,0.16,1.12,-5.37,-0.59,0.30,0.03,0.43,1.09,-0.04,62.00,247.00,585.00,845.00,1015.00,2439.00,725.00,1170.00,,,,,,,,,,,,0,0,0,,-3156,15968,-488,-18,-32,-208
16.783,16.41,0.19,4.52,-5.91,0.06,0.37,0.75,-0.55,1.73,-0.98,60.00,219.00,576.00,822.00,1056.00,2433.00,754.00,1170.00,,,,,,,,,,,,0,0,0,,-3104,16064,-476,-88,38,-174
16.824,16.46,0.17,10.73,-14.22,0.77,-0.41,-0.12,0.03,-0.19,0.47,84.00,214.00,593.00,816.00,1040.00,2480.00,722.00,1214.00,,,,,,,,,,,,0,0,0,,-3008,16036,-548,-122,164,-146
16.886,16.52,0.14,3.54,-6.77,-0.06,-0.03,-0.41,0.51,0.41,0.37,64.00,233.00,590.00,835.00,1019.00,2477.00,718.00,1189.00,,,,,,,,,,,,0,0,0,,-3080,16092,-492,-167,150,-127
16.948,16.57,0.15,0.17,-0.33,-0.96,0.84,0.32,-0.15,1.24,-0.42,48.00,224.00,572.00,845.00,1042.00,2449.00,738.00,1175.00,,,,,,,,,,,,0,0,0,,-2980,16092,-352,-105,96,-204
17.012,16.63,0.14,10.46,-12.76,0.50,-0.29,-0.07,-0.08,0.19,0.16,78.00,208.00,592.00,822.00,1045.00,2482.00,729.00,1206.00,,,,,,,,,,,,0,0,0,,-3116,15900,-548,-37,22,-154
17.094,16.68,0.10,4.46,-7.65,-0.22,-0.39,-0.76,0.66,-0.21,0.79,66.00,230.00,603.00,848.00,1017.00,2501.00,710.00,1205.00,,,,,,,,,,,,0,0,0,,-3088,16016,-420,32,37,-113
17.115,16.74,0.08,-2.43,0.94,-1.65,1.07,-0.20,0.06,0.69,-0.11,47.00,240.00,572.00,863.00,1040.00,2486.00,733.00,1191.00,,,,,,,,,,,,0,0,0,,-3036,16040,-412,-42,161,-45
17.157,16.79,0.08,4.98,-7.26,-0.34,-0.16,0.03,-0.30,0.72,-0.47,64.00,223.00,597.00,847.00,1056.00,2487.00,747.00,1201.00,,,,,,,,,,,,0,0,0,,-3148,15980,-340,-115,104,-289
17.218,16.85,0.05,8.59,-12.60,0.57,-0.83,-0.49,0.49,-0.05,0.29,80.00,223.00,609.00,832.00,1021.00,2485.00,727.00,1213.00,,,,,,,,,,,,0,0,0,,-3108,15948,-536,-137,24,-59
17.259,16.90,0.04,0.31,-4.19,-0.95,0.51,-0.08,0.45,0.87,0.04,59.00,247.00,582.00,852.00,1016.00,2448.00,725.00,1178.00,,,,,,,,,,,,0,0,0,,-3100,15972,-404,-92,77,-126
17.32,16.96,0.08,2.36,-2.90,0.14,0.34,0.82,-0.50,1.41,-0.67,53.00,220.00,576.00,820.00,1052.00,2423.00,746.00,1175.00,,,,,,,,,,,,0,0,0,,-3216,16056,-276,-90,193,-157
17.38,17.01,0.09,11.12,-14.78,1.57,-1.08,0.18,0.07,-0.15,0.53,86.00,214.00,606.00,805.00,1032.00,2448.00,719.00,1210.00,,,,,,,,,,,,0,0,0,,-3108,15932,-552,8,186,-134
17.464,17.07,0.09,-0.59,-2.25,-0.50,0.52,0.03,0.50,0.65,0.39,54.00,243.00,577.00,837.00,1011.00,2434.00,714.00,1177.00,,,,,,,,,,,,0,0,0,,-2976,15872,-420,0,106,-123
17.484,17.12,0.11,1.24,-1.07,-0.09,0.67,0.65,-0.14,1.29,-0.23,49.00,219.00,568.00,820.00,1035.00,2416.00,730.00,1167.00,,,,,,,,,,,,0,0,0,,-2964,16036,-424,-67,135,-118
17.546,17.18,0.13,9.43,-10.15,1.36,-0.55,0.43,-0.10,0.51,0.29,69.00,202.00,591.00,800.00,1037.00,2435.00,720.00,1187.00,,,,,,,,,,,,0,0,0,,-3020,15952,-492,-46,144,-149
17.587,17.23,0.11,1.92,-2.75,0.18,0.23,-0.29,0.75,0.42,0.60,53.00,223.00,579.00,821.00,1003.00,2448.00,709.00,1181.00,,,,,,,,,,,,0,0,0,,-3052,15872,-592,6,64,-152
17.65,17.29,0.13,-1.17,1.31,-0.68,1.00,0.57,-0.10,1.36,-0.18,45.00,226.00,564.00,832.00,1034.00,2421.00,727.00,1162.00,,,,,,,,,,,,0,0,0,,-3008,16008,-520,-67,113,-124
17.711,17.34,0.14,7.26,-8.02,1.07,-0.38,0.38,-0.30,0.65,0.01,64.00,208.00,589.00,806.00,1049.00,2453.00,729.00,1189.00,,,,,,,,,,,,0,0,0,,-3076,15976,-468,-155,178,-128
17.753,17.40,0.12,5.79,-9.45,0.31,-0.41,-0.26,0.24,0.03,0.37,71.00,229.00,598.00,831.00,1031.00,2480.00,723.00,1207.00,,,,,,,,,,,,0,0,0,,-3040,16016,-520,-143,207,-102
17.836,17.45,0.11,0.33,-4.81,-1.09,0.59,-0.20,0.36,0.76,-0.05,61.00,251.00,581.00,855.00,1023.00,2466.00,730.00,1186.00,,,,,,,,,,,,0,0,0,,-3028,16008,-468,-104,194,-188
17.876,17.51,0.12,4.39,-7.06,-0.25,0.28,0.40,-0.51,1.51,-1.20,64.00,227.00,582.00,834.00,1061.00,2465.00,766.00,1187.00,,,,,,,,,,,,0,0,0,,-2972,16012,-548,-68,119,-146
17.939,17.56,0.10,9.19,-13.48,0.81,-1.27,-0.32,-0.03,-0.62,0.59,83.00,223.00,621.00,834.00,1047.00,2503.00,723.00,1231.00,,,,,,,,,,,,0,0,0,,-2928,16164,-500,-43,132,-128
18.001,17.62,0.08,0.20,-5.65,-1.38,0.38,-0.33,0.08,0.09,0.42,64.00,258.00,591.00,870.00,1041.00,2497.00,720.00,1202.00,,,,,,,,,,,,0,0,0,,-3012,15696,-440,44,104,-145
18.022,17.67,0.08,0.20,-2.17,-1.09,0.72,0.09,-0.27,1.17,-0.67,53.00,235.00,577.00,852.00,1053.00,2479.00,749.00,1186.00,,,,,,,,,,,,0,0,0,,-3056,16132,-604,-46,131,-284
18.084,17.73,0.09,6.98,-8.50,0.74,-0.37,0.29,-0.30,0.33,0.17,66.00,213.00,592.00,816.00,1051.00,2462.00,727.00,1199.00,,,,,,,,,,,,0,0,0,,-3068,15996,-532,-104,95,-147
18.188,17.78,0.07,2.81,-4.39,0.02,0.16,-0.25,0.69,0.17,0.81,57.00,225.00,583.00,828.00,1006.00,2449.00,704.00,1186.00,,,,,,,,,,,,0,0,0,,-3132,15976,-420,-27,140,-59
18.208,17.84,0.09,-2.39,3.44,-1.05,2.00,0.43,0.15,1.08,-0.19,41.00,224.00,538.00,822.00,1023.00,2419.00,731.00,1175.00,,,,,,,,,,,,0,0,0,,-3144,16036,-472,-35,197,-127
18.29,17.89,0.11,11.63,-13.38,1.56,-0.36,0.45,-0.16,0.86,-0.26,79.00,202.00,583.00,790.00,1040.00,2437.00,737.00,1188.00,,,,,,,,,,,,0,0,0,,-3028,15832,-396,-39,133,19
18.31,17.95,0.09,5.12,-7.31,0.74,-0.37,-0.26,0.63,0.62,0.25,64.00,222.00,592.00,816.00,1009.00,2453.00,720.00,1183.00,,,,,,,,,,,,0,0,0,,-3040,16028,-592,15,142,-173
18.372,18.00,0.10,1.79,-5.30,-0.25,0.38,0.19,0.25,0.66,0.18,61.00,240.00,579.00,832.00,1022.00,2435.00,722.00,1183.00,,,,,,,,,,,,0,0,0,,-2992,16060,-464,-24,133,-154
18.412,18.06,0.13,5.87,-7.56,0.50,0.22,0.76,-0.53,1.51,-0.88,64.00,217.00,576.00,811.00,1055.00,2431.00,753.00,1177.00,,,,,,,,,,,,0,0,0,,-3108,15940,-560,154,82,-262
18.474,18.11,0.12,9.98,-13.96,1.16,-0.85,-0.10,0.13,-0.28,0.45,84.00,219.00,603.00,813.00,1034.00,2471.00,724.00,1219.00,,,,,,,,,,,,0,0,0,,-3040,15944,-704,59,-8,-233
18.556,18.17,0.11,-0.36,-3.64,-0.90,0.63,0.01,0.29,0.95,0.55,58.00,250.00,578.00,848.00,1023.00,2450.00,704.00,1158.00,,,,,,,,,,,,0,0,0,,-3096,15888,-600,-43,-29,-265
18.597,18.22,0.14,1.00,-1.73,-0.10,0.42,0.69,-0.61,1.61,-0.94,51.00,225.00,576.00,826.00,1061.00,2443.00,754.00,1174.00,,,,,,,,,,,,0,0,0,,-3088,16032,-472,-145,53,-155
18.638,18.28,0.14,9.44,-12.65,1.15,-0.88,0.16,-0.06,-0.01,0.46,79.00,216.00,604.00,814.00,1040.00,2459.00,720.00,1206.00,,,,,,,,,,,,0,0,0,,-3136,15944,-516,-168,190,-105
18.699,18.33,0.12,0.48,-2.26,-0.11,0.07,-0.37,0.53,0.25,0.47,53.00,233.00,587.00,834.00,1017.00,2471.00,716.00,1193.00,,,,,,,,,,,,0,0,0,,-3036,16068,-476,-96,142,-113
18.761,18.39,0.13,-0.70,-0.04,-0.77,1.10,0.32,-0.15,1.04,-0.37,48.00,230.00,562.00,833.00,1042.00,2449.00,739.00,1183.00,,,,,,,,,,,,0,0,0,,-3024,16088,-508,9,130,-91
18.824,18.44,0.12,8.79,-9.93,0.78,-0.38,-0.01,-0.20,0.01,0.27,69.00,206.00,592.00,815.00,1051.00,2484.00,727.00,1211.00,,,,,,,,,,,,0,0,0,,-2960,16068,-564,1,180,9
18.948,18.50,0.08,6.10,-10.06,-0.27,-0.21,-0.65,0.60,-0.16,0.79,73.00,230.00,598.00,846.00,1018.00,2494.00,709.00,1202.00,,,,,,,,,,,,0,0,0,,-2956,15940,-704,-112,141,-272
18.969,18.55,0.09,-0.84,0.01,0.94,-1.38,0.27,-0.07,0.56,0.14,48.00,231.00,623.00,832.00,1038.00,2448.00,725.00,1189.00,,,,,,,,,,,,0,0,0,,-3028,15964,-432,-182,63,-188
18.99,18.61,0.12,4.57,-6.83,0.50,0.22,0.71,-0.50,0.82,-0.53,63.00,224.00,576.00,811.00,1054.00,2434.00,748.00,1198.00,,,,,,,,,,,,0,0,0,,-3056,15996,-396,-104,-41,-124
19.032,18.66,0.11,9.34,-13.53,1.53,-1.15,-0.14,0.34,-0.23,0.53,83.00,222.00,609.00,808.00,1023.00,2461.00,720.00,1214.00,,,,,,,,,,,,0,0,0,,-2996,16212,-524,-88,-53,-195
19.073,18.72,0.11,0.02,-3.45,-0.54,0.54,0.17,0.24,0.73,0.08,57.00,245.00,577.00,838.00,1023.00,2438.00,725.00,1183.00,,,,,,,,,,,,0,0,0,,-3008,16044,-436,54,-73,-223
19.138,18.77,0.15,3.11,-3.83,0.18,0.65,0.91,-0.60,1.87,-1.32,55.00,219.00,566.00,812.00,1056.00,2421.00,766.00,1174.00,,,,,,,,,,,,0,0,0,,-3160,15904,-548,69,-16,-188
19.198,18.83,0.15,12.13,-15.75,2.03,-1.20,0.21,0.03,0.72,-0.59,89.00,211.00,605.00,793.00,1034.00,2448.00,752.00,1205.00,,,,,,,,,,,,0,0,0,,-3024,15976,-572,-51,151,-144
19.302,18.88,0.15,3.06,-5.42,0.33,0.24,0.07,0.43,0.65,0.26,60.00,229.00,577.00,816.00,1014.00,2435.00,719.00,1181.00,,,,,,,,,,,,0,0,0,,-3076,15968,-448,-15,212,-141
19.323,18.94,0.18,0.46,-0.43,-0.22,0.92,0.67,-0.23,1.43,-0.48,48.00,222.00,562.00,819.00,1040.00,2421.00,738.00,1168.00,,,,,,,,,,,,0,0,0,,-3076,15848,-716,-66,164,-213
19.364,18.99,0.18,0.83,2.36,1.87,-0.59,0.35,-0.18,0.47,-0.03,41.00,203.00,587.00,785.00,1043.00,2448.00,733.00,1199.00,,,,,,,,,,,,0,0,0,,-3160,16008,-600,-56,158,-165
19.405,19.05,0.16,3.68,-6.82,0.46,-0.28,-0.38,0.60,-0.08,0.74,64.00,232.00,592.00,823.00,1013.00,2467.00,710.00,1200.00,,,,,,,,,,,,0,0,0,,-3036,16012,-476,-136,112,-164
19.466,19.10,0.15,-1.88,0.75,-0.82,0.98,0.02,0.32,1.13,-0.36,47.00,236.00,566.00,837.00,1021.00,2447.00,737.00,1178.00,,,,,,,,,,,,0,0,0,,-3080,16084,-412,-88,127,-196
19.528,19.16,0.16,6.02,-7.61,0.58,-0.13,0.31,-0.50,0.63,-0.24,64.00,216.00,586.00,816.00,1062.00,2473.00,739.00,1198.00,,,,,,,,,,,,0,0,0,,-3108,16008,-572,-60,119,-139
19.569,19.21,0.13,8.01,-12.40,0.47,-0.65,-0.37,0.10,-0.56,0.46,80.00,227.00,604.00,831.00,1041.00,2500.00,727.00,1232.00,,,,,,,,,,,,0,0,0,,-3104,16136,-544,178,99,-145
19.653,19.27,0.12,0.07,-5.02,-1.10,0.44,-0.12,0.03,0.45,-0.10,62.00,255.00,586.00,859.00,1040.00,2480.00,736.00,1202.00,,,,,,,,,,,,0,0,0,,-2996,16052,-496,312,38,-7
19.692,19.32,0.13,2.09,-4.15,-0.34,0.06,0.25,-0.69,1.18,-1.20,57.00,230.00,590.00,842.00,1074.00,2491.00,771.00,1203.00,,,,,,,,,,,,0,0,0,,-2852,16104,-620,45,-32,-29
19.734,19.38,0.12,10.62,-15.24,1.67,-1.92,-0.04,-0.12,-0.46,0.38,89.00,221.00,633.00,820.00,1047.00,2482.00,729.00,1230.00,,,,,,,,,,,,0,0,0,,-3072,15900,-584,-283,-32,-482
19.794,19.43,0.11,0.98,-5.03,-0.00,0.01,-0.08,0.54,0.44,0.39,61.00,246.00,588.00,832.00,1011.00,2442.00,717.00,1187.00,,,,,,,,,,,,0,0,0,,-3132,15928,-664,-194,-34,-153
19.856,19.49,0.14,1.20,-0.68,0.06,0.69,0.72,-0.23,1.47,-0.59,48.00,217.00,566.00,815.00,1039.00,2416.00,742.00,1170.00,,,,,,,,,,,,0,0,0,,-3132,15960,-388,-42,187,-124
19.919,19.54,0.16,8.23,-8.92,1.94,-0.74,0.60,-0.23,0.55,0.09,66.00,205.00,591.00,786.00,1041.00,2427.00,727.00,1191.00,,,,,,,,,,,,0,0,0,,-3088,16148,-508,32,317,-247
20.041,19.60,0.15,3.08,-5.12,0.94,-0.15,-0.00,0.57,0.38,0.69,59.00,227.00,583.00,805.00,1008.00,2433.00,706.00,1180.00,,,,,,,,,,,,0,0,0,,-3164,15908,-680,317,263,-56
20.061,19.65,0.19,-0.23,0.59,-0.11,1.08,0.92,-0.30,1.51,-0.43,46.00,222.00,556.00,812.00,1039.00,2401.00,735.00,1163.00,,,,,,,,,,,,0,0,0,,-3156,15928,-896,249,152,-156
20.081,19.71,0.21,7.72,-6.68,1.81,-0.44,0.65,-0.30,1.13,-0.36,59.00,197.00,583.00,784.00,1044.00,2427.00,737.00,1178.00,,,,,,,,,,,,0,0,0,,-3136,16100,-940,-81,73,-184
20.122,19.76,0.22,7.17,-9.65,1.13,-0.53,0.32,-0.01,0.28,0.21,70.00,218.00,593.00,807.00,1034.00,2440.00,726.00,1200.00,,,,,,,,,,,,0,0,0,,-3212,15932,-900,-207,-39,-211
20.226,19.82,0.23,1.79,-5.30,-0.36,0.54,0.40,0.01,0.82,-0.05,61.00,240.00,575.00,832.00,1031.00,2430.00,729.00,1183.00,,,,,,,,,,,,0,0,0,,-3184,16044,-440,-246,-66,-112
20.247,19.87,0.26,4.79,-6.31,0.49,0.19,0.87,-0.67,1.42,-0.99,61.00,219.00,577.00,812.00,1061.00,2430.00,759.00,1185.00,,,,,,,,,,,,0,0,0,,-3176,16012,-476,-198,193,-41
20.307,19.93,0.25,10.76,-13.55,1.41,-0.93,0.05,-0.03,-0.28,0.40,81.00,210.00,603.00,807.00,1040.00,2467.00,726.00,1221.00,,,,,,,,,,,,0,0,0,,-3172,16020,-504,-102,296,-27
20.41,19.98,0.24,0.32,-4.50,-0.68,0.52,0.03,0.28,0.57,0.19,60.00,249.00,579.00,843.00,1023.00,2448.00,723.00,1187.00,,,,,,,,,,,,0,0,0,,-3036,16056,-796,-64,177,-103
20.43,20.04,0.26,0.94,-0.97,-0.28,0.77,0.69,-0.54,1.44,-0.91,49.00,221.00,567.00,824.00,1057.00,2439.00,755.00,1181.00,,,,,,,,,,,,0,0,0,,-3080,16012,-592,-119,41,-125
20.472,20.09,0.26,8.68,-11.18,0.80,-0.45,0.15,-0.22,-0.07,0.30,74.00,214.00,594.00,816.00,1049.00,2470.00,727.00,1214.00,,,,,,,,,,,,0,0,0,,-3020,16032,-620,-148,25,-199
20.513,20.15,0.23,-1.82,0.34,-0.53,0.57,-0.32,0.40,0.10,0.47,48.00,238.00,576.00,837.00,1023.00,2475.00,718.00,1200.00,,,,,,,,,,,,0,0,0,,-3056,16020,-496,-67,118,-209
20.575,20.20,0.23,-1.04,0.47,-1.06,1.16,0.28,-0.23,1.17,-0.67,47.00,230.00,563.00,841.00,1047.00,2458.00,749.00,1186.00,,,,,,,,,,,,0,0,0,,-3200,15972,-612,-93,244,-187
20.635,20.26,0.24,7.26,-8.02,1.39,-1.05,0.38,-0.33,0.42,0.01,64.00,208.00,607.00,810.00,1051.00,2455.00,732.00,1200.00,,,,,,,,,,,,0,0,0,,-2980,16096,-532,-101,176,-250
20.697,20.31,0.23,5.52,-7.73,0.62,-0.33,0.08,0.41,0.01,0.74,65.00,221.00,592.00,819.00,1015.00,2435.00,709.00,1196.00,,,,,,,,,,,,0,0,0,,-3036,15984,-476,-97,193,-184
20.759,20.37,0.24,0.39,-1.16,-0.14,0.53,0.47,0.14,0.85,0.09,50.00,227.00,573.00,825.00,1023.00,2416.00,723.00,1177.00,,,,,,,,,,,,0,0,0,,-3072,16004,-604,-51,217,-97
20.78,20.42,0.29,3.42,-3.60,0.92,0.11,1.19,-0.71,1.69,-0.99,54.00,215.00,575.00,800.00,1057.00,2402.00,755.00,1172.00,,,,,,,,,,,,0,0,0,,-3100,16028,-640,-109,185,-165
20.842,20.48,0.28,10.89,-14.27,1.81,-1.16,0.21,0.22,0.16,0.32,84.00,213.00,606.00,799.00,1023.00,2435.00,723.00,1202.00,,,,,,,,,,,,0,0,0,,-3036,15892,-588,-80,166,-68
20.904,20.53,0.29,1.52,-4.90,-0.10,0.42,0.37,0.32,1.20,-0.08,60.00,240.00,576.00,826.00,1015.00,2414.00,725.00,1166.00,,,,,,,,,,,,0,0,0,,-3068,16104,-664,-154,126,-187
20.965,20.59,0.34,3.10,-2.07,0.59,0.32,1.36,-0.71,2.04,-1.08,50.00,209.00,572.00,806.00,1054.00,2386.00,754.00,1159.00,,,,,,,,,,,,0,0,0,,-3156,15932,-704,-128,122,-105
21.006,20.64,0.36,12.00,-13.74,1.96,-0.81,0.72,-0.16,0.83,0.13,80.00,201.00,593.00,787.00,1035.00,2411.00,722.00,1177.00,,,,,,,,,,,,0,0,0,,-3168,16048,-672,-49,68,-115
21.067,20.70,0.36,3.78,-5.66,1.00,-0.61,0.34,0.34,1.00,0.22,60.00,224.00,597.00,813.00,1014.00,2415.00,716.00,1166.00,,,,,,,,,,,,0,0,0,,-3152,15888,-520,-16,149,-83
21.129,20.75,0.39,-4.84,7.72,-0.03,0.95,1.02,-0.35,2.02,-0.60,34.00,220.00,559.00,812.00,1040.00,2395.00,735.00,1145.00,,,,,,,,,,,,0,0,0,,-3088,15988,-680,-131,272,-67
21.211,20.81,0.41,8.96,-8.88,1.78,-0.40,0.64,-0.28,0.83,-0.10,65.00,199.00,582.00,784.00,1043.00,2426.00,731.00,1184.00,,,,,,,,,,,,0,0,0,,-3016,16052,-560,-183,242,-68
21.232,20.86,0.38,5.57,-7.46,0.95,-0.44,-0.08,0.54,0.21,0.75,64.00,219.00,592.00,811.00,1011.00,2442.00,706.00,1186.00,,,,,,,,,,,,0,0,0,,-2992,16076,-456,-115,175,-100
21.273,20.92,0.40,-0.88,1.22,-0.54,0.89,0.67,-0.23,1.32,-0.32,45.00,224.00,566.00,830.00,1040.00,2421.00,733.00,1168.00,,,,,,,,,,,,0,0,0,,-3080,16020,-520,-95,96,-164
21.355,20.97,0.41,6.17,-7.66,0.50,-0.00,0.69,-0.49,1.14,-0.58,64.00,215.00,583.00,816.00,1054.00,2435.00,746.00,1185.00,,,,,,,,,,,,0,0,0,,-2988,15928,-560,-19,105,-118
21.417,21.03,0.39,9.19,-12.79,1.03,-1.02,-0.08,-0.00,-0.07,0.20,80.00,219.00,610.00,821.00,1041.00,2478.00,731.00,1217.00,,,,,,,,,,,,0,0,0,,-2904,15908,-584,-13,141,-223
21.439,21.08,0.38,1.12,-5.07,-1.38,0.50,0.21,0.01,0.73,-0.04,61.00,245.00,587.00,867.00,1035.00,2449.00,730.00,1187.00,,,,,,,,,,,,0,0,0,,-3032,16128,-652,-81,134,-315
21.522,21.14,0.42,5.01,-5.77,0.46,0.13,1.17,-0.81,2.01,-1.27,59.00,214.00,579.00,814.00,1063.00,2410.00,762.00,1166.00,,,,,,,,,,,,0,0,0,,-3172,15872,-580,-81,118,-147
21.563,21.19,0.43,12.40,-14.33,2.35,-1.34,0.60,-0.11,0.23,0.38,82.00,201.00,606.00,786.00,1034.00,2419.00,720.00,1197.00,,,,,,,,,,,,0,0,0,,-2976,16064,-476,-16,177,-106
21.605,21.25,0.43,1.34,-2.55,0.52,0.05,0.55,0.31,1.40,0.11,53.00,227.00,581.00,814.00,1012.00,2397.00,715.00,1151.00,,,,,,,,,,,,0,0,0,,-3028,15996,-600,-89,166,-130
21.668,21.30,0.47,0.81,1.49,0.64,0.66,1.19,-0.11,2.13,-0.44,43.00,208.00,561.00,797.00,1023.00,2363.00,727.00,1135.00,,,,,,,,,,,,0,0,0,,-2992,15848,-520,-60,89,-57
21.709,21.36,0.50,10.05,-8.96,2.21,-0.52,1.07,-0.30,1.23,0.04,64.00,191.00,581.00,773.00,1036.00,2387.00,720.00,1161.00,,,,,,,,,,,,0,0,0,,-3052,15904,-696,-127,41,-220
21.772,21.41,0.49,5.47,-5.92,1.21,-0.08,0.27,0.64,1.17,0.43,59.00,211.00,578.00,795.00,999.00,2402.00,706.00,1152.00,,,,,,,,,,,,0,0,0,,-2944,15992,-568,-162,66,-145
21.874,21.47,0.52,0.43,2.05,-0.06,1.09,1.15,-0.07,2.32,-0.43,42.00,208.00,555.00,810.00,1022.00,2365.00,724.00,1126.00,,,,,,,,,,,,0,0,0,,-3084,16012,-392,-44,75,-172
21.894,21.52,0.55,7.25,-5.22,1.81,-0.35,1.18,-0.41,1.78,-0.45,55.00,193.00,580.00,782.00,1040.00,2383.00,732.00,1151.00,,,,,,,,,,,,0,0,0,,-3128,16000,-556,-13,102,-218
21.937,21.58,0.56,8.24,-9.47,1.47,-0.61,0.62,-0.06,0.89,0.28,68.00,208.00,592.00,798.00,1031.00,2414.00,715.00,1169.00,,,,,,,,,,,,0,0,0,,-3080,15936,-696,-71,70,-178
21.999,21.63,0.56,2.35,-5.18,-0.06,0.41,0.70,0.06,1.59,-0.13,60.00,234.00,576.00,825.00,1023.00,2399.00,722.00,1150.00,,,,,,,,,,,,0,0,0,,-3060,15964,-472,-220,153,-121
22.06,21.69,0.60,5.66,-5.67,0.85,0.07,1.30,-0.84,2.24,-1.13,58.00,208.00,577.00,803.00,1062.00,2399.00,753.00,1151.00,,,,,,,,,,,,0,0,0,,-3024,16064,-524,-234,221,-145
22.122,21.74,0.59,12.33,-14.97,1.95,-1.27,0.47,-0.12,0.47,0.38,85.00,205.00,608.00,797.00,1037.00,2432.00,717.00,1186.00,,,,,,,,,,,,0,0,0,,-3076,15996,-420,-198,192,-112
22.182,21.80,0.58,2.08,-5.09,-0.29,0.39,0.25,0.37,1.54,-0.06,60.00,236.00,579.00,833.00,1014.00,2421.00,720.00,1150.00,,,,,,,,,,,,0,0,0,,-3088,15976,-444,-43,170,-98
22.243,21.85,0.59,3.26,-2.49,0.05,0.56,0.86,-0.42,2.01,-0.75,51.00,210.00,570.00,818.00,1047.00,2415.00,741.00,1150.00,,,,,,,,,,,,0,0,0,,-2932,15832,-500,15,198,-66
22.285,21.91,0.59,8.38,-8.40,1.50,-0.56,0.55,-0.25,1.08,0.04,64.00,201.00,590.00,796.00,1043.00,2433.00,722.00,1168.00,,,,,,,,,,,,0,0,0,,-2968,16060,-508,-79,159,-278
22.345,21.96,0.58,8.87,-11.98,0.62,-0.14,0.44,0.44,1.43,0.52,77.00,217.00,586.00,815.00,1007.00,2399.00,699.00,1137.00,,,,,,,,,,,,0,0,0,,-3060,15924,-608,-143,110,-149
22.386,22.02,0.62,-1.79,5.14,0.61,0.70,1.30,-0.14,1.91,-0.21,37.00,209.00,560.00,797.00,1023.00,2355.00,721.00,1138.00,,,,,,,,,,,,0,0,0,,-3032,16032,-536,-65,59,-150
22.426,22.07,0.65,10.58,-7.95,0.23,2.85,1.33,-0.37,0.58,0.23,60.00,182.00,502.00,764.00,1035.00,2367.00,721.00,1185.00,,,,,,,,,,,,0,0,0,,-3084,16080,-488,-76,119,-148
22.509,22.13,0.66,8.78,-8.25,1.72,-0.22,0.77,0.34,1.44,0.54,63.00,197.00,577.00,782.00,1006.00,2374.00,698.00,1136.00,,,,,,,,,,,,0,0,0,,-3096,15860,-544,-43,182,-102
22.613,22.18,0.68,3.42,-3.60,0.63,0.30,1.10,0.10,2.32,-0.22,54.00,215.00,572.00,805.00,1013.00,2358.00,716.00,1120.00,,,,,,,,,,,,0,0,0,,-2980,16108,-476,-62,157,-164
22.634,22.24,0.74,5.81,-4.06,1.55,0.03,1.77,-0.84,2.91,-1.03,53.00,198.00,571.00,782.00,1053.00,2355.00,740.00,1118.00,,,,,,,,,,,,0,0,0,,-3000,16024,-436,-119,96,-91
22.694,22.29,0.74,13.22,-14.61,2.50,-1.18,0.74,0.24,1.44,0.26,82.00,196.00,599.00,778.00,1012.00,2383.00,709.00,1145.00,,,,,,,,,,,,0,0,0,,-3032,16040,-436,-149,101,-188
22.714,22.35,0.74,0.06,-0.67,0.22,0.54,0.86,0.31,2.12,0.24,49.00,227.00,569.00,813.00,1006.00,2367.00,701.00,1115.00,,,,,,,,,,,,0,0,0,,-3084,16064,-588,-120,31,-192
22.755,22.40,0.79,3.89,-2.33,1.33,0.26,1.68,-0.66,3.04,-1.05,50.00,204.00,566.00,784.00,1045.00,2353.00,739.00,1113.00,,,,,,,,,,,,0,0,0,,-3148,15968,-448,-86,66,-156
22.815,22.46,0.80,11.89,-12.26,2.39,-0.92,1.02,-0.23,1.65,0.24,74.00,194.00,592.00,776.00,1033.00,2387.00,707.00,1136.00,,,,,,,,,,,,0,0,0,,-3088,15984,-364,-178,188,-157
22.898,22.51,0.79,4.80,-4.40,1.15,-0.00,0.50,0.42,1.67,0.44,55.00,208.00,576.00,795.00,1007.00,2395.00,699.00,1129.00,,,,,,,,,,,,0,0,0,,-3052,16048,-480,-156,184,-118
22.98,22.57,0.81,-0.78,3.82,0.28,0.91,1.18,-0.25,2.78,-0.61,39.00,208.00,557.00,803.00,1031.00,2373.00,725.00,1111.00,,,,,,,,,,,,0,0,0,,-3004,16028,-424,-117,125,-171
23.001,22.62,0.81,10.22,-9.02,1.81,-0.44,0.90,-0.33,1.81,0.00,64.00,190.00,583.00,784.00,1041.00,2405.00,714.00,1136.00,,,,,,,,,,,,0,0,0,,-3032,15996,-404,-90,119,-159
23.041,22.68,0.77,6.84,-7.59,1.15,-0.41,0.09,0.48,1.24,0.48,63.00,209.00,589.00,804.00,1011.00,2430.00,703.00,1147.00,,,,,,,,,,,,0,0,0,,-3036,15908,-500,-78,110,-176
23.101,22.73,0.77,0.61,0.71,-0.18,0.77,0.65,-0.23,1.95,-0.30,45.00,214.00,566.00,821.00,1040.00,2422.00,724.00,1139.00,,,,,,,,,,,,0,0,0,,-3052,15956,-524,-55,117,-154
23.142,22.79,0.77,4.49,-4.29,0.61,-0.17,0.90,-0.72,2.19,-0.86,55.00,210.00,587.00,816.00,1063.00,2430.00,743.00,1145.00,,,,,,,,,,,,0,0,0,,-2960,15904,-284,-80,142,-153
23.203,22.84,0.74,10.56,-13.26,1.19,-1.07,0.10,-0.05,0.64,0.34,80.00,210.00,610.00,817.00,1040.00,2463.00,716.00,1179.00,,,,,,,,,,,,0,0,0,,-3016,16172,-524,-93,165,-306
23.266,22.90,0.74,2.98,-6.59,-0.31,0.46,0.73,0.08,2.04,-0.18,64.00,237.00,577.00,832.00,1021.00,2394.00,718.00,1131.00,,,,,,,,,,,,0,0,0,,-3128,15864,-288,-148,85,-117
23.327,22.95,0.78,3.72,-1.90,1.27,0.25,1.48,-0.68,3.22,-1.36,49.00,203.00,567.00,786.00,1050.00,2373.00,749.00,1114.00,,,,,,,,,,,,0,0,0,,-3064,15928,-488,-69,112,-199
23.369,23.01,0.78,13.32,-14.19,2.82,-1.22,0.84,0.05,1.42,0.34,80.00,193.00,597.00,769.00,1021.00,2386.00,706.00,1143.00,,,,,,,,,,,,0,0,0,,-3132,16092,-472,-138,133,-142
23.429,23.06,0.78,4.67,-3.67,1.52,-0.03,0.85,0.32,2.09,0.49,53.00,205.00,573.00,784.00,1006.00,2368.00,692.00,1109.00,,,,,,,,,,,,0,0,0,,-3012,16000,-444,-74,138,-171
23.47,23.12,0.82,4.87,-1.52,0.98,0.78,1.46,-0.14,3.24,-0.63,47.00,192.00,554.00,784.00,1020.00,2340.00,720.00,1092.00,,,,,,,,,,,,0,0,0,,-3024,15948,-544,-67,131,-168
23.533,23.17,0.83,11.34,-9.69,2.75,-0.64,1.15,-0.09,2.15,-0.01,65.00,185.00,579.00,759.00,1023.00,2366.00,710.00,1121.00,,,,,,,,,,,,0,0,0,,-2984,16068,-456,-152,143,-70
23.594,23.23,0.82,6.50,-5.63,1.61,-0.15,0.64,0.52,2.04,0.56,57.00,201.00,576.00,784.00,999.00,2375.00,690.00,1109.00,,,,,,,,,,,,0,0,0,,-3032,16108,-436,-45,173,-222
23.654,23.28,0.85,-1.20,4.45,0.60,1.00,1.25,-0.06,3.15,-0.60,38.00,208.00,551.00,791.00,1019.00,2354.00,720.00,1095.00,,,,,,,,,,,,0,0,0,,-3088,16048,-384,55,-1,-154
23.715,23.34,0.85,7.29,-4.90,1.90,-0.25,0.86,-0.30,2.61,-0.55,54.00,191.00,576.00,777.00,1040.00,2407.00,725.00,1117.00,,,,,,,,,,,,0,0,0,,-3184,15928,-460,3,61,-153
23.756,23.39,0.82,8.63,-9.88,1.78,-0.59,0.41,0.30,1.19,0.39,69.00,207.00,588.00,788.00,1015.00,2411.00,707.00,1152.00,,,,,,,,,,,,0,0,0,,-3088,16004,-596,-95,225,-167
23.819,23.45,0.82,6.33,-7.71,0.10,0.35,0.72,0.07,2.20,-0.05,64.00,214.00,576.00,821.00,1022.00,2396.00,711.00,1120.00,,,,,,,,,,,,0,0,0,,-2988,15976,-444,-123,213,-110
23.86,23.50,0.84,10.57,-11.82,3.07,-2.88,1.20,-0.71,3.03,-1.36,74.00,202.00,650.00,796.00,1057.00,2401.00,752.00,1123.00,,,,,,,,,,,,0,0,0,,-2900,15992,-468,-78,176,-142
23.921,23.56,0.81,12.72,-14.44,2.10,-1.26,0.28,0.06,0.90,0.31,82.00,199.00,606.00,792.00,1031.00,2439.00,714.00,1168.00,,,,,,,,,,,,0,0,0,,-3052,15900,-472,-7,127,-125
23.984,23.61,0.78,1.94,-4.73,0.06,0.14,0.29,0.21,1.65,0.24,59.00,235.00,583.00,827.00,1022.00,2428.00,707.00,1136.00,,,,,,,,,,,,0,0,0,,-3032,15976,-528,10,187,-111
24.085,23.67,0.78,2.59,-1.14,-0.02,0.72,0.78,-0.33,2.22,-0.57,48.00,208.00,566.00,817.00,1043.00,2416.00,731.00,1135.00,,,,,,,,,,,,0,0,0,,-3052,15980,-508,-95,148,-142
24.106,23.72,0.76,10.62,-10.00,1.38,-0.52,0.35,-0.22,1.40,-0.02,67.00,192.00,590.00,799.00,1045.00,2450.00,720.00,1155.00,,,,,,,,,,,,0,0,0,,-3136,16020,-376,-79,74,-91
24.167,23.78,0.71,4.54,-7.11,0.21,-0.22,-0.23,0.48,0.93,0.61,64.00,226.00,593.00,830.00,1017.00,2461.00,702.00,1157.00,,,,,,,,,,,,0,0,0,,-3108,16032,-496,-76,178,-44
24.23,23.83,0.71,-1.33,2.21,-0.82,1.09,0.60,-0.32,2.20,-0.41,43.00,222.00,563.00,835.00,1046.00,2433.00,725.00,1131.00,,,,,,,,,,,,0,0,0,,-3036,15996,-528,-159,105,-169
24.251,23.89,0.72,9.44,-7.87,1.53,-0.13,0.93,-0.50,1.91,-0.19,61.00,190.00,576.00,786.00,1050.00,2413.00,720.00,1137.00,,,,,,,,,,,,0,0,0,,-3056,15988,-428,-106,146,-162
24.312,23.94,0.70,7.27,-7.14,1.52,-0.53,0.40,0.23,1.33,0.34,61.00,203.00,589.00,795.00,1019.00,2416.00,707.00,1147.00,,,,,,,,,,,,0,0,0,,-2972,16020,-496,-26,127,-148
24.354,24.00,0.70,3.23,-4.85,0.30,0.29,0.62,0.18,2.24,-0.27,58.00,224.00,576.00,816.00,1018.00,2399.00,719.00,1125.00,,,,,,,,,,,,0,0,0,,-3044,16052,-400,6,134,-142
24.435,24.05,0.73,4.69,-2.97,1.36,0.03,1.34,-0.69,2.74,-1.05,51.00,201.00,573.00,788.00,1053.00,2386.00,743.00,1126.00,,,,,,,,,,,,0,0,0,,-3056,15984,-436,20,239,-156
24.477,24.11,0.71,12.59,-14.62,2.11,-0.98,0.36,0.24,1.20,0.31,83.00,201.00,597.00,786.00,1019.00,2419.00,710.00,1154.00,,,,,,,,,,,,0,0,0,,-3136,16072,-508,-85,161,-223
24.517,24.16,0.70,0.37,-2.57,0.29,0.16,0.47,0.41,1.98,0.18,54.00,236.00,580.00,819.00,1008.00,2398.00,705.00,1123.00,,,,,,,,,,,,0,0,0,,-2960,16156,-500,-24,101,-140
24.579,24.22,0.73,3.71,-1.52,0.61,0.57,1.37,-0.56,3.01,-1.01,48.00,201.00,564.00,800.00,1045.00,2375.00,738.00,1113.00,,,,,,,,,,,,0,0,0,,-3000,15920,-544,89,92,-208
24.642,24.27,0.73,9.54,-8.79,1.99,-0.57,0.74,-0.19,1.50,0.26,64.00,194.00,585.00,781.00,1036.00,2411.00,708.00,1142.00,,,,,,,,,,,,0,0,0,,-3160,16052,-488,80,55,-192
24.683,24.33,0.70,4.02,-4.14,0.98,-0.17,0.15,0.61,1.61,0.62,55.00,213.00,583.00,804.00,1003.00,2416.00,693.00,1126.00,,,,,,,,,,,,0,0,0,,-3080,16032,-472,-52,101,-171
24.745,24.38,0.71,0.40,1.20,-0.12,0.95,0.86,-0.21,2.56,-0.48,44.00,213.00,560.00,815.00,1035.00,2401.00,723.00,1117.00,,,,,,,,,,,,0,0,0,,-2980,15988,-692,-145,109,-149
24.806,24.44,0.70,9.54,-8.79,1.74,-0.48,0.53,-0.26,1.65,-0.12,64.00,194.00,585.00,787.00,1044.00,2436.00,721.00,1147.00,,,,,,,,,,,,0,0,0,,-3020,16040,-420,-143,88,-175
24.869,24.49,0.66,5.09,-6.41,0.61,-0.36,-0.18,0.53,1.02,0.61,61.00,217.00,593.00,820.00,1013.00,2452.00,701.00,1153.00,,,,,,,,,,,,0,0,0,,-3008,16064,-428,-48,119,-155
24.91,24.55,0.64,-0.56,-0.08,-0.56,0.61,0.24,-0.00,1.71,-0.14,48.00,229.00,575.00,837.00,1035.00,2447.00,721.00,1145.00,,,,,,,,,,,,0,0,0,,-2964,15960,-480,-12,107,-187
24.972,24.60,0.63,6.73,-8.13,0.19,0.04,0.57,-0.59,2.13,-1.06,65.00,213.00,585.00,825.00,1062.00,2453.00,752.00,1154.00,,,,,,,,,,,,0,0,0,,-3048,15808,-492,-36,76,-212
25.034,24.66,0.59,9.59,-13.39,0.96,-1.33,-0.18,-0.02,0.47,0.27,82.00,219.00,621.00,830.00,1044.00,2489.00,721.00,1189.00,,,,,,,,,,,,0,0,0,,-3080,16176,-544,-135,190,-180
25.096,24.71,0.58,0.59,-4.89,-0.73,0.28,0.34,-0.00,1.60,-0.08,61.00,249.00,587.00,850.00,1033.00,2437.00,720.00,1148.00,,,,,,,,,,,,0,0,0,,-3040,15984,-508,-213,148,-257
25.176,24.77,0.61,4.20,-3.51,0.92,0.11,1.11,-0.61,2.74,-1.05,53.00,208.00,575.00,800.00,1053.00,2403.00,743.00,1126.00,,,,,,,,,,,,0,0,0,,-3036,15956,-532,-154,41,-182
25.197,24.82,0.60,12.69,-14.20,2.20,-1.08,0.43,0.15,1.30,0.20,81.00,198.00,599.00,785.00,1023.00,2419.00,713.00,1153.00,,,,,,,,,,,,0,0,0,,-2996,16028,-324,-104,89,-184
25.239,24.88,0.59,6.63,-7.81,0.91,-0.11,0.35,0.45,1.79,0.19,64.00,212.00,582.00,805.00,1008.00,2407.00,707.00,1131.00,,,,,,,,,,,,0,0,0,,-3068,15988,-416,-83,201,-216
25.322,24.93,0.61,1.18,0.94,0.03,0.96,1.04,-0.20,2.67,-0.55,44.00,208.00,558.00,810.00,1031.00,2383.00,724.00,1114.00,,,,,,,,,,,,0,0,0,,-3048,16032,-636,-47,182,-152
25.362,24.99,0.62,10.13,-9.28,1.78,-0.40,0.82,-0.34,1.80,-0.15,65.00,192.00,582.00,784.00,1043.00,2413.00,720.00,1141.00,,,,,,,,,,,,0,0,0,,-2956,15900,-432,-136,87,-71
25.403,25.04,0.60,6.01,-6.72,0.98,-0.26,0.23,0.47,1.39,0.59,61.00,211.00,586.00,806.00,1009.00,2417.00,697.00,1137.00,,,,,,,,,,,,0,0,0,,-3008,15948,-468,-78,111,-122
25.465,25.10,0.61,2.17,-1.75,-0.38,0.97,0.85,-0.17,2.36,-0.29,50.00,215.00,562.00,823.00,1033.00,2399.00,718.00,1120.00,,,,,,,,,,,,0,0,0,,-3052,15952,-636,-61,108,-235
25.545,25.15,0.62,15.13,-10.09,1.02,-0.28,0.80,-0.40,2.11,-0.61,62.00,161.00,586.00,805.00,1047.00,2419.00,734.00,1141.00,,,,,,,,,,,,0,0,0,,-3100,15988,-500,-89,29,-156
25.566,25.21,0.60,9.59,-12.70,1.26,-0.85,0.10,0.08,0.40,0.81,79.00,215.00,602.00,810.00,1033.00,2455.00,701.00,1175.00,,,,,,,,,,,,0,0,0,,-3036,15836,-420,-167,144,-170
25.628,25.26,0.58,0.29,-3.54,-0.76,0.42,0.35,-0.07,1.60,-0.08,57.00,243.00,583.00,848.00,1037.00,2441.00,720.00,1148.00,,,,,,,,,,,,0,0,0,,-3064,15964,-504,-149,202,-190
25.67,25.32,0.59,4.25,-5.51,0.25,-0.05,0.81,-0.72,2.23,-0.95,59.00,219.00,587.00,825.00,1065.00,2439.00,746.00,1146.00,,,,,,,,,,,,0,0,0,,-3144,15956,-456,-105,101,-132
25.731,25.37,0.57,12.54,-16.70,1.28,-1.16,0.01,-0.12,0.53,0.28,93.00,213.00,612.00,816.00,1046.00,2477.00,720.00,1186.00,,,,,,,,,,,,0,0,0,,-3024,15940,-496,-94,120,-132
25.794,25.43,0.51,0.72,-4.63,-0.86,0.17,-0.47,0.61,0.95,0.29,60.00,246.00,592.00,857.00,1014.00,2475.00,714.00,1166.00,,,,,,,,,,,,0,0,0,,-3068,16028,-460,-126,104,-162
25.855,25.48,0.51,1.46,-2.24,0.42,0.25,0.38,-0.42,1.63,-0.45,52.00,224.00,576.00,813.00,1056.00,2461.00,734.00,1158.00,,,,,,,,,,,,0,0,0,,-3096,15964,-168,-108,76,-108
25.896,25.54,0.48,8.16,-9.72,0.43,-0.54,-0.09,-0.26,0.68,0.15,69.00,210.00,601.00,830.00,1056.00,2496.00,723.00,1183.00,,,,,,,,,,,,0,0,0,,-3036,15864,-412,-172,85,-58
25.957,25.59,0.42,3.54,-6.77,-0.58,-0.32,-0.70,0.55,0.50,0.68,64.00,233.00,605.00,859.00,1022.00,2502.00,705.00,1175.00,,,,,,,,,,,,0,0,0,,-3040,16080,-340,-117,131,-308
26.019,25.65,0.42,-0.56,-0.08,-0.67,0.68,0.52,-0.18,2.01,-0.40,48.00,229.00,574.00,839.00,1040.00,2432.00,727.00,1139.00,,,,,,,,,,,,0,0,0,,-3072,15908,-432,-112,99,-141
26.081,25.70,0.43,6.34,-5.58,1.31,-0.47,0.59,-0.26,1.60,-0.34,57.00,202.00,589.00,800.00,1043.00,2430.00,730.00,1156.00,,,,,,,,,,,,0,0,0,,-3024,15968,-344,-51,100,-213
26.124,25.76,0.41,6.79,-9.26,0.62,-0.33,0.04,0.32,0.92,0.25,69.00,219.00,592.00,819.00,1021.00,2445.00,716.00,1169.00,,,,,,,,,,,,0,0,0,,-3064,16092,-440,-104,69,-174
26.187,25.81,0.41,-1.07,-0.29,-0.53,0.57,0.37,0.19,1.49,-0.04,49.00,235.00,576.00,837.00,1022.00,2422.00,720.00,1152.00,,,,,,,,,,,,0,0,0,,-3100,15964,-396,-73,82,-133
26.269,25.87,0.44,6.73,-8.13,0.89,-0.36,0.91,-0.62,2.23,-1.25,65.00,213.00,590.00,811.00,1057.00,2422.00,758.00,1155.00,,,,,,,,,,,,0,0,0,,-3084,16052,-464,-97,77,-202
26.289,25.92,0.43,12.49,-16.29,1.42,-1.09,0.22,0.00,0.60,0.31,91.00,211.00,608.00,810.00,1035.00,2448.00,718.00,1182.00,,,,,,,,,,,,0,0,0,,-3088,16052,-416,-166,75,-145
26.351,25.98,0.41,1.12,-4.77,-0.71,0.34,0.20,0.30,2.29,-0.21,60.00,243.00,585.00,848.00,1019.00,2431.00,716.00,1121.00,,,,,,,,,,,,0,0,0,,-3088,15948,-376,-107,76,-186
26.392,26.03,0.44,1.42,-1.50,0.13,0.44,0.89,-0.42,2.17,-0.73,50.00,220.00,573.00,818.00,1046.00,2411.00,738.00,1142.00,,,,,,,,,,,,0,0,0,,-3024,16040,-320,-36,-1,-173
26.454,26.09,0.43,9.10,-10.56,1.22,-0.56,0.37,-0.13,0.84,0.17,71.00,207.00,593.00,805.00,1040.00,2443.00,720.00,1175.00,,,,,,,,,,,,0,0,0,,-3044,15948,-564,-57,47,-232
26.517,26.14,0.40,3.96,-6.92,0.07,-0.14,-0.28,0.64,0.83,0.70,64.00,230.00,592.00,833.00,1009.00,2455.00,700.00,1159.00,,,,,,,,,,,,0,0,0,,-3084,15932,-464,-162,155,-149
26.557,26.20,0.40,-1.91,2.40,-0.81,0.76,0.50,-0.18,1.77,-0.39,43.00,226.00,573.00,842.00,1040.00,2433.00,730.00,1150.00,,,,,,,,,,,,0,0,0,,-3116,15912,-384,-208,174,-98
26.66,26.25,0.40,7.67,-8.45,0.77,-0.41,0.30,-0.31,1.13,-0.25,65.00,207.00,593.00,816.00,1051.00,2461.00,733.00,1175.00,,,,,,,,,,,,0,0,0,,-3092,16120,-404,-139,111,-146
26.701,26.31,0.36,5.79,-9.45,-0.02,-0.45,-0.43,0.44,0.31,0.50,71.00,229.00,603.00,843.00,1023.00,2483.00,714.00,1189.00,,,,,,,,,,,,0,0,0,,-3112,16016,-408,-50,89,-147
26.722,26.36,0.34,1.79,-5.30,-0.87,0.27,-0.01,-0.10,0.86,0.14,61.00,240.00,589.00,855.00,1045.00,2477.00,721.00,1175.00,,,,,,,,,,,,0,0,0,,-3152,15976,-356,-47,96,-166
26.784,26.42,0.34,3.40,-6.73,-0.25,-0.25,0.32,-0.73,1.45,-1.08,64.00,234.00,599.00,846.00,1075.00,2487.00,762.00,1186.00,,,,,,,,,,,,0,0,0,,-3012,15996,-340,-100,97,-171
26.846,26.47,0.29,9.89,-15.00,0.51,-1.23,-0.57,-0.01,-0.47,0.64,89.00,226.00,623.00,843.00,1051.00,2527.00,719.00,1222.00,,,,,,,,,,,,0,0,0,,-3112,15988,-292,-75,102,-215
26.907,26.53,0.26,-5.34,1.52,-1.80,0.27,-0.43,0.10,0.36,0.31,48.00,265.00,599.00,887.00,1042.00,2506.00,721.00,1193.00,,,,,,,,,,,,0,0,0,,-3164,16156,-412,-127,154,-108
26.947,26.58,0.27,4.11,-6.97,-0.78,0.14,0.61,-0.81,1.73,-1.05,64.00,229.00,592.00,855.00,1074.00,2464.00,757.00,1172.00,,,,,,,,,,,,0,0,0,,-3280,15980,-400,-126,129,-244
27.009,26.64,0.27,7.13,-8.55,1.23,-1.09,0.20,-0.09,0.57,0.19,66.00,212.00,610.00,816.00,1041.00,2457.00,723.00,1187.00,,,,,,,,,,,,0,0,0,,-3116,15936,-332,-48,127,-130
27.07,26.69,0.25,2.90,-5.67,0.14,-0.07,-0.16,0.60,0.78,0.48,61.00,232.00,589.00,829.00,1009.00,2446.00,709.00,1168.00,,,,,,,,,,,,0,0,0,,-3196,15996,-200,-49,153,-131
27.131,26.75,0.27,0.31,-0.38,-0.59,0.88,0.71,-0.25,1.62,-0.34,48.00,223.00,567.00,832.00,1040.00,2418.00,730.00,1155.00,,,,,,,,,,,,0,0,0,,-3256,16072,-508,-43,128,-145
27.173,26.80,0.28,8.56,-9.58,1.13,-0.53,0.50,-0.34,0.83,0.13,68.00,206.00,593.00,807.00,1049.00,2444.00,722.00,1177.00,,,,,,,,,,,,0,0,0,,-3196,15968,-472,-56,183,-121
27.234,26.86,0.26,3.93,-7.19,0.18,-0.30,-0.18,0.55,0.43,0.78,65.00,232.00,596.00,833.00,1012.00,2451.00,702.00,1175.00,,,,,,,,,,,,0,0,0,,-3112,16020,-428,-175,142,-148
27.275,26.91,0.27,-1.96,0.39,-0.85,0.77,0.40,-0.04,1.08,0.04,48.00,239.00,573.00,843.00,1034.00,2434.00,722.00,1168.00,,,,,,,,,,,,0,0,0,,-2992,16032,-388,-129,164,-141
27.336,26.97,0.30,4.17,-6.40,0.03,-0.13,0.85,-0.72,1.53,-0.81,62.00,225.00,592.00,834.00,1064.00,2435.00,750.00,1174.00,,,,,,,,,,,,0,0,0,,-3056,15964,-300,-29,52,-150
27.378,27.02,0.27,8.23,-13.37,0.84,-1.11,-0.12,0.03,0.01,0.43,84.00,231.00,615.00,829.00,1040.00,2480.00,721.00,1206.00,,,,,,,,,,,,0,0,0,,-3136,16152,-296,-37,45,-162
27.44,27.08,0.27,0.20,-5.65,-1.36,0.43,0.21,-0.08,0.77,0.02,64.00,258.00,589.00,868.00,1040.00,2455.00,727.00,1183.00,,,,,,,,,,,,0,0,0,,-3152,15888,-336,-103,185,-111
27.503,27.13,0.30,3.96,-6.92,-0.74,0.26,0.75,-0.82,1.45,-0.98,64.00,230.00,588.00,851.00,1072.00,2451.00,758.00,1183.00,,,,,,,,,,,,0,0,0,,-3072,16000,-224,-151,246,-105
27.545,27.19,0.27,11.04,-16.20,0.56,-1.13,-0.19,-0.07,-0.17,0.39,93.00,223.00,619.00,839.00,1047.00,2493.00,725.00,1216.00,,,,,,,,,,,,0,0,0,,-3052,16052,-244,-99,194,-109
27.605,27.24,0.24,6.16,-13.11,-1.10,0.10,-0.41,0.45,0.14,0.49,86.00,249.00,597.00,867.00,1022.00,2480.00,717.00,1198.00,,,,,,,,,,,,0,0,0,,-2996,16056,-228,-24,172,-102
27.687,27.30,0.24,-0.97,-1.06,-1.11,0.54,0.30,-0.34,1.28,-0.48,51.00,239.00,583.00,857.00,1053.00,2463.00,740.00,1175.00,,,,,,,,,,,,0,0,0,,-3132,16052,-344,18,140,-95
27.747,27.35,0.22,9.19,-12.79,0.42,-0.66,-0.15,-0.24,0.07,0.18,80.00,219.00,605.00,833.00,1056.00,2501.00,730.00,1211.00,,,,,,,,,,,,0,0,0,,-2972,16044,-184,13,95,-90
27.768,27.41,0.19,3.25,-8.07,-0.71,-0.40,-0.49,0.17,-0.33,0.80,69.00,244.00,609.00,865.00,1039.00,2507.00,711.00,1210.00,,,,,,,,,,,,0,0,0,,-3012,16124,-340,66,126,-203
27.828,27.46,0.16,-1.03,-1.76,-1.88,0.73,-0.25,-0.22,0.60,-0.23,53.00,244.00,585.00,879.00,1057.00,2510.00,739.00,1199.00,,,,,,,,,,,,0,0,0,,-3120,15992,-440,-16,163,-55
27.89,27.52,0.17,5.04,-8.67,0.21,-1.10,0.20,-0.69,0.22,-0.08,69.00,231.00,622.00,850.00,1075.00,2496.00,738.00,1212.00,,,,,,,,,,,,0,0,0,,-3096,16036,-208,-137,96,-138
27.953,27.57,0.15,6.24,-10.11,0.15,-0.75,-0.15,0.02,-0.20,0.37,73.00,229.00,611.00,844.00,1041.00,2483.00,726.00,1218.00,,,,,,,,,,,,0,0,0,,-3108,15972,-320,-102,102,-115
28.015,27.63,0.15,2.30,-8.01,-1.09,0.25,0.22,-0.09,0.30,0.28,70.00,253.00,592.00,863.00,1040.00,2454.00,723.00,1197.00,,,,,,,,,,,,0,0,0,,-3056,16104,-304,-87,115,-140
28.117,27.68,0.19,4.50,-7.38,-0.05,-0.10,0.82,-0.88,1.17,-1.11,65.00,228.00,592.00,836.00,1074.00,2448.00,767.00,1200.00,,,,,,,,,,,,0,0,0,,-3056,16072,-340,-61,184,-108
28.158,27.74,0.18,10.68,-15.68,1.09,-1.43,-0.05,-0.12,-0.48,0.44,91.00,223.00,623.00,828.00,1047.00,2483.00,727.00,1229.00,,,,,,,,,,,,0,0,0,,-3096,16008,-396,-49,189,-75
28.179,27.79,0.16,0.06,-4.41,-0.90,0.18,-0.11,0.33,0.18,0.40,60.00,251.00,592.00,858.00,1023.00,2459.00,720.00,1199.00,,,,,,,,,,,,0,0,0,,-3060,15984,-428,-97,175,-200
28.221,27.85,0.18,-0.56,-0.08,-0.96,0.71,0.64,-0.44,0.95,-0.47,48.00,229.00,576.00,848.00,1052.00,2437.00,744.00,1190.00,,,,,,,,,,,,0,0,0,,-3088,16016,-452,-123,62,-178
28.282,27.90,0.20,9.23,-11.12,0.93,-0.65,0.52,-0.47,0.27,0.14,73.00,209.00,599.00,816.00,1056.00,2450.00,729.00,1203.00,,,,,,,,,,,,0,0,0,,-3088,16112,-448,-45,-25,-199
28.343,27.96,0.18,2.57,-6.45,-0.20,-0.24,-0.26,0.38,0.01,0.61,64.00,240.00,598.00,844.00,1023.00,2470.00,714.00,1200.00,,,,,,,,,,,,0,0,0,,-3084,15896,-272,-15,-10,-229
28.404,28.01,0.20,-1.82,0.34,-1.04,0.74,0.55,-0.48,1.07,-0.48,48.00,238.00,576.00,850.00,1056.00,2448.00,743.00,1185.00,,,,,,,,,,,,0,0,0,,-3092,15932,-236,-52,109,-175
28.424,28.07,0.20,7.10,-9.89,0.23,-0.38,0.31,-0.52,0.11,-0.09,71.00,220.00,598.00,833.00,1063.00,2474.00,740.00,1218.00,,,,,,,,,,,,0,0,0,,-3128,15928,-388,-162,137,-183
28.486,28.12,0.18,4.93,-9.92,-0.08,-0.68,-0.23,-0.04,-0.28,0.40,74.00,240.00,611.00,850.00,1046.00,2495.00,726.00,1221.00,,,,,,,,,,,,0,0,0,,-3080,15972,-292,-124,185,-153
28.547,28.18,0.17,1.60,-6.69,-1.44,0.21,-0.03,-0.19,0.16,-0.08,66.00,251.00,597.00,876.00,1051.00,2486.00,739.00,1215.00,,,,,,,,,,,,0,0,0,,-3176,16080,-256,-117,169,-87
28.588,28.23,0.17,3.45,-7.59,-0.46,-0.34,0.25,-0.76,0.66,-0.84,67.00,239.00,604.00,855.00,1078.00,2496.00,763.00,1216.00,,,,,,,,,,,,0,0,0,,-3036,15968,-316,-19,183,-128
28.65,28.29,0.14,9.08,-15.74,-0.22,-1.08,-0.46,-0.17,-1.25,0.62,94.00,238.00,626.00,864.00,1058.00,2527.00,730.00,1261.00,,,,,,,,,,,,0,0,0,,-3124,15912,-288,-1,107,-229
28.713,28.34,0.12,-0.79,-5.60,-1.65,-0.12,-0.31,-0.15,-0.05,0.12,65.00,268.00,610.00,891.00,1054.00,2511.00,734.00,1219.00,,,,,,,,,,,,0,0,0,,-3092,16260,-404,-71,149,-226
28.754,28.40,0.15,3.26,-6.68,-1.04,0.39,0.63,-0.85,0.92,-0.83,64.00,235.00,587.00,858.00,1076.00,2465.00,759.00,1203.00,,,,,,,,,,,,0,0,0,,-2980,15896,-352,-158,124,-277
28.857,28.45,0.16,9.19,-12.79,0.87,-0.87,0.36,-0.36,-0.04,0.34,80.00,219.00,607.00,823.00,1053.00,2459.00,725.00,1211.00,,,,,,,,,,,,0,0,0,,-3024,16012,-276,-124,27,-189
28.878,28.51,0.15,4.57,-7.97,-0.16,-0.16,0.12,0.25,0.24,0.43,67.00,231.00,595.00,841.00,1023.00,2442.00,718.00,1195.00,,,,,,,,,,,,0,0,0,,-3084,16080,-272,-130,84,-191
28.919,28.56,0.18,-0.56,-0.08,-0.73,0.63,0.68,-0.26,0.96,-0.32,48.00,229.00,576.00,842.00,1041.00,2421.00,738.00,1185.00,,,,,,,,,,,,0,0,0,,-3132,15868,-300,-74,134,-225
29.003,28.62,0.20,7.91,-8.81,0.95,-0.44,0.53,-0.45,0.20,0.11,66.00,207.00,592.00,811.00,1055.00,2448.00,731.00,1207.00,,,,,,,,,,,,0,0,0,,-3080,15924,-384,-10,181,-194
29.045,28.67,0.19,5.99,-9.25,-0.61,0.95,-0.05,0.31,-0.16,0.61,70.00,226.00,565.00,831.00,1023.00,2454.00,716.00,1208.00,,,,,,,,,,,,0,0,0,,-3072,15944,-296,-142,147,-110
29.107,28.73,0.20,-0.84,-1.11,-0.79,0.46,0.41,-0.17,0.39,0.04,51.00,238.00,582.00,848.00,1041.00,2441.00,731.00,1200.00,,,,,,,,,,,,0,0,0,,-3076,15968,-324,-121,115,-150
29.212,28.78,0.23,5.04,-7.85,0.07,-0.14,0.87,-0.86,0.77,-0.61,66.00,226.00,592.00,833.00,1072.00,2442.00,752.00,1203.00,,,,,,,,,,,,0,0,0,,-3092,15848,-252,-62,65,-164
29.232,28.84,0.22,9.48,-14.23,0.84,-1.29,-0.01,-0.13,-0.58,0.50,86.00,225.00,621.00,833.00,1047.00,2480.00,726.00,1232.00,,,,,,,,,,,,0,0,0,,-3088,15912,-184,-66,20,-166
29.275,28.89,0.22,1.87,-6.78,-1.10,0.22,0.20,-0.24,0.34,0.04,66.00,249.00,593.00,864.00,1049.00,2466.00,732.00,1203.00,,,,,,,,,,,,0,0,0,,-3052,15916,-108,-86,160,-159
29.337,28.95,0.22,3.19,-5.77,-0.52,0.05,0.18,0.02,0.92,-0.83,61.00,230.00,592.00,848.00,1035.00,2451.00,759.00,1203.00,,,,,,,,,,,,0,0,0,,-3052,16012,-256,-112,204,-143
29.357,29.00,0.20,11.13,-15.83,1.19,-1.52,-0.04,-0.30,-0.47,0.33,91.00,220.00,625.00,827.00,1057.00,2494.00,731.00,1232.00,,,,,,,,,,,,0,0,0,,-2912,16052,-336,-78,188,-144
29.418,29.06,0.18,-2.63,0.62,-0.56,-0.27,-0.28,0.07,-0.18,0.49,48.00,244.00,603.00,857.00,1041.00,2493.00,721.00,1213.00,,,,,,,,,,,,0,0,0,,-3152,15968,-176,-5,153,-135
29.479,29.11,0.19,-2.09,0.43,-1.01,0.57,0.41,-0.62,0.76,-0.53,48.00,240.00,581.00,853.00,1067.00,2471.00,749.00,1201.00,,,,,,,,,,,,0,0,0,,-3100,15972,-296,-74,112,-173
29.561,29.17,0.18,8.14,-11.25,0.29,-0.65,0.08,-0.56,-0.22,0.13,75.00,219.00,606.00,837.00,1070.00,2500.00,736.00,1227.00,,,,,,,,,,,,0,0,0,,-3100,16128,-340,-28,113,-105
29.582,29.22,0.15,6.05,-11.74,-0.51,-0.56,-0.58,0.06,-0.76,0.74,80.00,241.00,612.00,862.00,1047.00,2523.00,719.00,1233.00,,,,,,,,,,,,0,0,0,,-3100,15976,-404,-69,124,-63
29.643,29.28,0.15,-2.90,0.70,-1.77,0.57,0.14,-0.46,0.19,-0.09,48.00,246.00,589.00,879.00,1063.00,2487.00,739.00,1214.00,,,,,,,,,,,,0,0,0,,-3044,15972,-236,-148,95,-231
29.704,29.33,0.17,4.71,-8.82,-0.12,-0.26,0.63,-0.78,0.72,-0.59,70.00,235.00,598.00,842.00,1072.00,2460.00,752.00,1205.00,,,,,,,,,,,,0,0,0,,-3132,15940,-212,-141,133,-131
29.744,29.39,0.16,7.18,-10.17,0.92,-1.13,0.02,-0.02,-0.40,0.41,72.00,221.00,615.00,827.00,1040.00,2469.00,727.00,1226.00,,,,,,,,,,,,0,0,0,,-3168,15848,-336,-111,151,-109
29.807,29.44,0.17,1.10,-5.95,-0.75,0.23,0.36,-0.13,0.45,0.02,64.00,251.00,589.00,852.00,1040.00,2444.00,731.00,1198.00,,,,,,,,,,,,0,0,0,,-3156,16048,-240,-97,170,-178
29.869,29.50,0.21,4.39,-7.06,0.48,-0.25,0.98,-0.90,1.23,-1.01,64.00,227.00,591.00,822.00,1072.00,2434.00,762.00,1194.00,,,,,,,,,,,,0,0,0,,-3192,15904,-196,-10,156,-103
29.951,29.55,0.22,11.28,-15.88,1.36,-1.28,0.28,-0.32,-0.67,0.63,91.00,219.00,615.00,816.00,1052.00,2464.00,722.00,1232.00,,,,,,,,,,,,0,0,0,,-3032,15996,-296,-90,128,-196
29.971,29.61,0.22,1.36,-6.33,-0.24,-0.04,0.28,-0.05,0.40,0.32,65.00,251.00,592.00,841.00,1037.00,2446.00,720.00,1191.00,,,,,,,,,,,,0,0,0,,-3108,15996,-392,-104,143,-80
30.013,29.66,0.25,3.23,-4.85,-0.21,0.36,0.84,-0.49,0.96,-0.32,58.00,224.00,579.00,831.00,1051.00,2421.00,738.00,1185.00,,,,,,,,,,,,0,0,0,,-3192,15972,-332,-19,110,-197
30.075,29.72,0.27,8.09,-9.96,2.71,-2.67,0.57,-0.52,0.15,0.25,70.00,212.00,647.00,803.00,1058.00,2449.00,726.00,1205.00,,,,,,,,,,,,1,0,0,,-3124,15952,-352,-40,56,-175
30.137,29.77,0.25,3.79,-7.15,0.39,-0.34,-0.03,0.09,-0.05,0.60,65.00,233.00,595.00,827.00,1035.00,2467.00,715.00,1203.00,,,,,,,,,,,,1,0,0,,-3064,15888,-216,-58,109,-123
30.179,29.83,0.27,-1.40,0.20,-0.67,0.55,0.59,-0.51,1.02,-0.34,48.00,235.00,578.00,842.00,1057.00,2446.00,738.00,1183.00,,,,,,,,,,,,1,0,0,,-3236,15900,-80,-124,237,-137
30.241,29.88,0.28,7.17,-9.65,0.72,-0.42,0.41,-0.62,0.39,-0.36,70.00,218.00,594.00,818.00,1067.00,2471.00,747.00,1213.00,,,,,,,,,,,,1,0,0,,-3048,16124,-220,-89,204,-135
30.344,29.94,0.25,6.47,-11.41,0.24,-0.66,-0.20,-0.07,-0.30,0.15,78.00,235.00,607.00,839.00,1047.00,2494.00,736.00,1230.00,,,,,,,,,,,,1,0,0,,-3028,15920,-344,3,177,-111
30.364,29.99,0.24,0.83,-6.43,-1.29,0.28,0.02,-0.34,0.03,0.11,66.00,257.00,593.00,869.00,1058.00,2490.00,733.00,1215.00,,,,,,,,,,,,1,0,0,,-3020,16096,-320,15,157,-171
30.405,30.05,0.26,3.12,-6.63,-0.08,-0.18,0.53,-1.04,0.45,-0.62,64.00,236.00,595.00,839.00,1089.00,2487.00,757.00,1219.00,,,,,,,,,,,,1,0,0,,-3100,15984,-404,-24,166,-146
30.468,30.10,0.23,8.91,-15.48,0.92,-1.66,-0.30,-0.38,-0.84,0.26,93.00,238.00,633.00,839.00,1067.00,2525.00,739.00,1253.00,,,,,,,,,,,,1,0,0,,-3036,15944,-220,24,155,-235
30.53,30.16,0.20,-1.87,-5.24,-1.38,-0.06,-0.33,-0.20,-0.10,0.18,65.00,277.00,605.00,880.00,1057.00,2516.00,732.00,1219.00,,,,,,,,,,,,1,0,0,,-3048,16152,-452,-43,160,-147
30.572,30.21,0.21,1.79,-5.30,-0.58,0.23,0.47,-0.68,0.77,-0.51,61.00,240.00,587.00,846.00,1069.00,2469.00,748.00,1200.00,,,,,,,,,,,,1,0,0,,-3068,15904,-288,-120,147,-197
30.697,30.27,0.23,6.79,-9.26,1.27,-0.83,0.48,-0.46,0.21,-0.02,69.00,219.00,601.00,809.00,1056.00,2453.00,736.00,1211.00,,,,,,,,,,,,1,0,0,,-3120,15940,-192,-102,158,-136
30.717,30.32,0.22,1.66,-4.64,0.23,-0.20,0.04,0.14,-0.01,0.64,59.00,237.00,592.00,829.00,1031.00,2457.00,713.00,1200.00,,,,,,,,,,,,1,0,0,,-3116,16072,-336,-4,193,-141
30.759,30.38,0.25,-2.48,2.60,-0.18,0.67,0.94,-0.61,1.42,-0.55,43.00,230.00,569.00,823.00,1056.00,2419.00,741.00,1171.00,,,,,,,,,,,,1,0,0,,-3220,15968,-184,-6,188,-235
30.82,30.43,0.28,4.80,-4.40,1.82,-0.79,0.73,-0.69,0.61,-0.30,55.00,208.00,594.00,791.00,1065.00,2445.00,742.00,1201.00,,,,,,,,,,,,1,0,0,,-3028,15980,-332,-36,151,-147
30.84,30.49,0.27,4.57,-7.97,0.96,-0.69,0.08,0.05,-0.24,0.51,67.00,231.00,600.00,816.00,1035.00,2459.00,721.00,1215.00,,,,,,,,,,,,1,0,0,,-2976,15960,-288,-127,166,-170
30.902,30.54,0.28,2.44,-6.40,-0.11,0.07,0.44,-0.21,0.54,-0.08,64.00,241.00,587.00,834.00,1043.00,2441.00,734.00,1197.00,,,,,,,,,,,,1,0,0,,-3136,16124,-376,-73,199,-268
30.964,30.60,0.31,4.22,-7.29,0.82,-0.40,0.90,-0.98,1.10,-0.96,65.00,230.00,592.00,814.00,1078.00,2447.00,762.00,1199.00,,,,,,,,,,,,1,0,0,,-3128,15860,-332,18,100,-172
31.088,30.65,0.30,12.76,-20.37,1.51,-1.45,0.11,-0.31,-0.40,0.24,113.00,233.00,619.00,815.00,1055.00,2480.00,734.00,1232.00,,,,,,,,,,,,1,0,0,,-3216,16012,-368,-48,31,-167
31.109,30.71,0.29,0.33,-5.69,-0.63,0.09,0.12,-0.12,0.34,0.06,64.00,257.00,592.00,851.00,1044.00,2466.00,731.00,1202.00,,,,,,,,,,,,1,0,0,,-3084,16036,-292,-116,146,-125
31.15,30.76,0.32,0.97,-3.77,0.10,-0.06,0.89,-1.06,1.26,-1.23,57.00,238.00,589.00,830.00,1083.00,2453.00,771.00,1200.00,,,,,,,,,,,,1,0,0,,-3020,16000,-272,-129,203,-84
31.171,30.82,0.31,9.77,-14.33,1.34,-1.24,0.10,-0.38,-0.17,0.08,86.00,223.00,614.00,816.00,1059.00,2485.00,737.00,1226.00,,,,,,,,,,,,1,0,0,,-3144,16068,-368,-106,185,-95
31.233,30.87,0.28,1.90,-6.22,-0.21,-0.27,-0.17,-0.01,0.01,0.30,64.00,245.00,599.00,845.00,1043.00,2487.00,726.00,1210.00,,,,,,,,,,,,1,0,0,,-3160,16040,-288,-68,135,-63
31.295,30.93,0.28,-2.90,0.70,-0.82,0.50,0.23,-0.49,0.60,-0.33,48.00,246.00,581.00,848.00,1063.00,2480.00,743.00,1202.00,,,,,,,,,,,,1,0,0,,-2908,16032,-416,-14,129,-138
31.336,30.98,0.27,6.51,-9.69,0.84,-0.93,0.04,-0.60,-0.14,-0.18,71.00,224.00,609.00,825.00,1073.00,2506.00,747.00,1233.00,,,,,,,,,,,,1,0,0,,-3008,16096,-424,-29,160,-53
31.418,31.04,0.24,4.25,-8.93,-0.06,-0.62,-0.28,0.07,-0.53,0.61,71.00,240.00,609.00,848.00,1041.00,2493.00,721.00,1226.00,,,,,,,,,,,,1,0,0,,-3116,15968,-356,-136,107,-212
31.479,31.09,0.26,-2.50,0.57,0.33,0.24,0.52,-0.29,0.63,-0.21,48.00,243.00,577.00,816.00,1046.00,2439.00,738.00,1197.00,,,,,,,,,,,,1,0,0,,-3088,15944,-312,-45,151,-175
31.521,31.15,0.28,3.71,-6.54,0.80,-0.45,0.81,-0.84,0.66,-0.57,63.00,230.00,594.00,816.00,1072.00,2447.00,752.00,1207.00,,,,,,,,,,,,1,0,0,,-3100,16100,-280,19,215,-175
31.584,31.20,0.27,7.56,-12.70,1.28,-1.25,0.03,-0.14,-0.42,0.29,82.00,233.00,615.00,818.00,1047.00,2477.00,732.00,1231.00,,,,,,,,,,,,1,0,0,,-3108,16116,-392,38,178,-256
31.624,31.26,0.27,-0.56,-5.11,-0.57,0.14,0.35,-0.18,0.54,-0.23,63.00,262.00,590.00,848.00,1043.00,2448.00,740.00,1202.00,,,,,,,,,,,,1,0,0,,-3080,16052,-324,51,188,-204
31.687,31.31,0.30,1.94,-5.04,0.61,-0.17,0.85,-0.87,1.12,-0.99,60.00,237.00,587.00,816.00,1073.00,2445.00,763.00,1199.00,,,,,,,,,,,,1,0,0,,-3076,16000,-384,-43,111,-181
31.729,31.37,0.31,8.76,-13.98,1.62,-1.43,0.43,-0.40,-0.08,0.10,86.00,230.00,617.00,811.00,1054.00,2455.00,735.00,1221.00,,,,,,,,,,,,1,0,0,,-3164,15972,-504,-63,23,-217
31.79,31.42,0.30,-0.32,-4.59,-0.01,-0.21,0.19,-0.04,0.34,0.04,61.00,256.00,595.00,837.00,1038.00,2454.00,732.00,1203.00,,,,,,,,,,,,1,0,0,,-3024,15876,-316,-48,-37,-226
31.851,31.48,0.32,0.23,-2.52,-0.05,0.21,0.57,-0.40,0.99,-0.56,54.00,237.00,582.00,829.00,1051.00,2441.00,747.00,1191.00,,,,,,,,,,,,1,0,0,,-3188,16048,-420,-63,-8,-151
31.892,31.53,0.32,5.38,-7.68,1.10,-0.89,0.31,-0.59,0.06,-0.02,65.00,222.00,605.00,816.00,1067.00,2479.00,738.00,1218.00,,,,,,,,,,,,1,0,0,,-3212,16044,-368,-183,57,-201
31.954,31.59,0.29,2.91,-7.41,0.09,-0.30,-0.18,0.02,-0.22,0.43,67.00,243.00,597.00,836.00,1042.00,2487.00,724.00,1217.00,,,,,,,,,,,,1,0,0,,-3132,15968,-460,-291,55,-167
32.015,31.64,0.30,-2.11,-0.32,-0.93,0.67,0.42,-0.55,0.83,-0.63,50.00,245.00,577.00,848.00,1063.00,2466.00,752.00,1201.00,,,,,,,,,,,,1,0,0,,-3088,16064,-300,-299,44,-159
32.098,31.70,0.29,4.52,-8.22,0.35,-0.42,0.24,-0.69,0.20,-0.46,68.00,233.00,598.00,830.00,1074.00,2492.00,754.00,1226.00,,,,,,,,,,,,1,0,0,,-3064,16044,-292,-152,-8,-191
32.158,31.75,0.26,5.78,-11.65,0.27,-0.97,-0.44,-0.20,-0.90,0.43,80.00,243.00,617.00,845.00,1059.00,2527.00,733.00,1250.00,,,,,,,,,,,,1,0,0,,-3112,15968,-276,-118,1,-225
32.178,31.81,0.24,-1.78,-4.69,-1.16,-0.16,-0.17,-0.37,0.07,-0.37,63.00,272.00,606.00,875.00,1064.00,2512.00,752.00,1229.00,,,,,,,,,,,,1,0,0,,-3192,16180,-304,-139,134,-260
32.22,31.86,0.25,2.30,-6.36,-0.22,-0.39,0.61,-1.05,0.91,-1.21,64.00,242.00,603.00,848.00,1088.00,2480.00,775.00,1216.00,,,,,,,,,,,,1,0,0,,-3176,15872,-196,-101,94,-264
32.282,31.92,0.25,8.19,-14.43,1.49,-1.56,0.06,-0.24,-0.53,0.15,89.00,238.00,623.00,818.00,1052.00,2480.00,739.00,1241.00,,,,,,,,,,,,1,0,0,,-3184,15940,-96,-54,98,-197
32.365,31.97,0.27,-1.10,-4.02,-0.36,-0.21,0.73,-0.81,0.28,-0.09,60.00,260.00,599.00,849.00,1072.00,2453.00,738.00,1210.00,,,,,,,,,,,,1,0,0,,-3200,16192,-332,-85,200,-122
32.385,32.03,0.29,0.39,-2.92,0.03,0.19,0.78,-0.68,1.06,-0.87,55.00,238.00,582.00,827.00,1063.00,2439.00,759.00,1198.00,,,,,,,,,,,,1,0,0,,-3100,15960,-164,24,177,-257
32.447,32.08,0.30,5.52,-8.56,1.01,-0.58,0.49,-0.49,0.23,-0.20,68.00,226.00,596.00,812.00,1058.00,2455.00,743.00,1216.00,,,,,,,,,,,,1,0,0,,-3080,15964,-304,-44,165,-170
32.529,32.14,0.28,1.90,-6.22,0.30,-0.53,-0.10,0.33,0.10,0.30,64.00,245.00,602.00,834.00,1023.00,2458.00,725.00,1206.00,,,,,,,,,,,,1,0,0,,-3160,15916,-280,-172,75,-121
32.549,32.19,0.31,-1.68,0.29,-0.34,0.50,0.72,-0.48,1.05,-0.70,48.00,237.00,576.00,832.00,1053.00,2432.00,752.00,1193.00,,,,,,,,,,,,1,0,0,,-3132,16112,-132,29,106,-307
32.611,32.25,0.32,5.48,-7.99,1.34,-0.79,0.67,-0.73,0.61,-0.77,66.00,223.00,599.00,806.00,1068.00,2453.00,761.00,1216.00,,,,,,,,,,,,1,0,0,,-3192,15900,-312,151,119,-222
32.653,32.30,0.30,3.55,-7.90,0.51,-0.75,-0.07,-0.01,-0.08,0.15,68.00,240.00,607.00,832.00,1041.00,2477.00,733.00,1219.00,,,,,,,,,,,,1,0,0,,-3260,15848,-396,-32,59,-71
32.715,32.36,0.30,1.36,-6.33,-0.54,-0.00,0.28,-0.35,0.41,-0.39,65.00,251.00,594.00,850.00,1054.00,2466.00,748.00,1213.00,,,,,,,,,,,,1,0,0,,-3184,16016,-360,-74,190,-49
32.777,32.41,0.32,2.57,-6.45,0.18,-0.49,0.64,-1.01,0.80,-1.19,64.00,240.00,602.00,837.00,1085.00,2474.00,776.00,1221.00,,,,,,,,,,,,1,0,0,,-3052,15980,-332,-53,247,-137
32.902,32.47,0.30,7.36,-13.52,1.41,-1.62,-0.17,-0.29,-0.67,-0.02,86.00,240.00,626.00,822.00,1059.00,2506.00,748.00,1254.00,,,,,,,,,,,,1,0,0,,-3052,16120,-400,18,210,-212
32.923,32.52,0.28,-1.41,-5.11,-1.46,0.16,-0.03,-0.30,0.00,-0.17,64.00,271.00,599.00,878.00,1057.00,2493.00,745.00,1226.00,,,,,,,,,,,,1,0,0,,-3108,15960,-348,-182,80,-221
32.965,32.58,0.29,2.66,-7.05,-0.41,-0.01,0.49,-0.97,1.02,-1.44,66.00,243.00,593.00,846.00,1086.00,2487.00,783.00,1218.00,,,,,,,,,,,,1,0,0,,-3108,15972,-308,-58,-73,-240
33.007,32.63,0.26,7.48,-12.90,0.69,-1.32,-0.20,-0.43,-1.22,0.64,83.00,235.00,624.00,839.00,1068.00,2519.00,729.00,1259.00,,,,,,,,,,,,1,0,0,,-3168,16092,-316,-109,4,-209
33.068,32.69,0.24,-0.86,-3.79,0.27,-1.24,-0.22,-0.03,-0.25,0.01,59.00,256.00,626.00,851.00,1045.00,2493.00,741.00,1232.00,,,,,,,,,,,,1,0,0,,-3276,15936,-220,-221,-108,-327
33.11,32.74,0.27,-3.74,3.02,-0.18,0.22,0.73,-0.57,1.07,-0.95,43.00,239.00,583.00,833.00,1058.00,2437.00,762.00,1200.00,,,,,,,,,,,,1,0,0,,-3328,16016,-148,-104,-50,-260
33.172,32.80,0.29,4.76,-6.60,1.55,-1.10,0.67,-0.68,0.18,-0.41,62.00,221.00,607.00,806.00,1065.00,2449.00,752.00,1225.00,,,,,,,,,,,,1,0,0,,-3300,16036,-372,-78,85,-276
33.254,32.85,0.27,2.06,-5.69,0.39,-0.53,0.01,0.31,-0.04,0.19,62.00,240.00,601.00,831.00,1022.00,2449.00,731.00,1216.00,,,,,,,,,,,,1,0,0,,-3224,15872,-272,-36,84,-204
33.275,32.91,0.30,-2.02,0.80,-0.53,0.57,0.83,-0.57,0.95,-0.72,47.00,237.00,576.00,837.00,1056.00,2427.00,754.00,1198.00,,,,,,,,,,,,1,0,0,,-3216,15972,-224,-7,238,-136
33.317,32.96,0.33,3.96,-6.92,0.48,-0.44,0.90,-0.82,1.37,-1.58,64.00,230.00,597.00,826.00,1069.00,2437.00,784.00,1206.00,,,,,,,,,,,,1,0,0,,-3232,16048,-312,-72,231,-268
33.379,33.02,0.32,6.67,-10.26,1.23,-1.09,0.16,-0.10,-0.16,-0.12,73.00,226.00,610.00,816.00,1042.00,2461.00,745.00,1232.00,,,,,,,,,,,,1,0,0,,-3336,16048,-400,41,56,-190
33.441,33.07,0.33,-2.78,-0.81,-0.54,-0.00,0.45,-0.20,0.71,-0.51,52.00,255.00,594.00,850.00,1042.00,2439.00,749.00,1203.00,,,,,,,,,,,,1,0,0,,-3208,15948,-356,-29,20,-327
33.482,33.13,0.35,1.38,-3.58,0.14,-0.20,0.86,-0.86,1.25,-1.37,56.00,233.00,593.00,832.00,1072.00,2443.00,777.00,1205.00,,,,,,,,,,,,1,0,0,,-3320,15924,-348,-175,-19,-253
33.543,33.18,0.35,9.49,-13.58,1.56,-1.61,0.25,-0.41,-0.06,-0.33,83.00,221.00,624.00,817.00,1058.00,2473.00,752.00,1234.00,,,,,,,,,,,,1,0,0,,-3388,15912,-144,-93,53,-210
33.666,33.24,0.34,-0.59,-4.19,-0.48,-0.48,0.13,-0.05,0.53,-0.15,60.00,256.00,609.00,859.00,1040.00,2461.00,737.00,1200.00,,,,,,,,,,,,1,0,0,,-3408,15972,-168,-30,231,-228
33.687,33.29,0.35,-0.93,-0.34,-0.44,0.03,0.55,-0.62,0.90,-0.68,49.00,234.00,592.00,846.00,1064.00,2457.00,753.00,1199.00,,,,,,,,,,,,1,0,0,,-3400,15932,-196,127,219,-214
33.728,33.35,0.35,9.64,-13.62,0.86,-1.17,0.29,-0.58,0.31,-0.35,83.00,220.00,617.00,830.00,1067.00,2480.00,748.00,1217.00,,,,,,,,,,,,1,0,0,,-3348,16012,-444,223,231,-276
33.77,33.40,0.31,1.79,-5.30,-0.13,-1.08,-0.30,0.07,0.08,0.20,61.00,240.00,625.00,861.00,1041.00,2495.00,729.00,1210.00,,,,,,,,,,,,1,0,0,,-3284,15944,-488,176,139,-423
33.831,33.46,0.32,-5.73,5.49,-1.65,0.56,0.43,-0.70,1.17,-0.79,39.00,242.00,588.00,875.00,1071.00,2474.00,754.00,1190.00,,,,,,,,,,,,1,0,0,,-3380,15820,-416,17,203,-434
33.891,33.51,0.31,4.98,-7.26,0.04,-0.81,0.23,-0.80,0.57,-0.61,64.00,223.00,614.00,849.00,1081.00,2501.00,755.00,1213.00,,,,,,,,,,,,1,0,0,,-3420,15876,-376,-141,157,-440
33.995,33.57,0.31,7.58,-12.25,0.34,-1.20,0.12,-0.30,1.64,-0.63,80.00,230.00,624.00,848.00,1054.00,2478.00,741.00,1163.00,,,,,,,,,,,,1,0,0,,-3436,15692,-620,-331,-156,-191
34.016,33.62,0.32,-1.57,-0.50,-0.85,-0.02,0.56,-0.46,0.99,-0.31,50.00,241.00,598.00,861.00,1055.00,2446.00,737.00,1183.00,,,,,,,,,,,,1,0,0,,-3416,16064,-168,-117,-263,-44
34.057,33.68,0.36,1.51,-0.78,0.34,-0.45,1.15,-1.04,1.58,-0.85,48.00,215.00,599.00,831.00,1077.00,2427.00,751.00,1173.00,,,,,,,,,,,,1,0,0,,-3436,15936,12,42,18,-220
34.098,33.73,0.36,9.34,-12.84,1.57,-1.68,0.40,-0.25,0.31,0.07,80.00,218.00,626.00,818.00,1046.00,2448.00,731.00,1203.00,,,,,,,,,,,,1,0,0,,-3548,15868,-260,110,75,-113
34.16,33.79,0.37,-5.73,5.02,-0.69,0.17,0.63,-0.19,1.47,-0.11,40.00,245.00,590.00,851.00,1038.00,2421.00,723.00,1155.00,,,,,,,,,,,,1,0,0,,-3444,15940,-416,28,54,-153
34.201,33.84,0.42,0.90,-0.58,0.13,-0.10,1.19,-0.87,2.35,-1.26,48.00,219.00,590.00,830.00,1066.00,2412.00,757.00,1150.00,,,,,,,,,,,,1,0,0,,-3520,15908,-344,14,105,-86
34.283,33.90,0.44,7.26,-8.02,1.50,-1.30,0.88,-0.50,1.17,-0.19,64.00,208.00,614.00,812.00,1051.00,2418.00,730.00,1171.00,,,,,,,,,,,,1,0,0,,-3340,15876,-500,132,102,-152
34.365,33.95,0.43,1.07,-2.81,0.38,-0.46,0.27,0.24,1.34,0.13,54.00,231.00,599.00,830.00,1021.00,2428.00,715.00,1153.00,,,,,,,,,,,,1,0,0,,-3492,15908,-492,25,127,-175
34.385,34.01,0.48,-4.21,6.46,-0.29,0.29,1.37,-0.70,2.70,-0.88,36.00,222.00,582.00,835.00,1053.00,2384.00,737.00,1123.00,,,,,,,,,,,,1,0,0,,-3396,16028,-276,97,156,-196
34.426,34.06,0.50,6.79,-6.98,1.35,-1.13,0.88,-0.64,1.28,-0.25,61.00,206.00,610.00,813.00,1059.00,2427.00,731.00,1168.00,,,,,,,,,,,,1,0,0,,-3376,15808,-700,20,72,-134
34.487,34.12,0.47,3.37,-5.21,0.54,-0.98,0.03,0.28,0.77,0.53,59.00,225.00,614.00,836.00,1023.00,2448.00,707.00,1167.00,,,,,,,,,,,,1,0,0,,-3444,15928,-428,-95,147,-264
34.527,34.17,0.48,-3.92,4.88,-0.59,0.08,0.67,-0.38,1.56,-0.45,39.00,229.00,592.00,850.00,1048.00,2430.00,735.00,1161.00,,,,,,,,,,,,1,0,0,,-3528,15900,-320,-70,209,-189
34.588,34.23,0.51,1.61,-2.29,0.24,-0.66,0.93,-0.90,1.80,-1.03,52.00,223.00,607.00,839.00,1073.00,2439.00,755.00,1168.00,,,,,,,,,,,,1,0,0,,-3488,16016,-324,61,292,-160
34.649,34.28,0.49,9.19,-12.79,0.75,-1.37,0.17,-0.26,0.37,0.08,80.00,219.00,625.00,838.00,1051.00,2471.00,730.00,1200.00,,,,,,,,,,,,1,0,0,,-3504,16004,-528,96,475,-285
34.773,34.34,0.49,-2.77,0.66,-1.19,-0.03,0.44,-0.41,1.25,-0.25,48.00,245.00,602.00,873.00,1054.00,2454.00,731.00,1169.00,,,,,,,,,,,,1,0,0,,-3544,15912,-372,94,397,-297
34.793,34.39,0.50,2.81,-3.05,-0.01,-0.61,0.81,-0.90,2.07,-1.46,53.00,217.00,608.00,846.00,1075.00,2450.00,769.00,1169.00,,,,,,,,,,,,1,0,0,,-3548,16080,-556,130,376,-86
34.814,34.45,0.50,10.10,-12.40,0.53,-1.45,0.35,-0.16,0.47,0.25,77.00,209.00,630.00,847.00,1042.00,2447.00,722.00,1190.00,,,,,,,,,,,,1,0,0,,-3500,15868,-368,30,347,-300
34.855,34.50,0.50,-0.14,-1.34,0.15,-0.36,0.68,0.08,1.60,-0.08,51.00,233.00,598.00,835.00,1022.00,2399.00,720.00,1148.00,,,,,,,,,,,,1,0,0,,-3540,16000,-620,170,258,-246
34.918,34.56,0.55,-1.63,5.08,0.36,0.20,1.35,-0.30,2.60,-0.78,37.00,208.00,578.00,816.00,1031.00,2361.00,734.00,1124.00,,,,,,,,,,,,1,0,0,,-3496,15904,-484,168,220,-209
34.981,34.61,0.59,7.51,-4.63,2.20,-0.98,1.40,-0.43,1.92,-0.16,53.00,188.00,596.00,783.00,1037.00,2364.00,719.00,1136.00,,,,,,,,,,,,1,0,0,,-3468,16108,-600,189,362,-142
35.043,34.67,0.61,2.59,-1.14,1.31,-0.56,0.96,0.30,1.99,0.23,48.00,208.00,592.00,802.00,1005.00,2359.00,703.00,1121.00,,,,,,,,,,,,1,0,0,,-3572,15848,-868,183,563,-377
35.105,34.72,0.66,-6.58,12.57,0.08,0.52,1.61,-0.25,3.26,-0.77,27.00,207.00,571.00,818.00,1023.00,2333.00,725.00,1095.00,,,,,,,,,,,,1,0,0,,-3608,15856,-944,-94,422,-349
35.145,34.78,0.71,6.43,-2.43,2.43,-0.94,1.65,-0.51,2.43,-0.39,48.00,185.00,592.00,775.00,1037.00,2346.00,721.00,1120.00,,,,,,,,,,,,1,0,0,,-3748,15904,-784,-217,403,-302
35.207,34.83,0.73,6.83,-5.74,1.97,-0.97,1.12,0.10,2.19,-0.10,57.00,199.00,598.00,790.00,1013.00,2357.00,713.00,1122.00,,,,,,,,,,,,1,0,0,,-3732,15900,-832,-186,425,-313
35.268,34.89,0.76,0.56,-0.07,0.58,-0.13,1.42,-0.11,2.83,-0.47,47.00,219.00,586.00,816.00,1019.00,2342.00,719.00,1105.00,,,,,,,,,,,,1,0,0,,-3748,15760,-840,56,309,-209
35.31,34.94,0.82,3.05,-0.91,1.27,-0.36,1.92,-0.99,3.26,-1.44,47.00,203.00,586.00,799.00,1059.00,2351.00,752.00,1115.00,,,,,,,,,,,,1,0,0,,-3768,15860,-996,-11,278,-35
35.374,35.00,0.82,10.95,-12.20,2.57,-1.81,0.91,0.00,1.57,0.16,75.00,201.00,619.00,789.00,1022.00,2382.00,711.00,1142.00,,,,,,,,,,,,1,0,0,,-3632,15648,-864,-173,271,-123
35.496,35.05,0.83,-0.84,0.01,0.04,0.21,0.93,0.20,2.53,-0.16,48.00,231.00,581.00,826.00,1011.00,2368.00,711.00,1109.00,,,,,,,,,,,,1,0,0,,-3692,15776,-1124,-363,161,35
35.516,35.11,0.87,-0.24,4.12,0.97,-0.10,1.67,-0.77,2.52,-0.92,38.00,202.00,581.00,803.00,1051.00,2360.00,741.00,1132.00,,,,,,,,,,,,1,0,0,,-3688,15948,-648,2,-112,192
35.537,35.16,0.87,9.03,-8.62,1.72,-1.07,0.86,0.00,1.94,-0.20,64.00,197.00,604.00,800.00,1023.00,2387.00,720.00,1136.00,,,,,,,,,,,,1,0,0,,-3596,15860,-380,192,429,31
35.577,35.22,0.85,1.97,-0.93,0.73,-0.58,0.48,0.40,1.93,0.25,48.00,212.00,599.00,821.00,1008.00,2397.00,703.00,1123.00,,,,,,,,,,,,1,0,0,,-3524,16164,-536,411,637,84
35.64,35.27,0.87,-1.20,4.45,-0.18,0.45,1.22,-0.49,2.76,-0.80,38.00,208.00,576.00,828.00,1044.00,2385.00,733.00,1118.00,,,,,,,,,,,,1,0,0,,-3436,15908,-592,911,742,28
35.682,35.33,0.87,6.51,-3.94,1.43,-0.88,0.89,-0.47,1.87,-0.45,52.00,192.00,601.00,805.00,1049.00,2415.00,731.00,1147.00,,,,,,,,,,,,1,0,0,,-3444,15592,-252,2365,1681,310
35.744,35.38,0.86,5.50,-5.62,0.71,-0.64,0.57,0.38,1.61,0.33,58.00,209.00,601.00,823.00,1008.00,2391.00,704.00,1135.00,,,,,,,,,,,,1,0,0,,-3148,14600,-2228,4783,3080,2709
35.828,35.44,0.88,-4.18,9.21,0.38,0.48,1.33,-0.14,2.85,-0.50,31.00,206.00,569.00,809.00,1022.00,2352.00,720.00,1105.00,,,,,,,,,,,,1,0,0,,-3020,16440,-4564,5328,1671,2457
35.848,35.49,0.91,2.04,1.51,2.03,-0.77,1.52,-0.40,2.76,-0.88,42.00,198.00,591.00,784.00,1033.00,2351.00,736.00,1120.00,,,,,,,,,,,,1,0,0,,-2924,17888,-2240,-156,1977,-1486
35.911,35.55,0.92,9.85,-10.02,2.45,-1.34,1.01,0.17,1.97,-0.21,68.00,198.00,605.00,783.00,1011.00,2362.00,720.00,1135.00,,,,,,,,,,,,1,0,0,,-2992,16840,-1184,-3889,3729,-4609
35.973,35.60,0.95,-1.56,2.72,0.50,-0.00,1.56,0.01,3.30,-0.65,42.00,221.00,583.00,816.00,1010.00,2322.00,720.00,1090.00,,,,,,,,,,,,1,0,0,,-3184,15152,-2100,-5016,2416,-3939
36.035,35.66,1.01,1.42,3.56,2.34,-1.09,2.26,-0.84,4.00,-1.52,38.00,192.00,598.00,781.00,1044.00,2310.00,745.00,1085.00,,,,,,,,,,,,1,0,0,,-4444,14980,-2388,1095,424,-742
36.096,35.71,1.04,11.27,-10.76,3.15,-1.85,1.52,-0.18,2.51,0.03,69.00,191.00,614.00,772.00,1021.00,2337.00,704.00,1104.00,,,,,,,,,,,,1,0,0,,-3896,15108,-3744,3131,-2857,2688
36.138,35.77,1.06,-0.21,1.40,1.24,-0.41,1.36,0.11,3.03,-0.23,44.00,217.00,588.00,801.00,1008.00,2334.00,707.00,1089.00,,,,,,,,,,,,1,0,0,,-2732,15732,-3676,2825,-2694,2922
36.222,35.82,1.09,0.04,5.03,1.03,-0.06,1.79,-0.31,3.63,-0.87,36.00,195.00,579.00,800.00,1023.00,2320.00,724.00,1082.00,,,,,,,,,,,,1,0,0,,-2412,15336,-4624,625,-2383,1848
36.243,35.88,1.11,7.37,-4.23,2.46,-1.41,1.53,-0.44,2.81,-0.41,52.00,187.00,607.00,784.00,1035.00,2352.00,717.00,1104.00,,,,,,,,,,,,1,0,0,,-2316,15348,-3676,-581,-2244,867
36.285,35.93,1.10,1.02,0.99,1.07,-0.85,0.86,0.44,2.49,0.17,44.00,209.00,604.00,816.00,999.00,2359.00,699.00,1101.00,,,,,,,,,,,,1,0,0,,-2272,15976,-2972,-1137,-1708,700
36.346,35.99,1.13,-5.58,10.91,0.18,0.23,1.58,-0.24,3.60,-0.93,29.00,208.00,579.00,821.00,1023.00,2335.00,727.00,1085.00,,,,,,,,,,,,1,0,0,,-2304,17504,-2656,-782,-1826,-157
36.407,36.04,1.15,7.37,-4.23,1.69,-0.94,1.51,-0.52,2.85,-0.50,52.00,187.00,600.00,798.00,1040.00,2359.00,720.00,1105.00,,,,,,,,,,,,1,0,0,,-2520,17764,-808,-474,-2207,-1042
36.449,36.10,1.14,4.53,-2.92,1.15,-0.97,0.97,-0.03,2.47,-0.25,51.00,202.00,607.00,816.00,1023.00,2379.00,715.00,1114.00,,,,,,,,,,,,1,0,0,,-2092,16164,1132,-50,-2117,-244
36.51,36.15,1.14,0.51,0.34,-0.09,-0.09,1.11,-0.08,2.93,-0.45,46.00,217.00,592.00,837.00,1023.00,2369.00,717.00,1100.00,,,,,,,,,,,,1,0,0,,-1796,16388,1928,-332,-1367,-268
36.572,36.21,1.16,4.20,-1.69,0.84,-0.56,1.68,-0.89,3.49,-1.27,48.00,198.00,597.00,817.00,1058.00,2367.00,742.00,1100.00,,,,,,,,,,,,1,0,0,,-2264,16044,1968,249,-700,-978
36.614,36.26,1.15,9.45,-9.61,1.59,-1.48,0.92,-0.01,2.14,-0.19,67.00,199.00,619.00,813.00,1023.00,2383.00,717.00,1127.00,,,,,,,,,,,,1,0,0,,-2704,15820,1044,892,-315,-442
36.675,36.32,1.16,0.65,1.54,0.66,-0.25,1.42,0.12,2.83,0.10,43.00,209.00,589.00,816.00,1006.00,2327.00,697.00,1088.00,,,,,,,,,,,,1,0,0,,-3108,17100,-248,1346,213,-109
36.738,36.37,1.23,1.19,5.70,1.59,0.01,2.47,-1.00,4.23,-1.20,34.00,183.00,571.00,781.00,1049.00,2301.00,729.00,1066.00,,,,,,,,,,,,1,0,1,,-3520,17560,-2180,2445,648,-515
36.801,36.43,1.25,11.29,-8.80,3.08,-1.31,1.62,-0.05,3.26,-0.15,62.00,181.00,597.00,763.00,1012.00,2320.00,701.00,1077.00,,,,,,,,,,,,1,0,1,,-3920,16772,-3896,4782,744,-1952
36.843,36.48,1.26,4.70,-2.61,2.01,-0.61,1.43,0.29,3.37,0.03,50.00,199.00,586.00,781.00,997.00,2316.00,693.00,1067.00,,,,,,,,,,,,1,0,1,,-4808,14320,-5488,4523,1156,-2026
36.924,36.54,1.29,1.06,4.68,1.09,0.61,1.91,-0.20,4.35,-0.67,36.00,189.00,558.00,784.00,1015.00,2303.00,707.00,1046.00,,,,,,,,,,,,1,0,1,,-4872,12328,-6428,3103,2165,-2028
36.944,36.59,1.31,8.75,-5.04,2.70,-1.00,1.64,-0.11,3.48,-0.19,53.00,181.00,591.00,768.00,1015.00,2322.00,700.00,1069.00,,,,,,,,,,,,1,0,1,,-4288,11564,-6020,-1837,1253,-767
37.007,36.65,1.31,5.21,-2.02,2.29,-1.11,1.27,0.25,3.51,0.03,48.00,192.00,599.00,783.00,1002.00,2333.00,691.00,1061.00,,,,,,,,,,,,1,0,1,,-3644,15776,-3420,-6838,317,389
37.071,36.70,1.34,-0.86,6.94,1.36,0.03,1.96,-0.22,4.36,-0.54,33.00,192.00,573.00,788.00,1015.00,2299.00,702.00,1042.00,,,,,,,,,,,,1,0,1,,-4464,18648,-3080,-2303,-968,-1442
37.11,36.76,1.37,5.03,-0.77,2.03,-0.49,2.05,-0.61,4.11,-0.77,45.00,187.00,582.00,778.00,1035.00,2315.00,714.00,1059.00,,,,,,,,,,,,1,0,1,,-5540,16304,-2796,1045,-1963,-568
37.172,36.81,1.37,9.53,-8.20,2.43,-1.37,1.23,0.08,3.17,-0.22,62.00,191.00,606.00,784.00,1012.00,2348.00,705.00,1083.00,,,,,,,,,,,,1,0,1,,-4960,16108,-2892,-7,126,745
37.234,36.87,1.37,1.43,0.03,0.77,-0.41,1.35,-0.07,3.74,-0.52,46.00,211.00,593.00,816.00,1018.00,2346.00,709.00,1067.00,,,,,,,,,,,,1,0,1,,-3288,13960,-3112,-137,1875,424
37.316,36.92,1.39,4.68,-0.65,1.60,-0.66,1.90,-0.90,4.10,-1.35,45.00,189.00,592.00,795.00,1054.00,2347.00,737.00,1076.00,,,,,,,,,,,,1,0,1,,-3312,13164,-3148,-2048,1806,-131
37.357,36.98,1.38,8.40,-9.53,2.49,-1.93,1.08,-0.07,2.72,-0.38,68.00,207.00,624.00,794.00,1023.00,2371.00,717.00,1107.00,,,,,,,,,,,,1,0,1,,-3900,14916,-3000,-4181,2052,-262
37.398,37.03,1.34,1.36,-0.73,0.60,-0.48,0.61,0.68,3.46,-0.45,48.00,216.00,597.00,823.00,991.00,2368.00,710.00,1077.00,,,,,,,,,,,,1,0,1,,-3820,17108,-2484,-3331,1191,150
37.483,37.09,1.35,0.65,4.32,0.74,-0.37,1.48,-0.56,3.66,-0.88,37.00,194.00,592.00,816.00,1043.00,2365.00,724.00,1081.00,,,,,,,,,,,,1,0,1,,-2948,16484,-2544,-1490,-877,1315
37.505,37.14,1.35,6.25,-2.37,1.68,-1.39,1.40,-0.53,3.09,-0.58,48.00,186.00,615.00,808.00,1043.00,2371.00,720.00,1097.00,,,,,,,,,,,,1,0,1,,-2428,14452,-860,-535,-1937,2015
37.566,37.20,1.34,1.59,3.51,1.51,-0.91,1.12,0.28,3.40,-0.22,38.00,191.00,601.00,803.00,1003.00,2345.00,702.00,1073.00,,,,,,,,,,,,1,0,1,,-2344,16204,-476,-149,-1192,2295
37.607,37.25,1.37,-8.76,20.79,1.44,-0.10,1.92,-0.21,4.54,-1.10,18.00,181.00,576.00,788.00,1015.00,2302.00,721.00,1050.00,,,,,,,,,,,,1,0,1,,-2084,18392,-860,954,-70,651
37.669,37.31,1.40,6.99,1.69,3.36,-1.28,1.96,-0.35,4.13,-0.88,38.00,162.00,593.00,754.00,1022.00,2307.00,718.00,1061.00,,,,,,,,,,,,1,0,1,,-2684,17964,-1744,1349,-849,70
37.73,37.36,1.40,5.13,0.91,2.59,-1.02,1.55,0.06,3.38,-0.16,41.00,178.00,593.00,772.00,1007.00,2319.00,700.00,1072.00,,,,,,,,,,,,1,0,1,,-2536,16168,-840,1296,108,329
37.791,37.42,1.42,-0.15,7.27,1.85,-0.55,1.81,-0.17,4.25,-0.95,32.00,185.00,586.00,785.00,1015.00,2310.00,719.00,1058.00,,,,,,,,,,,,1,0,1,,-2172,16244,-1820,1113,885,-643
37.833,37.47,1.46,1.30,6.78,2.29,-0.83,2.22,-0.85,4.70,-1.68,32.00,177.00,590.00,777.00,1045.00,2314.00,742.00,1060.00,,,,,,,,,,,,1,0,1,,-2812,15772,-3044,1375,-9,-1691
37.893,37.53,1.46,9.90,-6.11,2.74,-1.53,1.42,-0.02,3.47,-0.53,55.00,178.00,608.00,778.00,1014.00,2336.00,713.00,1079.00,,,,,,,,,,,,1,0,1,,-3516,15452,-2708,561,-1053,-1346
37.955,37.58,1.47,0.02,3.56,1.15,-0.69,1.57,0.02,3.83,-0.68,39.00,203.00,598.00,810.00,1009.00,2320.00,714.00,1068.00,,,,,,,,,,,,1,0,1,,-3676,15480,-1584,-683,-652,-1209
38.056,37.64,1.50,0.35,6.53,1.30,-0.40,2.15,-0.79,4.91,-1.85,33.00,185.00,587.00,799.00,1043.00,2317.00,746.00,1056.00,,,,,,,,,,,,1,0,1,,-3680,15628,-1404,-1235,435,-1484
38.077,37.69,1.50,11.68,-8.32,2.49,-1.78,1.41,-0.18,3.33,-0.46,60.00,176.00,619.00,791.00,1023.00,2347.00,712.00,1083.00,,,,,,,,,,,,1,0,1,,-4096,16288,-1352,-412,-4,-1363
38.118,37.75,1.49,0.99,4.20,1.28,-0.61,1.28,0.08,3.74,-0.44,37.00,192.00,594.00,804.00,1011.00,2343.00,706.00,1065.00,,,,,,,,,,,,1,0,1,,-4300,15680,-1520,541,146,-1099
38.18,37.80,1.51,0.66,5.87,0.86,-0.32,1.90,-0.56,4.27,-0.98,34.00,186.00,589.00,811.00,1035.00,2326.00,720.00,1058.00,,,,,,,,,,,,1,0,1,,-4036,16200,-1060,469,668,-559
38.24,37.86,1.50,6.64,-1.31,2.41,-1.33,1.45,-0.39,3.54,-0.73,45.00,178.00,605.00,784.00,1034.00,2357.00,720.00,1082.00,,,,,,,,,,,,1,0,1,,-3844,16732,-1608,963,1318,-988
38.302,37.91,1.47,2.92,0.78,1.51,-1.27,0.86,0.22,3.24,-0.19,43.00,195.00,613.00,811.00,1011.00,2373.00,703.00,1079.00,,,,,,,,,,,,1,0,1,,-3772,15472,-2780,2439,1171,-908
38.343,37.97,1.47,-0.13,5.08,-1.73,0.46,1.36,-0.40,4.17,-1.17,36.00,196.00,592.00,880.00,1036.00,2366.00,729.00,1068.00,,,,,,,,,,,,1,0,1,,-3956,15084,-4056,2249,288,-1025
38.405,38.02,1.48,7.45,-3.53,2.01,-1.41,1.71,-0.71,3.70,-0.86,50.00,183.00,612.00,798.00,1047.00,2353.00,723.00,1079.00,,,,,,,,,,,,1,0,1,,-4316,14656,-3464,770,-674,-946
38.466,38.08,1.47,9.35,-5.93,2.52,-1.64,1.36,-0.16,3.57,-0.74,55.00,181.00,614.00,787.00,1023.00,2351.00,720.00,1081.00,,,,,,,,,,,,1,0,1,,-4768,14992,-2944,204,-966,-111
38.507,38.13,1.48,2.02,0.24,1.31,-0.75,1.56,0.01,3.68,-0.60,45.00,205.00,598.00,806.00,1010.00,2322.00,713.00,1072.00,,,,,,,,,,,,1,0,1,,-4864,15500,-2940,844,-1287,533
38.548,38.19,1.51,5.02,-0.35,2.05,-0.81,2.22,-0.85,4.77,-1.68,44.00,185.00,592.00,784.00,1045.00,2314.00,741.00,1057.00,,,,,,,,,,,,1,0,1,,-4600,15852,-2920,1186,-1458,854
38.63,38.24,1.51,13.26,-11.70,2.93,-2.11,1.50,-0.21,3.21,-0.29,70.00,181.00,625.00,784.00,1023.00,2341.00,707.00,1083.00,,,,,,,,,,,,1,0,1,,-4328,15808,-3156,1313,-873,627
38.712,38.30,1.51,0.27,2.10,1.08,-0.64,1.55,0.04,4.03,-0.49,42.00,209.00,597.00,811.00,1008.00,2320.00,704.00,1054.00,,,,,,,,,,,,1,0,1,,-4284,15476,-3204,1428,-514,633
38.795,38.35,1.55,2.53,2.71,1.72,-0.60,2.13,-0.73,5.14,-1.73,39.00,188.00,589.00,790.00,1040.00,2315.00,738.00,1043.00,,,,,,,,,,,,1,0,1,,-4000,15300,-3720,1526,-210,731
38.815,38.41,1.54,9.93,-6.78,2.33,-1.21,1.47,-0.09,3.61,-0.32,57.00,181.00,602.00,784.00,1017.00,2336.00,703.00,1067.00,,,,,,,,,,,,1,0,1,,-3836,14836,-3948,379,473,357
38.835,38.46,1.52,4.01,-0.84,1.49,-1.05,1.08,0.26,3.59,-0.36,46.00,195.00,606.00,807.00,1005.00,2350.00,705.00,1069.00,,,,,,,,,,,,1,0,1,,-3660,15380,-4296,-2568,2254,-789
38.877,38.52,1.53,1.25,3.62,0.72,-0.33,1.65,-0.57,4.38,-1.07,38.00,193.00,591.00,816.00,1040.00,2349.00,722.00,1056.00,,,,,,,,,,,,1,0,1,,-3424,15348,-4120,-6447,4104,-3490
38.938,38.57,1.54,6.25,-2.37,1.84,-1.29,1.82,-0.78,3.77,-0.74,48.00,186.00,610.00,801.00,1049.00,2347.00,717.00,1072.00,,,,,,,,,,,,1,0,1,,-4804,17908,-880,-2175,4942,-4211
38.988,38.63,1.51,5.19,-3.14,1.14,-1.08,0.93,0.22,3.25,0.18,51.00,198.00,611.00,819.00,1010.00,2367.00,689.00,1068.00,,,,,,,,,,,,1,0,1,,-5704,15756,-2984,7271,3867,-2172
39.046,38.68,1.50,1.54,0.40,-0.12,-0.26,1.30,-0.48,3.75,-0.81,45.00,208.00,598.00,842.00,1042.00,2377.00,720.00,1075.00,,,,,,,,,,,,1,0,1,,-4944,11632,-6060,4569,65,1708
39.128,38.74,1.48,1.20,-0.68,-0.01,-1.18,1.20,-0.91,3.78,-1.37,48.00,217.00,627.00,859.00,1068.00,2413.00,742.00,1090.00,,,,,,,,,,,,1,0,1,,-2872,13372,-7844,-3568,-2073,3315
39.148,38.79,1.46,8.48,-9.82,1.00,-2.18,1.05,-0.50,3.11,-0.72,69.00,208.00,650.00,848.00,1048.00,2402.00,725.00,1100.00,,,,,,,,,,,,1,0,1,,-2856,15084,-4504,-9994,-2084,-700
39.209,38.85,1.47,0.90,-0.58,0.22,-0.90,1.57,-0.48,4.22,-0.84,48.00,219.00,615.00,845.00,1037.00,2352.00,715.00,1056.00,,,,,,,,,,,,1,0,1,,-3504,16496,-3588,-11333,-896,-3281
39.272,38.90,1.51,0.05,7.78,1.35,-1.13,2.29,-0.96,5.49,-1.34,31.00,181.00,610.00,813.00,1050.00,2315.00,718.00,1018.00,,,,,,,,,,,,1,0,1,,-5004,15152,-580,-6908,-1815,-4542
39.313,38.96,1.52,13.29,-10.05,2.57,-2.04,1.66,-0.08,4.57,-0.16,64.00,173.00,627.00,794.00,1013.00,2318.00,685.00,1023.00,,,,,,,,,,,,1,0,1,,-5964,14732,1880,-4017,-1834,-1682
39.395,39.01,1.54,2.36,2.77,1.23,-0.99,1.89,0.11,5.33,-0.06,39.00,189.00,607.00,814.00,998.00,2285.00,672.00,990.00,,,,,,,,,,,,1,0,1,,-5792,16208,1884,-709,-1126,14
39.435,39.07,1.57,0.20,11.71,2.01,-0.80,2.28,-0.20,6.20,-0.82,25.00,162.00,592.00,785.00,1008.00,2269.00,689.00,976.00,,,,,,,,,,,,1,0,1,,-5228,16452,908,1049,-909,264
39.496,39.12,1.60,9.28,0.44,2.94,-1.45,2.07,-0.19,5.34,-0.23,39.00,153.00,603.00,770.00,1011.00,2287.00,678.00,994.00,,,,,,,,,,,,1,0,1,,-5016,16052,232,1454,-1086,241
39.557,39.18,1.60,2.55,5.79,2.03,-1.11,1.69,0.35,5.24,0.33,33.00,173.00,602.00,791.00,989.00,2289.00,659.00,983.00,,,,,,,,,,,,1,0,1,,-4888,15336,-192,1852,-631,-117
39.619,39.23,1.63,-6.59,19.06,1.11,-0.08,2.14,-0.15,6.39,-0.83,19.00,174.00,579.00,798.00,1008.00,2279.00,687.00,969.00,,,,,,,,,,,,1,0,1,,-4700,14996,-1028,943,-614,-691
39.68,39.29,1.65,9.71,0.30,2.64,-1.53,2.11,-0.41,5.89,-0.55,39.00,151.00,609.00,781.00,1023.00,2298.00,683.00,981.00,,,,,,,,,,,,1,0,1,,-4992,15096,-704,-548,-882,-890
39.701,39.34,1.65,7.21,1.14,2.38,-1.53,1.52,0.24,5.00,0.38,39.00,163.00,612.00,789.00,998.00,2311.00,660.00,991.00,,,,,,,,,,,,1,0,1,,-5460,15084,128,-635,-438,-817
39.764,39.40,1.65,1.12,6.84,1.18,-1.01,1.77,-0.05,5.79,-0.22,32.00,178.00,608.00,816.00,1009.00,2306.00,672.00,976.00,,,,,,,,,,,,1,0,2,,-5472,15644,224,-477,-482,-259
39.826,39.45,1.68,2.55,5.79,1.62,-1.16,2.13,-0.73,6.36,-1.06,33.00,173.00,608.00,805.00,1040.00,2315.00,696.00,976.00,,,,,,,,,,,,1,0,2,,-5516,15248,688,-244,-319,138
39.887,39.51,1.65,11.22,-7.22,1.84,-1.71,1.23,0.11,4.68,0.29,57.00,174.00,624.00,810.00,1010.00,2345.00,667.00,1006.00,,,,,,,,,,,,1,0,2,,-5384,15992,332,624,-111,542
39.969,39.56,1.67,-1.71,8.38,0.91,-0.70,1.91,0.03,6.09,-0.04,31.00,191.00,601.00,818.00,1002.00,2288.00,662.00,960.00,,,,,,,,,,,,1,0,2,,-5184,15788,804,2162,261,798
39.99,39.62,1.72,-0.01,14.14,2.61,-0.81,2.65,-0.45,7.31,-1.22,22.00,153.00,586.00,767.00,1015.00,2251.00,690.00,944.00,,,,,,,,,,,,1,0,2,,-4952,15396,-256,3713,327,1275
40.053,39.67,1.74,15.39,-6.57,3.84,-1.84,2.12,0.13,5.64,0.28,51.00,145.00,606.00,751.00,993.00,2263.00,656.00,969.00,,,,,,,,,,,,1,0,2,,-4744,15916,-280,5493,499,1961
40.096,39.73,1.75,3.31,5.53,2.15,-0.90,1.98,0.46,6.32,0.05,33.00,169.00,594.00,783.00,978.00,2256.00,656.00,949.00,,,,,,,,,,,,1,0,2,,-4492,16060,-772,7187,321,1923
40.159,39.78,1.79,-24.03,49.58,2.20,-0.26,2.67,-0.30,6.89,-0.59,5.00,153.00,573.00,768.00,1006.00,2240.00,672.00,944.00,,,,,,,,,,,,1,0,2,,-4156,15724,-2784,6494,253,1010
40.241,39.84,1.82,12.95,-4.24,3.16,-1.18,2.31,-0.21,6.00,-0.09,47.00,150.00,592.00,758.00,1008.00,2267.00,665.00,965.00,,,,,,,,,,,,1,0,2,,-3932,15016,-3672,4074,179,336
40.262,39.89,1.82,5.45,1.73,2.43,-1.12,1.78,0.38,5.69,0.32,39.00,172.00,598.00,779.00,986.00,2279.00,654.00,966.00,,,,,,,,,,,,1,0,2,,-3916,14952,-3776,2825,95,283
40.303,39.95,1.85,2.36,5.85,1.44,-0.19,2.36,-0.19,6.71,-0.53,33.00,174.00,579.00,790.00,1006.00,2261.00,672.00,949.00,,,,,,,,,,,,1,0,2,,-4120,15220,-4452,2419,155,-365
40.366,40.00,1.86,9.33,-2.22,2.57,-1.05,2.19,-0.30,5.97,-0.36,45.00,164.00,594.00,773.00,1015.00,2283.00,675.00,973.00,,,,,,,,,,,,1,0,2,,-4136,14864,-5168,1401,-317,-949
40.428,40.06,1.85,11.30,-6.25,2.44,-1.61,1.60,0.03,5.35,-0.01,54.00,169.00,614.00,789.00,1008.00,2317.00,670.00,988.00,,,,,,,,,,,,1,0,2,,-4552,14592,-5136,597,-948,-810
40.469,40.11,1.84,4.53,-2.92,1.03,-0.93,1.62,0.02,5.84,-0.29,51.00,202.00,607.00,819.00,1008.00,2315.00,674.00,976.00,,,,,,,,,,,,1,0,2,,-4980,14716,-4676,-360,-803,-671
