Time_Host,Time_Arduino,easingdata,CH1_Oxy,CH1_Deoxy,CH2_Oxy,CH2_Deoxy,CH3_Oxy,CH3_Deoxy,CH4_Oxy,CH4_Deoxy,CH1_PD730,CH1_PD850,CH2_PD730,CH2_PD850,CH3_PD730,CH3_PD850,CH4_PD730,CH4_PD850,Answers,airplane_playstate,trail_times,frameRate,Airplane X,Airplane Y,Correct,Wrong,Slow,AnswerRate,CorrectRate,VFTstates,VFTchoose,VFTCount,Culfstates,ax,ay,az,gx,gy,gz
1.03,0.04,0.00,0.00,0.00,0.00,0.00,0.00,0.00,0.00,0.00,1259.00,1970.00,128.00,144.00,938.00,1479.00,2347.00,2873.00,,,,,,,,,,,,0,1,0,,-128,16300,80,-207,55,-266
1.05,0.10,0.00,0.00,0.00,0.00,0.00,0.00,0.00,0.00,0.00,1274.00,2093.00,203.00,135.00,864.00,1579.00,2256.00,2945.00,,,,,,,,,,,,0,1,0,,-24,16312,272,-220,20,-207
1.072,0.16,0.00,0.00,0.00,0.00,0.00,0.00,0.00,0.00,0.00,1247.00,2139.00,155.00,231.00,832.00,1507.00,2279.00,2891.00,,,,,,,,,,,,0,1,0,,-108,16500,240,-207,200,-172
1.092,0.21,0.00,0.00,0.00,0.00,0.00,0.00,0.00,0.00,0.00,1241.00,2084.00,112.00,181.00,923.00,1455.00,2325.00,2875.00,,,,,,,,,,,,0,1,0,,-84,16368,216,-270,175,-211
1.113,0.27,0.00,0.00,0.00,0.00,0.00,0.00,0.00,0.00,0.00,1282.00,2032.00,187.00,131.00,893.00,1513.00,2266.00,2877.00,,,,,,,,,,,,0,1,0,,-16,16280,44,-264,109,-136
1.134,1.05,0.00,0.00,0.00,0.00,0.00,0.00,0.00,0.00,0.00,1234.00,2136.00,159.00,192.00,846.00,1525.00,2231.00,2863.00,,,,,,,,,,,,0,1,0,,-92,16292,444,-222,47,-176
1.155,1.11,0.00,0.00,0.00,0.00,0.00,0.00,0.00,0.00,0.00,1229.00,2074.00,117.00,199.00,894.00,1457.00,2294.00,2865.00,,,,,,,,,,,,0,1,0,,-64,16252,508,-225,153,-101
1.196,1.16,0.00,0.00,0.00,0.00,0.00,0.00,0.00,0.00,0.00,1270.00,2053.00,174.00,111.00,913.00,1501.00,2301.00,2909.00,,,,,,,,,,,,0,1,0,,-44,16336,412,-225,158,-128
1.279,1.22,0.00,0.00,0.00,0.00,0.00,0.00,0.00,0.00,0.00,1280.00,2123.00,183.00,192.00,833.00,1535.00,2224.00,2927.00,,,,,,,,,,,,0,1,0,,-64,16232,276,-120,142,-51
1.301,1.27,0.00,0.00,0.00,0.00,0.00,0.00,0.00,0.00,0.00,1204.00,2096.00,126.00,234.00,835.00,1473.00,2314.00,2879.00,,,,,,,,,,,,0,1,0,,-96,16296,524,-168,116,-102
1.382,1.33,0.04,0.58,-0.40,4.31,-2.79,0.77,-0.78,-0.45,-0.43,1266.00,2055.00,166.00,159.00,902.00,1488.00,2357.00,2977.00,,,,,,,,,,,,0,1,0,,-16,16376,264,-159,122,-92
1.444,1.38,-0.04,0.47,-1.11,8.68,-10.83,-1.55,0.69,-1.14,0.23,1318.00,2103.00,237.00,166.00,869.00,1568.00,2303.00,3005.00,,,,,,,,,,,,0,1,0,,56,16364,372,-250,109,-156
1.484,1.44,-0.11,-0.90,0.19,-5.96,-0.41,-1.33,1.36,-0.51,-0.02,1260.00,2145.00,176.00,224.00,835.00,1527.00,2308.00,2951.00,,,,,,,,,,,,0,1,0,,72,16200,520,-195,93,-180
1.546,1.50,-0.01,-0.70,0.34,-5.25,7.53,1.73,-1.30,0.18,-0.83,1245.00,2119.00,113.00,176.00,912.00,1453.00,2381.00,2935.00,,,,,,,,,,,,0,1,0,,68,16332,488,-168,141,-119
1.607,1.55,-0.05,0.74,-1.18,11.90,-9.51,-0.65,0.16,-1.11,0.09,1317.00,2085.00,208.00,141.00,880.00,1535.00,2319.00,3013.00,,,,,,,,,,,,0,1,0,,40,16352,444,-127,169,-171
1.648,1.60,-0.12,-0.19,0.04,-0.88,-2.74,-1.50,1.68,-0.55,0.10,1254.00,2094.00,182.00,195.00,823.00,1524.00,2295.00,2947.00,,,,,,,,,,,,0,1,0,,-24,16232,384,-177,118,-184
1.751,1.66,-0.04,-0.63,0.72,-13.58,10.17,1.39,-0.90,0.73,-0.77,1218.00,2092.00,114.00,228.00,898.00,1457.00,2349.00,2866.00,,,,,,,,,,,,0,1,0,,-40,16252,440,-216,2,-176
1.772,1.71,-0.03,1.44,-0.92,8.85,-4.20,0.19,-0.52,-0.60,-0.11,1282.00,2014.00,165.00,138.00,899.00,1512.00,2323.00,2969.00,,,,,,,,,,,,0,1,0,,-104,16164,436,-144,-29,-138
1.813,1.77,-0.13,0.10,-0.54,1.82,-4.34,-1.99,1.49,-1.26,0.78,1287.00,2102.00,189.00,183.00,839.00,1562.00,2240.00,2975.00,,,,,,,,,,,,0,1,0,,-48,16236,524,-92,112,-134
1.875,1.82,-0.15,-0.72,0.68,-14.97,9.08,-0.63,0.83,0.06,-0.29,1223.00,2102.00,124.00,248.00,848.00,1506.00,2317.00,2906.00,,,,,,,,,,,,0,1,0,,-140,16252,520,-85,224,-143
1.937,1.88,-0.07,0.31,-0.28,-7.38,6.09,1.48,-1.34,0.08,-0.69,1264.00,2070.00,127.00,199.00,918.00,1469.00,2367.00,2935.00,,,,,,,,,,,,0,1,0,,12,16264,364,-139,81,-186
1.979,1.93,-0.12,0.88,-1.19,8.81,-8.46,-0.99,-0.20,-1.29,0.26,1314.00,2074.00,208.00,155.00,903.00,1571.00,2305.00,3020.00,,,,,,,,,,,,0,1,0,,64,16280,468,-88,31,-141
2.02,1.99,-0.17,-1.14,0.54,-7.91,1.32,-1.11,1.84,-0.21,0.02,1241.00,2144.00,166.00,231.00,810.00,1494.00,2290.00,2913.00,,,,,,,,,,,,0,1,0,,-168,16204,492,-103,112,-149
2.123,2.04,-0.09,0.00,0.45,-7.25,5.90,1.38,-1.02,0.28,-0.86,1222.00,2055.00,128.00,199.00,904.00,1462.00,2381.00,2926.00,,,,,,,,,,,,0,1,0,,-152,16168,496,-120,137,-112
2.143,2.10,-0.07,0.18,-0.65,11.49,-7.00,0.35,-0.16,-1.00,0.16,1293.00,2102.00,183.00,134.00,879.00,1488.00,2306.00,2994.00,,,,,,,,,,,,0,1,0,,-16,16212,592,-40,172,-162
2.185,2.15,-0.16,-0.53,0.25,1.05,-5.59,-1.83,1.99,-1.27,0.69,1247.00,2110.00,205.00,195.00,814.00,1531.00,2251.00,2983.00,,,,,,,,,,,,0,1,0,,0,16296,492,-193,151,-183
2.246,2.21,-0.07,-1.37,1.25,-14.41,14.81,1.63,-0.82,-0.04,-0.23,1200.00,2124.00,90.00,208.00,890.00,1440.00,2314.00,2913.00,,,,,,,,,,,,0,1,0,,-20,16300,496,-222,71,-107
2.309,2.27,-0.05,1.12,-0.80,8.80,-3.03,0.33,-0.87,-0.59,-0.33,1281.00,2033.00,155.00,134.00,914.00,1518.00,2350.00,2985.00,,,,,,,,,,,,0,1,0,,-4,16384,472,-89,187,-131
2.369,2.32,-0.13,0.14,-0.59,4.38,-6.89,-1.63,0.96,-1.18,0.44,1289.00,2101.00,207.00,177.00,858.00,1562.00,2278.00,2993.00,,,,,,,,,,,,0,1,0,,-136,16280,440,-82,157,-200
2.432,2.37,-0.14,-0.69,0.38,-8.96,1.13,-0.39,0.56,-0.09,-0.22,1242.00,2116.00,171.00,242.00,857.00,1503.00,2315.00,2918.00,,,,,,,,,,,,0,1,0,,40,16220,504,-18,-6,-160
2.473,2.43,-0.04,-0.01,0.30,-4.14,4.86,1.78,-1.56,0.39,-0.68,1232.00,2064.00,128.00,181.00,924.00,1460.00,2353.00,2899.00,,,,,,,,,,,,0,1,0,,-128,16216,588,-30,85,-108
2.554,2.48,-0.09,0.86,-0.86,7.83,-9.59,-0.91,0.54,-1.21,0.49,1291.00,2057.00,225.00,166.00,866.00,1535.00,2274.00,2993.00,,,,,,,,,,,,0,1,0,,40,16240,484,-14,254,-128
2.575,2.54,-0.11,-0.48,0.19,-4.41,-0.29,-0.63,1.34,-0.65,0.48,1250.00,2109.00,170.00,210.00,825.00,1486.00,2251.00,2927.00,,,,,,,,,,,,0,1,0,,-56,16256,400,-23,184,-98
2.659,2.60,-0.01,-0.14,0.50,-6.42,5.62,1.88,-0.80,0.57,-0.50,1222.00,2064.00,128.00,194.00,885.00,1425.00,2322.00,2864.00,,,,,,,,,,,,0,1,0,,-24,16280,444,-30,81,-158
2.741,2.65,0.03,1.30,-0.66,10.11,-4.96,0.90,-0.70,-0.54,0.02,1267.00,2011.00,168.00,134.00,896.00,1477.00,2304.00,2951.00,,,,,,,,,,,,0,1,0,,-8,16316,524,-31,8,-133
2.761,2.70,-0.08,-0.14,0.08,2.66,-6.40,-2.13,2.53,-0.93,0.80,1250.00,2087.00,208.00,187.00,795.00,1527.00,2224.00,2935.00,,,,,,,,,,,,0,1,0,,40,16252,576,11,111,-122
2.802,2.76,-0.04,-0.63,1.09,-14.25,13.00,0.63,0.37,0.65,-0.50,1194.00,2071.00,99.00,217.00,850.00,1451.00,2319.00,2855.00,,,,,,,,,,,,0,1,0,,-24,16236,364,-18,225,-155
2.844,2.81,0.01,1.16,-0.73,-0.28,0.63,1.03,-0.86,-0.33,-0.43,1275.00,2026.00,150.00,174.00,902.00,1476.00,2352.00,2963.00,,,,,,,,,,,,0,1,0,,-64,16240,412,-121,145,-144
2.906,2.87,-0.09,0.21,-0.81,11.15,-10.70,-2.03,1.31,-1.55,0.56,1303.00,2108.00,225.00,150.00,848.00,1572.00,2279.00,3027.00,,,,,,,,,,,,0,1,0,,-92,16172,420,-146,66,-129
2.968,2.92,-0.13,-0.92,0.27,-12.61,2.57,-0.97,1.37,-0.21,-0.22,1255.00,2142.00,169.00,269.00,829.00,1505.00,2320.00,2932.00,,,,,,,,,,,,0,1,0,,-32,16324,532,-194,143,-135
3.009,2.98,-0.05,-0.33,0.02,-4.43,5.69,1.52,-1.35,0.12,-0.86,1258.00,2106.00,123.00,179.00,918.00,1467.00,2387.00,2944.00,,,,,,,,,,,,0,1,0,,72,16204,468,-105,146,93
3.069,3.04,-0.09,0.89,-1.44,7.12,-7.63,-0.84,0.77,-1.45,0.32,1332.00,2087.00,205.00,162.00,854.00,1521.00,2305.00,3035.00,,,,,,,,,,,,0,1,0,,76,16380,336,-195,154,-190
3.129,3.09,-0.11,-0.17,0.13,-3.10,-2.39,-0.56,1.01,-0.46,0.20,1247.00,2087.00,186.00,211.00,839.00,1495.00,2278.00,2928.00,,,,,,,,,,,,0,1,0,,80,16300,336,-132,101,-89
3.253,3.14,-0.04,0.05,0.43,-12.55,10.15,1.41,0.15,0.52,-0.47,1222.00,2052.00,112.00,219.00,848.00,1415.00,2320.00,2867.00,,,,,,,,,,,,0,1,0,,-4,16176,456,-140,16,-131
3.273,3.20,-0.04,1.40,-0.48,12.78,-3.52,-0.02,0.13,-0.40,-0.21,1253.00,1994.00,148.00,116.00,871.00,1498.00,2327.00,2953.00,,,,,,,,,,,,0,1,0,,-72,16244,324,-214,62,-46
3.316,3.25,-0.13,0.36,-0.16,0.92,-4.81,-1.96,2.34,-1.07,0.83,1255.00,2060.00,197.00,192.00,801.00,1525.00,2226.00,2949.00,,,,,,,,,,,,0,1,0,,144,16180,348,-170,-194,104
3.336,3.31,-0.12,-1.11,1.39,-11.43,7.16,0.12,0.58,0.36,-0.19,1185.00,2094.00,129.00,227.00,848.00,1472.00,2292.00,2864.00,,,,,,,,,,,,0,1,0,,160,16276,716,-186,-56,-5
3.398,3.37,0.01,0.69,-0.42,-2.79,3.69,2.45,-2.16,-0.04,-0.56,1265.00,2047.00,133.00,177.00,943.00,1445.00,2355.00,2938.00,,,,,,,,,,,,0,1,0,,48,16288,652,-88,256,-101
3.459,3.42,-0.05,0.51,-0.81,11.01,-10.49,-1.22,1.10,-1.31,0.36,1296.00,2083.00,223.00,150.00,845.00,1531.00,2294.00,3015.00,,,,,,,,,,,,0,1,0,,152,16296,472,107,237,-15
3.5,3.47,-0.09,-0.82,0.37,-8.78,1.18,-0.71,1.24,-0.16,0.01,1246.00,2128.00,170.00,240.00,831.00,1495.00,2289.00,2908.00,,,,,,,,,,,,0,1,0,,216,16224,336,572,-22,134
3.583,3.53,0.01,0.20,-0.10,-6.33,3.81,1.92,-1.22,0.30,-0.76,1254.00,2069.00,141.00,203.00,905.00,1439.00,2367.00,2915.00,,,,,,,,,,,,0,1,0,,128,16336,724,396,109,82
3.644,3.58,0.00,0.89,-0.94,10.62,-5.99,-0.24,0.02,-1.00,0.17,1296.00,2059.00,176.00,135.00,880.00,1516.00,2304.00,2993.00,,,,,,,,,,,,0,1,0,,200,16252,352,116,434,-244
3.685,3.64,-0.09,-0.15,0.07,-0.26,-4.41,-1.88,2.22,-0.98,0.50,1251.00,2089.00,197.00,199.00,805.00,1525.00,2263.00,2965.00,,,,,,,,,,,,0,1,0,,136,16272,184,-86,206,-104
3.745,3.69,-0.06,-0.68,0.72,-13.58,10.50,0.65,0.34,0.12,-0.48,1219.00,2096.00,112.00,226.00,851.00,1451.00,2339.00,2914.00,,,,,,,,,,,,0,1,0,,92,16112,280,-177,-28,154
3.786,3.75,-0.02,0.85,-0.62,5.91,-3.21,0.71,-0.73,-0.77,-0.29,1275.00,2045.00,165.00,151.00,901.00,1490.00,2353.00,3003.00,,,,,,,,,,,,0,1,0,,192,16520,480,-190,176,-80
3.847,3.81,-0.11,-0.09,-0.19,4.81,-7.73,-1.85,1.93,-1.07,0.66,1267.00,2098.00,215.00,178.00,817.00,1535.00,2247.00,2963.00,,,,,,,,,,,,0,1,0,,316,16372,344,-258,268,-273
3.95,3.86,-0.11,-0.70,0.62,-11.32,3.86,-0.15,0.61,-0.04,-0.21,1226.00,2103.00,154.00,247.00,851.00,1487.00,2311.00,2911.00,,,,,,,,,,,,0,1,0,,220,16296,328,-55,-80,-255
3.969,3.91,-0.01,0.48,-0.29,-4.84,2.92,1.91,-1.64,0.02,-0.51,1261.00,2057.00,144.00,196.00,926.00,1456.00,2346.00,2927.00,,,,,,,,,,,,0,1,0,,272,16328,524,-69,-25,-116
4.033,3.97,-0.07,1.18,-1.71,8.36,-9.68,-1.15,0.90,-1.36,0.38,1344.00,2078.00,224.00,163.00,853.00,1535.00,2294.00,3020.00,,,,,,,,,,,,0,1,0,,188,16192,212,-51,98,-161
4.053,4.03,-0.06,-1.02,0.49,-7.15,0.52,0.03,0.90,-0.38,0.09,1242.00,2137.00,171.00,229.00,835.00,1465.00,2288.00,2927.00,,,,,,,,,,,,0,1,0,,140,16288,304,-239,-40,-265
4.116,4.08,0.00,-0.35,0.63,-13.44,11.47,1.26,-0.15,0.20,-0.58,1218.00,2074.00,106.00,219.00,864.00,1435.00,2348.00,2913.00,,,,,,,,,,,,0,1,0,,120,16392,360,-93,-145,-184
4.178,4.13,-0.01,0.55,-0.52,5.29,-2.55,-0.18,0.60,-0.71,0.17,1275.00,2064.00,161.00,152.00,852.00,1489.00,2292.00,2959.00,,,,,,,,,,,,0,1,0,,120,16232,308,23,-85,-248
4.219,4.19,-0.11,-0.07,-0.18,-0.60,-3.53,-2.01,2.17,-1.05,0.70,1266.00,2096.00,189.00,197.00,809.00,1535.00,2241.00,2957.00,,,,,,,,,,,,0,1,0,,144,16436,464,228,-120,-156
4.321,4.25,-0.06,-1.30,1.31,-15.13,11.02,0.79,0.29,0.12,-0.36,1194.00,2114.00,112.00,237.00,851.00,1445.00,2324.00,2905.00,,,,,,,,,,,,0,1,0,,184,16480,132,238,95,-396
4.342,4.30,-0.02,1.00,-0.73,2.31,0.64,0.70,-0.67,-0.78,-0.10,1279.00,2039.00,143.00,157.00,898.00,1488.00,2329.00,2989.00,,,,,,,,,,,,0,1,0,,172,16312,120,708,-328,-193
4.383,4.36,-0.11,-0.16,-0.43,3.81,-8.88,-1.74,1.19,-1.30,0.35,1285.00,2117.00,233.00,191.00,849.00,1559.00,2294.00,3014.00,,,,,,,,,,,,0,1,0,,-24,16288,260,653,-251,-379
4.444,4.41,-0.13,-0.84,0.28,-8.86,0.99,-0.49,0.81,-0.16,-1.12,1252.00,2134.00,172.00,242.00,847.00,1499.00,2433.00,2997.00,,,,,,,,,,,,0,1,0,,204,16720,60,1028,59,-25
4.506,4.46,-0.03,0.06,-0.36,-8.20,5.65,1.88,-1.07,-0.25,-0.71,1275.00,2095.00,132.00,208.00,898.00,1435.00,2384.00,2975.00,,,,,,,,,,,,0,1,0,,28,16300,-216,985,-148,-363
4.568,4.52,-0.11,0.72,-1.40,11.33,-8.12,-1.69,1.26,-1.45,0.45,1333.00,2099.00,195.00,139.00,845.00,1553.00,2288.00,3024.00,,,,,,,,,,,,0,1,0,,-4,16300,-396,1036,-100,-173
4.63,4.58,-0.15,-0.88,0.22,-8.88,1.32,-0.93,1.58,-0.36,0.17,1257.00,2141.00,169.00,240.00,819.00,1494.00,2278.00,2919.00,,,,,,,,,,,,0,1,0,,108,16116,-376,678,-1,-327
4.691,4.63,-0.07,-0.06,0.21,-11.49,9.79,1.54,-0.45,0.22,-0.40,1239.00,2073.00,112.00,212.00,874.00,1431.00,2325.00,2897.00,,,,,,,,,,,,0,1,0,,132,16240,-752,229,-125,-420
4.732,4.68,-0.06,0.66,-0.49,11.23,-4.32,0.13,-0.74,-1.08,0.10,1270.00,2053.00,159.00,126.00,911.00,1525.00,2316.00,3008.00,,,,,,,,,,,,0,1,0,,-108,16168,-668,-34,-158,-418
4.793,4.74,-0.16,0.13,-0.51,1.80,-6.11,-2.17,2.59,-1.24,0.77,1284.00,2098.00,208.00,192.00,793.00,1527.00,2241.00,2974.00,,,,,,,,,,,,0,1,0,,108,16284,-520,-194,-109,-171
4.834,4.79,-0.14,-0.92,0.82,-15.45,11.80,0.31,0.30,0.34,-0.57,1218.00,2110.00,108.00,235.00,858.00,1472.00,2341.00,2896.00,,,,,,,,,,,,0,1,0,,80,16552,-520,-423,-10,-192
4.875,4.85,-0.10,0.37,-0.55,2.28,-0.72,0.55,-0.58,-0.75,-0.18,1281.00,2080.00,154.00,163.00,896.00,1493.00,2338.00,2992.00,,,,,,,,,,,,0,1,0,,-16,16328,-536,-426,-80,-220
4.937,4.91,-0.14,-0.29,-0.45,1.81,-6.89,-0.89,0.51,-1.48,0.36,1290.00,2130.00,217.00,196.00,867.00,1535.00,2301.00,3035.00,,,,,,,,,,,,0,1,0,,4,16316,-452,-448,-75,-354
4.998,4.96,-0.18,-1.52,0.55,-13.76,3.86,-0.85,0.86,-0.68,-0.09,1249.00,2176.00,161.00,272.00,850.00,1518.00,2323.00,2976.00,,,,,,,,,,,,0,1,0,,-164,16316,-368,-559,-45,-344
5.039,5.01,-0.10,-0.52,-0.00,-9.01,6.49,1.47,-1.54,-0.24,-0.64,1264.00,2123.00,128.00,210.00,928.00,1477.00,2375.00,2969.00,,,,,,,,,,,,0,1,0,,-128,16400,-128,-478,-12,-124
5.122,5.07,-0.12,0.39,-1.23,7.46,-7.20,-0.54,0.01,-1.73,0.42,1329.00,2117.00,199.00,158.00,885.00,1534.00,2304.00,3061.00,,,,,,,,,,,,0,1,0,,-88,16328,-356,-490,174,-188
5.163,5.12,-0.17,-0.64,-0.15,-4.52,-1.00,-1.15,1.38,-0.97,0.42,1277.00,2142.00,177.00,215.00,831.00,1515.00,2272.00,2970.00,,,,,,,,,,,,0,1,0,,-116,16320,-128,-516,39,-376
5.204,5.18,-0.13,-0.74,0.40,-16.95,13.54,0.58,0.36,0.02,-0.34,1242.00,2119.00,101.00,238.00,851.00,1454.00,2325.00,2914.00,,,,,,,,,,,,0,1,0,,-112,16148,-52,-328,-119,-155
5.286,5.24,-0.12,0.94,-0.74,11.60,-6.32,0.03,-0.40,-0.89,0.06,1281.00,2044.00,176.00,131.00,896.00,1517.00,2313.00,2989.00,,,,,,,,,,,,0,1,0,,-196,16348,212,-173,112,-306
5.328,5.29,-0.21,-0.01,-0.55,0.16,-3.88,-1.87,1.96,-1.42,0.82,1290.00,2112.00,190.00,193.00,816.00,1535.00,2241.00,2990.00,,,,,,,,,,,,0,1,0,,-192,16380,0,-295,211,1
5.412,5.34,-0.21,-1.55,1.35,-14.07,7.91,-0.20,1.11,0.27,-0.47,1197.00,2133.00,130.00,247.00,829.00,1470.00,2331.00,2896.00,,,,,,,,,,,,0,1,0,,-124,16376,100,-129,189,-107
5.431,5.40,-0.14,-0.31,-0.03,-5.99,3.30,1.28,-1.27,-0.61,-0.11,1261.00,2107.00,144.00,203.00,918.00,1478.00,2323.00,2970.00,,,,,,,,,,,,0,1,0,,-84,16248,-152,39,300,-98
5.492,5.45,-0.21,-0.02,-0.56,3.70,-7.53,-1.61,1.12,-1.47,0.51,1291.00,2113.00,217.00,185.00,850.00,1554.00,2281.00,3021.00,,,,,,,,,,,,0,1,0,,-68,16272,-60,-80,373,-82
5.534,5.51,-0.27,-1.47,0.76,-10.69,0.87,-1.39,1.67,-0.61,0.25,1234.00,2160.00,179.00,261.00,822.00,1518.00,2278.00,2941.00,,,,,,,,,,,,0,1,0,,-60,16432,-128,-275,369,-9
5.594,5.57,-0.18,-0.23,0.30,-13.72,10.54,1.59,-0.95,-0.33,-0.57,1237.00,2082.00,112.00,227.00,897.00,1447.00,2370.00,2974.00,,,,,,,,,,,,0,1,0,,44,16332,-76,-221,289,-102
5.655,5.62,-0.20,0.49,-0.77,6.44,-6.85,-0.64,0.52,-1.31,0.48,1294.00,2083.00,199.00,163.00,863.00,1520.00,2279.00,3005.00,,,,,,,,,,,,0,1,0,,-20,16444,36,-133,224,-143
5.718,5.67,-0.28,-0.75,-0.14,-7.06,-1.36,-1.89,1.99,-1.32,0.69,1279.00,2151.00,189.00,240.00,815.00,1535.00,2253.00,2989.00,,,,,,,,,,,,0,1,0,,-72,16436,-52,-210,343,-291
5.82,5.73,-0.20,-1.23,0.86,-12.55,10.15,1.44,-0.12,0.01,-0.41,1222.00,2134.00,112.00,219.00,860.00,1424.00,2334.00,2921.00,,,,,,,,,,,,0,1,0,,-16,16316,-148,-239,183,-283
5.841,5.79,-0.15,0.84,-0.82,10.47,-6.86,0.69,-0.58,-1.05,-0.15,1289.00,2057.00,185.00,139.00,894.00,1485.00,2347.00,3025.00,,,,,,,,,,,,0,1,0,,-120,16404,180,-70,12,-294
5.882,5.84,-0.26,-0.42,-0.45,1.72,-5.99,-2.28,2.01,-1.17,0.61,1293.00,2141.00,207.00,192.00,820.00,1558.00,2257.00,2978.00,,,,,,,,,,,,0,1,0,,-168,16300,304,-164,147,-414
5.944,5.89,-0.25,-1.13,1.00,-10.57,2.44,-0.07,0.54,-0.09,-0.31,1211.00,2118.00,164.00,249.00,853.00,1485.00,2326.00,2925.00,,,,,,,,,,,,0,1,0,,-168,16216,-24,-60,162,-215
5.985,5.95,-0.15,0.44,-0.56,-8.98,5.23,1.70,-1.31,0.02,-0.62,1280.00,2075.00,137.00,217.00,913.00,1455.00,2361.00,2937.00,,,,,,,,,,,,0,1,0,,-228,16192,176,96,150,-152
6.047,6.00,-0.26,0.97,-1.41,7.48,-9.96,-2.32,1.42,-1.54,0.57,1328.00,2079.00,231.00,170.00,847.00,1585.00,2277.00,3025.00,,,,,,,,,,,,0,1,0,,-256,16220,48,79,92,16
6.151,6.06,-0.27,-1.61,0.75,-11.04,-0.02,-0.43,1.12,-0.61,0.32,1238.00,2173.00,189.00,271.00,832.00,1483.00,2269.00,2935.00,,,,,,,,,,,,0,1,0,,-256,16380,20,-16,169,-33
6.171,6.12,-0.21,-0.26,0.32,-10.64,8.54,0.84,-0.20,0.08,-0.48,1236.00,2083.00,118.00,212.00,873.00,1461.00,2341.00,2919.00,,,,,,,,,,,,0,1,0,,-108,16120,-152,-193,87,6
6.213,6.17,-0.22,0.46,-0.48,6.71,-6.09,-0.32,0.39,-0.81,0.32,1274.00,2069.00,190.00,158.00,864.00,1506.00,2278.00,2959.00,,,,,,,,,,,,0,1,0,,-76,16356,-20,-279,171,61
6.272,6.22,-0.30,-0.28,-0.13,-6.14,-0.97,-1.82,2.08,-0.96,0.56,1267.00,2110.00,182.00,229.00,810.00,1527.00,2254.00,2957.00,,,,,,,,,,,,0,1,0,,-12,16248,60,-125,341,-126
6.334,6.28,-0.20,-1.12,1.08,-19.44,13.48,1.62,-0.40,0.43,-0.35,1205.00,2112.00,106.00,263.00,870.00,1424.00,2309.00,2868.00,,,,,,,,,,,,0,1,0,,-80,16312,-308,-130,234,-246
6.415,6.33,-0.19,0.85,-0.77,5.67,-3.36,0.15,-0.34,-0.64,-0.20,1285.00,2053.00,167.00,153.00,891.00,1507.00,2336.00,2981.00,,,,,,,,,,,,0,1,0,,-124,16284,100,-166,73,-11
6.435,6.39,-0.24,-0.30,-0.39,1.35,-7.89,-1.25,1.04,-1.63,0.79,1286.00,2127.00,231.00,205.00,848.00,1535.00,2254.00,3018.00,,,,,,,,,,,,0,1,0,,-160,16292,260,-226,360,-31
6.517,6.45,-0.26,-1.17,0.56,-13.89,4.60,-0.57,0.90,-0.56,-0.24,1241.00,2146.00,155.00,268.00,844.00,1500.00,2337.00,2974.00,,,,,,,,,,,,0,1,0,,-8,16324,8,-155,469,33
6.538,6.50,-0.18,-0.46,-0.12,-5.78,3.36,1.20,-1.39,-0.59,-0.56,1271.00,2125.00,143.00,201.00,925.00,1487.00,2379.00,3003.00,,,,,,,,,,,,0,1,0,,116,16372,-76,-189,377,54
6.579,6.55,-0.24,0.66,-1.45,6.97,-10.49,-1.24,0.36,-1.67,0.38,1338.00,2107.00,240.00,176.00,880.00,1563.00,2306.00,3056.00,,,,,,,,,,,,0,1,0,,228,16260,116,-159,80,-202
6.661,6.61,-0.28,-1.40,0.29,-13.60,4.03,-1.08,1.59,-0.76,0.45,1264.00,2181.00,159.00,269.00,821.00,1503.00,2259.00,2942.00,,,,,,,,,,,,0,1,0,,-24,16320,-8,-333,1,-205
6.723,6.66,-0.21,-0.31,0.40,-15.17,11.70,1.17,-0.20,0.31,-0.57,1232.00,2083.00,108.00,233.00,868.00,1442.00,2342.00,2899.00,,,,,,,,,,,,0,1,0,,24,16312,-4,-258,-101,-290
6.764,6.72,-0.20,0.84,-0.72,3.07,-3.45,-0.08,0.05,-0.73,0.10,1282.00,2051.00,176.00,170.00,876.00,1505.00,2302.00,2967.00,,,,,,,,,,,,0,1,0,,-220,16464,100,-103,-12,-224
6.826,6.78,-0.27,-0.26,0.10,-0.03,-5.49,-1.53,1.83,-1.45,1.05,1251.00,2096.00,208.00,203.00,817.00,1520.00,2215.00,2976.00,,,,,,,,,,,,0,1,0,,-64,16204,188,77,-189,146
6.888,6.83,-0.16,-0.81,0.96,-18.68,11.25,1.81,-0.67,0.58,-0.36,1206.00,2093.00,118.00,271.00,880.00,1424.00,2304.00,2852.00,,,,,,,,,,,,0,1,0,,28,16440,348,1,157,-224
6.909,6.88,-0.11,1.27,-1.01,-4.38,0.03,0.92,-0.85,-0.61,0.05,1292.00,2032.00,167.00,208.00,903.00,1482.00,2303.00,2957.00,,,,,,,,,,,,0,1,0,,-16,16188,104,64,273,-151
6.971,6.94,-0.15,0.32,-0.75,5.00,-7.79,-0.85,0.46,-1.15,0.55,1296.00,2095.00,215.00,177.00,869.00,1535.00,2263.00,2980.00,,,,,,,,,,,,0,1,0,,-4,16172,4,15,151,-234
7.054,7.00,-0.09,-0.64,0.32,-15.12,3.86,0.93,0.29,-0.38,0.07,1245.00,2115.00,165.00,287.00,849.00,1437.00,2291.00,2929.00,,,,,,,,,,,,0,1,0,,-140,16172,40,-31,189,-253
7.115,7.05,0.02,0.17,-0.25,-8.65,7.41,2.13,-1.66,-0.56,-0.46,1265.00,2080.00,121.00,202.00,923.00,1444.00,2365.00,2992.00,,,,,,,,,,,,0,1,0,,-8,16304,-156,-162,177,-104
7.136,7.11,-0.04,0.63,-1.10,8.96,-8.69,-1.12,0.85,-1.60,0.39,1314.00,2090.00,210.00,155.00,855.00,1535.00,2302.00,3047.00,,,,,,,,,,,,0,1,0,,-36,16412,-88,-59,193,-206
7.199,7.16,-0.11,-0.76,-0.07,-9.76,-2.04,-1.40,1.85,-0.84,0.34,1274.00,2147.00,206.00,272.00,814.00,1511.00,2277.00,2961.00,,,,,,,,,,,,0,1,0,,-108,16148,-36,-191,33,-74
7.262,7.21,-0.06,-1.15,0.89,-12.14,9.21,0.88,-0.36,-0.46,-0.13,1218.00,2125.00,117.00,221.00,880.00,1465.00,2319.00,2954.00,,,,,,,,,,,,0,1,0,,-80,16396,-48,-236,-21,-34
7.303,7.27,-0.06,-0.03,-0.24,6.85,-5.34,-0.16,-0.07,-1.45,0.20,1269.00,2096.00,182.00,154.00,883.00,1515.00,2320.00,3045.00,,,,,,,,,,,,0,1,0,,-92,16352,172,-158,103,77
7.365,7.33,-0.20,-0.52,-0.46,-5.56,-2.63,-2.82,2.93,-1.49,0.73,1296.00,2150.00,197.00,234.00,788.00,1553.00,2256.00,3007.00,,,,,,,,,,,,0,1,0,,-76,16372,56,-187,80,-334
7.425,7.38,-0.16,-1.12,1.08,-18.04,13.01,0.60,0.03,0.14,-0.20,1205.00,2112.00,106.00,252.00,866.00,1466.00,2303.00,2890.00,,,,,,,,,,,,0,1,0,,-48,16232,144,-140,54,-227
7.487,7.43,-0.07,0.96,-0.82,0.37,-2.01,1.61,-1.66,-0.51,-0.12,1286.00,2047.00,171.00,182.00,932.00,1474.00,2320.00,2959.00,,,,,,,,,,,,0,1,0,,-92,16148,124,1,79,-279
7.528,7.49,-0.15,0.21,-0.49,0.77,-7.21,-1.63,0.55,-1.25,0.56,1281.00,2090.00,225.00,206.00,877.00,1579.00,2266.00,2991.00,,,,,,,,,,,,0,1,0,,-164,16360,344,255,429,-16
7.631,7.54,-0.20,-0.59,0.05,-14.06,4.31,-1.07,1.56,-0.29,0.01,1262.00,2126.00,158.00,272.00,822.00,1503.00,2295.00,2923.00,,,,,,,,,,,,0,1,0,,-140,16176,-184,228,491,-171
7.651,7.60,-0.13,-0.01,0.30,-9.63,6.70,1.19,-1.00,0.31,-0.72,1232.00,2064.00,128.00,214.00,906.00,1472.00,2361.00,2911.00,,,,,,,,,,,,0,1,0,,-36,16324,-168,79,317,-76
7.692,7.66,-0.16,1.21,-1.49,7.94,-7.91,-0.82,0.40,-1.60,0.61,1328.00,2064.00,205.00,158.00,871.00,1535.00,2275.00,3029.00,,,,,,,,,,,,0,1,0,,8,16288,-72,-98,105,-110
7.753,7.71,-0.17,-0.84,0.39,-8.22,0.35,-0.39,0.71,-0.86,0.46,1245.00,2128.00,176.00,240.00,850.00,1497.00,2262.00,2953.00,,,,,,,,,,,,0,1,0,,40,16272,-44,-149,-6,-178
7.794,7.76,-0.10,-1.14,0.82,-12.41,7.64,1.26,-0.04,-0.12,-0.29,1223.00,2129.00,128.00,233.00,859.00,1431.00,2325.00,2927.00,,,,,,,,,,,,0,1,0,,-24,16160,-64,-139,-35,-273
7.876,7.82,-0.11,0.47,-0.47,2.50,-3.26,-0.27,-0.01,-0.94,0.03,1273.00,2067.00,176.00,173.00,882.00,1519.00,2320.00,2998.00,,,,,,,,,,,,0,1,0,,-68,16356,-148,-226,-64,-265
7.917,7.87,-0.23,-0.11,-0.46,-4.97,-3.01,-2.60,2.62,-1.49,0.91,1286.00,2115.00,199.00,231.00,798.00,1552.00,2234.00,2992.00,,,,,,,,,,,,0,1,0,,-152,16368,-128,-143,2,-262
7.979,7.93,-0.20,-1.43,1.22,-16.98,8.61,0.46,0.04,-0.22,-0.22,1203.00,2130.00,132.00,272.00,868.00,1474.00,2320.00,2933.00,,,,,,,,,,,,0,1,0,,-172,16268,48,-229,-3,-181
8.021,7.99,-0.16,0.06,-0.66,-3.68,-0.10,0.60,-0.80,-0.68,-0.39,1296.00,2112.00,166.00,203.00,906.00,1499.00,2362.00,3001.00,,,,,,,,,,,,0,1,0,,-172,16280,176,-179,12,-235
8.083,8.04,-0.26,-0.66,-0.34,2.44,-7.44,-2.11,1.10,-2.16,0.71,1291.00,2155.00,221.00,194.00,859.00,1586.00,2286.00,3089.00,,,,,,,,,,,,0,1,0,,-160,16316,-60,-130,56,-114
8.124,8.10,-0.27,-1.48,0.50,-15.74,4.52,-0.61,1.14,-0.66,0.05,1252.00,2176.00,161.00,289.00,834.00,1493.00,2305.00,2963.00,,,,,,,,,,,,0,1,0,,-180,16236,84,-105,11,-139
8.186,8.15,-0.21,-0.17,0.15,-11.43,8.50,0.93,-1.01,0.29,-0.76,1246.00,2086.00,120.00,219.00,911.00,1488.00,2367.00,2916.00,,,,,,,,,,,,0,1,0,,-232,16344,28,-134,156,-131
8.249,8.21,-0.24,0.55,-0.87,5.73,-9.92,-0.68,0.44,-1.25,0.54,1299.00,2083.00,238.00,182.00,867.00,1525.00,2269.00,2993.00,,,,,,,,,,,,0,1,0,,-104,16216,32,-103,140,-49
8.371,8.26,-0.24,-0.60,0.16,-5.19,-0.88,-0.21,0.67,-0.56,0.27,1255.00,2121.00,178.00,220.00,849.00,1488.00,2274.00,2934.00,,,,,,,,,,,,0,1,0,,12,16212,-12,-101,75,-60
8.391,8.32,-0.19,-0.63,0.64,-14.43,9.36,0.68,0.39,0.01,-0.09,1223.00,2096.00,121.00,241.00,848.00,1447.00,2294.00,2896.00,,,,,,,,,,,,0,1,0,,-76,16396,104,-135,103,-97
8.411,8.37,-0.19,0.81,-0.74,4.76,-5.72,-0.15,-0.24,-0.67,-0.07,1284.00,2055.00,193.00,169.00,891.00,1521.00,2320.00,2973.00,,,,,,,,,,,,0,1,0,,-100,16224,-76,-203,61,-211
8.472,8.43,-0.33,-0.08,-0.61,-3.57,-5.08,-3.10,2.72,-1.58,0.96,1296.00,2121.00,217.00,231.00,801.00,1579.00,2231.00,2998.00,,,,,,,,,,,,0,1,0,,-208,16304,88,-126,1,-117
8.534,8.48,-0.36,-1.58,1.39,-14.07,6.28,-0.84,0.95,0.51,-0.50,1195.00,2133.00,142.00,258.00,846.00,1514.00,2325.00,2871.00,,,,,,,,,,,,0,1,0,,20,16384,-12,-146,123,-166
8.575,8.54,-0.32,0.20,-0.63,-6.61,3.13,0.38,-0.83,-0.52,-0.29,1291.00,2099.00,147.00,209.00,911.00,1513.00,2342.00,2974.00,,,,,,,,,,,,0,1,0,,-124,16392,40,-109,113,-161
8.637,8.59,-0.40,-0.06,-0.82,2.42,-8.17,-1.90,0.87,-2.04,0.87,1310.00,2131.00,230.00,198.00,866.00,1582.00,2261.00,3061.00,,,,,,,,,,,,0,1,0,,-28,16356,112,-100,110,-125
8.719,8.65,-0.43,-1.35,0.28,-13.99,2.71,-1.08,1.14,-1.00,0.30,1264.00,2178.00,172.00,283.00,841.00,1521.00,2288.00,2983.00,,,,,,,,,,,,0,1,0,,-160,16196,88,-62,147,-156
8.739,8.70,-0.36,-0.80,0.42,-11.91,5.95,1.05,-1.33,-0.69,-0.31,1242.00,2123.00,139.00,239.00,925.00,1494.00,2352.00,2995.00,,,,,,,,,,,,0,1,0,,-24,16224,28,-83,151,17
8.801,8.76,-0.36,0.70,-1.33,6.62,-5.96,-0.30,-0.35,-1.70,0.43,1328.00,2096.00,189.00,158.00,899.00,1535.00,2301.00,3056.00,,,,,,,,,,,,0,1,0,,-44,16428,108,-34,226,-135
8.841,8.81,-0.41,-0.57,-0.19,-5.39,-2.40,-1.44,1.33,-1.68,0.79,1278.00,2138.00,194.00,231.00,838.00,1535.00,2256.00,3024.00,,,,,,,,,,,,0,1,0,,-12,16336,-88,-67,213,-92
8.903,8.87,-0.36,-1.26,0.87,-15.88,9.24,0.59,-0.15,-0.14,-0.13,1222.00,2136.00,125.00,256.00,875.00,1474.00,2306.00,2917.00,,,,,,,,,,,,0,1,0,,-36,16344,80,-147,68,-157
8.965,8.92,-0.33,0.90,-0.70,4.05,-3.78,0.27,-1.17,-0.73,-0.04,1279.00,2045.00,176.00,165.00,930.00,1534.00,2320.00,2979.00,,,,,,,,,,,,0,1,0,,16,16432,180,-150,129,-228
9.026,8.98,-0.43,-0.28,-0.40,-2.85,-5.32,-2.22,1.28,-1.44,0.84,1286.00,2126.00,217.00,226.00,852.00,1585.00,2240.00,2992.00,,,,,,,,,,,,0,1,0,,104,16256,136,-218,192,-241
9.087,9.03,-0.43,-1.00,0.80,-15.91,7.03,-0.61,0.10,-0.30,-0.21,1221.00,2118.00,141.00,272.00,882.00,1535.00,2322.00,2941.00,,,,,,,,,,,,0,1,0,,-56,16256,116,-218,136,-239
9.149,9.09,-0.38,0.01,-0.18,-7.32,4.54,0.61,-1.50,-0.60,-0.41,1264.00,2089.00,138.00,207.00,941.00,1527.00,2361.00,2993.00,,,,,,,,,,,,0,1,0,,-164,16396,48,-150,95,-331
9.17,9.14,-0.48,0.05,-0.92,0.81,-7.63,-2.28,0.81,-2.26,0.90,1315.00,2128.00,230.00,208.00,875.00,1609.00,2266.00,3085.00,,,,,,,,,,,,0,1,0,,-48,16232,96,-50,-1,-276
9.233,9.20,-0.54,-1.45,0.55,-11.86,1.05,-1.75,1.34,-0.74,0.39,1248.00,2171.00,181.00,272.00,842.00,1553.00,2267.00,2946.00,,,,,,,,,,,,0,1,0,,-212,16384,16,-7,-73,-244
9.293,9.25,-0.42,-0.37,0.18,-11.75,8.30,1.84,-1.96,0.16,-0.70,1248.00,2100.00,122.00,223.00,943.00,1472.00,2365.00,2927.00,,,,,,,,,,,,0,1,0,,-188,16156,216,7,26,-206
9.335,9.31,-0.46,0.33,-0.78,1.70,-4.98,-1.25,0.30,-1.37,0.43,1298.00,2096.00,196.00,187.00,883.00,1566.00,2288.00,3017.00,,,,,,,,,,,,0,1,0,,-272,16204,116,-97,116,-116
9.397,9.36,-0.58,-0.99,0.23,-6.98,-1.48,-2.83,2.45,-1.27,0.52,1259.00,2150.00,190.00,240.00,809.00,1574.00,2272.00,2997.00,,,,,,,,,,,,0,1,0,,-144,16232,44,-212,201,-75
9.458,9.41,-0.55,-1.56,1.28,-19.24,14.49,0.04,0.22,-0.24,-0.09,1202.00,2138.00,100.00,254.00,866.00,1491.00,2305.00,2925.00,,,,,,,,,,,,0,1,0,,-32,16256,-120,-157,126,19
9.52,9.47,-0.54,0.43,-0.51,0.72,-1.69,-0.31,-0.92,-1.05,0.06,1277.00,2073.00,167.00,178.00,927.00,1559.00,2320.00,3008.00,,,,,,,,,,,,0,1,0,,-72,16428,216,-130,-20,17
9.561,9.53,-0.65,-0.67,-0.30,-1.61,-6.33,-2.84,1.80,-1.82,0.84,1288.00,2153.00,224.00,221.00,838.00,1602.00,2256.00,3037.00,,,,,,,,,,,,0,1,0,,-176,16268,144,3,123,-48
9.603,9.58,-0.64,-1.49,0.77,-15.22,6.15,-0.39,-0.08,-0.88,-0.13,1234.00,2161.00,146.00,271.00,887.00,1529.00,2337.00,3003.00,,,,,,,,,,,,0,1,0,,-28,16396,-32,-40,195,-158
9.665,9.64,-0.58,-0.14,-0.65,-5.22,-0.66,0.47,-1.50,-0.65,-0.25,1300.00,2128.00,176.00,219.00,943.00,1535.00,2342.00,2985.00,,,,,,,,,,,,0,1,0,,-172,16196,-80,-157,122,-78
9.728,9.69,-0.67,0.39,-1.05,0.77,-7.21,-2.34,0.85,-1.96,0.66,1316.00,2107.00,225.00,206.00,874.00,1611.00,2283.00,3068.00,,,,,,,,,,,,0,1,0,,-100,16268,44,-200,37,-104
9.829,9.75,-0.76,-1.27,0.18,-12.28,1.40,-2.35,1.52,-0.39,0.07,1269.00,2177.00,179.00,274.00,843.00,1583.00,2291.00,2930.00,,,,,,,,,,,,0,1,0,,-72,16192,56,-242,109,-30
9.85,9.80,-0.70,-0.77,0.51,-8.75,4.88,0.46,-1.24,1.00,-0.76,1235.00,2115.00,139.00,217.00,930.00,1525.00,2337.00,2836.00,,,,,,,,,,,,0,1,0,,-44,16412,68,-136,41,47
9.893,9.86,-0.69,0.23,-0.59,3.33,-5.34,-0.50,-0.69,-0.99,0.18,1287.00,2094.00,194.00,177.00,919.00,1561.00,2303.00,2992.00,,,,,,,,,,,,0,1,0,,16,16464,180,-203,141,-86
9.954,9.91,-0.76,-0.46,-0.06,-4.40,-3.20,-2.21,1.52,-1.36,0.95,1267.00,2122.00,199.00,227.00,841.00,1574.00,2224.00,2974.00,,,,,,,,,,,,0,1,0,,4,16316,128,-131,146,-81
10.015,9.97,-0.67,-1.46,1.46,-14.14,6.96,1.09,-0.62,0.34,-0.30,1188.00,2119.00,137.00,254.00,889.00,1463.00,2307.00,2875.00,,,,,,,,,,,,0,1,0,,44,16344,176,-118,94,-117
10.056,10.02,-0.66,0.68,-0.81,0.50,-3.80,-0.55,-0.51,-0.81,-0.01,1292.00,2069.00,188.00,190.00,911.00,1557.00,2319.00,2985.00,,,,,,,,,,,,0,1,0,,20,16260,84,-136,97,-79
10.119,10.08,-0.76,-0.27,-0.36,-3.26,-6.66,-2.61,1.14,-1.61,0.87,1283.00,2123.00,235.00,238.00,865.00,1616.00,2244.00,3010.00,,,,,,,,,,,,0,1,0,,-52,16304,168,-134,149,-103
10.202,10.13,-0.80,-1.17,0.42,-14.54,3.67,-1.62,0.80,-0.63,0.17,1250.00,2154.00,165.00,282.00,865.00,1568.00,2289.00,2950.00,,,,,,,,,,,,0,1,0,,-44,16216,184,-132,139,-133
10.243,10.19,-0.75,-0.28,-0.15,-7.72,3.88,0.19,-1.09,-0.41,-0.42,1269.00,2112.00,144.00,214.00,927.00,1535.00,2354.00,2971.00,,,,,,,,,,,,0,1,0,,-80,16268,196,-147,99,-124
10.263,10.24,-0.86,0.34,-1.24,4.01,-8.79,-2.84,0.89,-1.97,0.65,1331.00,2122.00,231.00,189.00,880.00,1641.00,2285.00,3071.00,,,,,,,,,,,,0,1,0,,68,16208,232,-119,80,-113
10.325,10.30,-0.94,-1.36,0.05,-12.55,0.20,-2.49,2.13,-1.25,0.56,1280.00,2192.00,192.00,286.00,818.00,1566.00,2266.00,2991.00,,,,,,,,,,,,0,1,0,,-4,16248,328,-35,211,-49
10.387,10.35,-0.86,-0.89,0.46,-9.86,6.35,0.71,-1.04,-0.25,-0.30,1241.00,2128.00,131.00,218.00,916.00,1502.00,2331.00,2942.00,,,,,,,,,,,,0,1,0,,84,16344,92,-97,151,-207
10.447,10.41,-0.86,0.15,-0.50,0.07,0.76,-0.93,-0.10,-1.00,0.33,1283.00,2096.00,148.00,171.00,897.00,1563.00,2285.00,2981.00,,,,,,,,,,,,0,1,0,,28,16276,280,-5,44,-236
10.508,10.46,-0.99,-0.39,-0.12,-5.51,-3.65,-3.45,3.00,-0.78,0.49,1269.00,2119.00,208.00,240.00,794.00,1589.00,2256.00,2942.00,,,,,,,,,,,,0,1,0,,-40,16336,92,-22,-3,-169
10.57,10.52,-0.92,-1.57,1.51,-16.01,9.28,0.41,0.03,0.24,-0.24,1187.00,2125.00,125.00,257.00,869.00,1477.00,2304.00,2882.00,,,,,,,,,,,,0,1,0,,-52,16300,188,-85,158,-57
10.611,10.57,-0.91,0.82,-0.47,2.75,-4.26,-0.63,-0.43,-0.76,-0.03,1265.00,2039.00,185.00,176.00,908.00,1558.00,2319.00,2981.00,,,,,,,,,,,,0,1,0,,40,16176,-68,-133,250,-74
10.674,10.63,-0.99,-0.39,-0.28,-0.63,-6.58,-2.68,1.39,-1.35,0.81,1280.00,2128.00,223.00,214.00,854.00,1609.00,2240.00,2983.00,,,,,,,,,,,,0,1,0,,0,16368,164,-155,140,-133
10.736,10.68,-0.99,-0.70,0.44,-12.73,1.66,-0.95,0.60,-0.19,-0.03,1238.00,2113.00,178.00,277.00,864.00,1535.00,2295.00,2914.00,,,,,,,,,,,,0,1,0,,100,16412,120,-144,45,-47
10.778,10.74,-0.89,-0.13,0.00,-3.78,-1.04,1.12,-1.30,0.23,-0.80,1255.00,2091.00,175.00,209.00,922.00,1488.00,2375.00,2926.00,,,,,,,,,,,,0,1,0,,32,16408,88,-63,118,-92
10.838,10.79,-0.93,0.97,-1.41,7.12,-12.37,-1.74,0.52,-1.63,0.50,1328.00,2079.00,265.00,184.00,880.00,1587.00,2289.00,3041.00,,,,,,,,,,,,0,1,0,,152,16300,-12,-61,178,-180
10.92,10.85,-0.94,-1.25,0.43,-14.88,4.70,-1.23,1.04,-0.44,0.17,1251.00,2160.00,157.00,278.00,848.00,1534.00,2281.00,2928.00,,,,,,,,,,,,0,1,0,,84,16352,100,-101,82,-141
10.941,10.90,-0.88,-0.25,0.28,-16.76,9.54,0.28,0.10,-0.05,-0.36,1239.00,2085.00,125.00,263.00,868.00,1482.00,2331.00,2924.00,,,,,,,,,,,,0,1,0,,84,16236,272,-88,112,-137
11.003,10.96,-0.88,0.50,-0.79,6.23,-6.31,-0.82,-0.26,-0.58,-0.18,1295.00,2083.00,194.00,162.00,903.00,1563.00,2331.00,2972.00,,,,,,,,,,,,0,1,0,,56,16252,312,-138,141,-101
11.066,11.01,-0.98,-0.60,0.06,-8.79,-1.07,-2.84,2.42,-1.61,1.09,1262.00,2127.00,192.00,255.00,810.00,1575.00,2217.00,2992.00,,,,,,,,,,,,0,1,0,,32,16300,308,-107,126,-65
11.127,11.07,-0.89,-1.24,1.06,-14.63,7.40,0.75,-0.63,0.17,-0.30,1209.00,2123.00,135.00,256.00,895.00,1483.00,2314.00,2894.00,,,,,,,,,,,,0,1,0,,-56,16280,236,0,190,-54
11.169,11.12,-0.84,1.09,-0.96,3.70,-4.38,0.21,-1.11,-0.90,-0.17,1293.00,2044.00,183.00,170.00,928.00,1535.00,2343.00,3009.00,,,,,,,,,,,,0,1,0,,152,16304,132,-57,145,-218
11.23,11.18,-0.90,0.04,-0.35,1.50,-8.65,-2.18,1.35,-1.36,0.68,1275.00,2096.00,240.00,208.00,848.00,1579.00,2256.00,2995.00,,,,,,,,,,,,0,1,0,,80,16204,76,-64,101,-113
11.293,11.23,-0.91,-0.60,0.32,-15.16,5.51,-1.04,0.93,-0.34,0.18,1244.00,2112.00,151.00,275.00,850.00,1527.00,2275.00,2915.00,,,,,,,,,,,,0,1,0,,8,16256,228,-63,95,-147
11.313,11.29,-0.83,-0.13,0.48,-6.79,3.57,0.76,-1.16,0.46,-0.74,1223.00,2064.00,144.00,208.00,921.00,1504.00,2357.00,2895.00,,,,,,,,,,,,0,1,0,,-44,16256,252,-94,173,-97
11.375,11.34,-0.86,1.27,-1.53,6.05,-10.18,-1.40,0.10,-1.22,0.42,1329.00,2061.00,240.00,181.00,895.00,1584.00,2282.00,2999.00,,,,,,,,,,,,0,1,0,,192,16244,8,-39,201,-66
11.436,11.40,-0.89,-0.82,0.31,-13.14,3.08,-1.54,1.72,-0.19,0.20,1250.00,2131.00,166.00,271.00,822.00,1525.00,2267.00,2897.00,,,,,,,,,,,,0,1,0,,112,16316,4,-169,115,-163
11.477,11.45,-0.81,-0.01,0.31,-14.70,9.91,0.70,-0.28,0.26,-0.22,1231.00,2063.00,118.00,240.00,879.00,1472.00,2300.00,2878.00,,,,,,,,,,,,0,1,0,,-56,16300,216,-32,49,-93
11.54,11.51,-0.74,0.84,-0.46,6.97,-6.94,0.54,-0.88,-0.94,0.50,1264.00,2037.00,198.00,160.00,911.00,1506.00,2261.00,2960.00,,,,,,,,,,,,0,1,0,,-12,16296,212,-46,132,-159
11.603,11.56,-0.83,-0.21,0.03,-5.47,-3.39,-2.42,2.22,-1.33,1.16,1255.00,2096.00,205.00,238.00,813.00,1558.00,2197.00,2953.00,,,,,,,,,,,,0,1,0,,104,16236,8,-30,156,-136
11.665,11.62,-0.75,-1.51,1.68,-17.34,11.12,0.69,-0.08,0.63,-0.37,1175.00,2111.00,116.00,258.00,870.00,1465.00,2304.00,2848.00,,,,,,,,,,,,0,1,0,,268,16316,48,-86,132,-122
11.727,11.67,-0.72,1.44,-0.71,-0.31,-2.21,-0.10,-0.63,-0.68,0.07,1267.00,2002.00,175.00,188.00,909.00,1534.00,2303.00,2963.00,,,,,,,,,,,,0,1,0,,-36,16372,128,-99,114,-105
11.788,11.73,-0.78,-0.07,-0.35,0.52,-7.21,-1.87,1.19,-1.34,0.53,1278.00,2106.00,226.00,208.00,851.00,1567.00,2274.00,3005.00,,,,,,,,,,,,0,1,0,,60,16344,104,-85,109,-104
11.829,11.78,-0.78,-0.78,0.28,-12.97,0.83,-0.93,0.94,-0.84,0.27,1251.00,2129.00,187.00,286.00,848.00,1520.00,2285.00,2966.00,,,,,,,,,,,,0,1,0,,80,16356,36,-140,170,-115
11.889,11.84,-0.68,-0.13,0.00,-6.45,3.08,1.27,-1.69,0.10,-0.70,1255.00,2091.00,147.00,208.00,939.00,1495.00,2368.00,2934.00,,,,,,,,,,,,0,1,0,,260,16224,172,4,172,-45
11.951,11.89,-0.70,1.17,-1.44,13.40,-12.50,-1.02,0.18,-1.79,0.59,1325.00,2064.00,238.00,144.00,885.00,1557.00,2285.00,3054.00,,,,,,,,,,,,0,1,0,,188,16420,-12,-52,173,-148
12.032,11.95,-0.72,-0.83,0.41,-11.74,1.85,-1.23,1.23,-0.73,0.62,1243.00,2126.00,173.00,265.00,839.00,1526.00,2238.00,2926.00,,,,,,,,,,,,0,1,0,,16,16140,156,-138,81,-166
12.052,12.00,-0.66,-0.09,0.51,-11.99,7.50,0.58,0.08,0.22,-0.17,1220.00,2059.00,128.00,230.00,864.00,1465.00,2295.00,2878.00,,,,,,,,,,,,0,1,0,,8,16288,-12,-72,35,-121
12.093,12.06,-0.60,0.69,-0.14,9.01,-4.70,0.57,-0.85,-0.23,0.03,1246.00,2032.00,169.00,139.00,909.00,1503.00,2290.00,2915.00,,,,,,,,,,,,0,1,0,,96,16356,-64,-96,158,-77
12.177,12.11,-0.70,-0.11,0.29,-2.15,-4.33,-2.54,2.95,-1.49,1.35,1235.00,2073.00,203.00,214.00,783.00,1535.00,2181.00,2957.00,,,,,,,,,,,,0,1,0,,44,16300,184,-112,178,-100
12.198,12.16,-0.61,-0.50,1.18,-14.01,6.92,0.99,-0.29,0.36,-0.04,1185.00,2055.00,137.00,253.00,875.00,1456.00,2274.00,2853.00,,,,,,,,,,,,0,1,0,,8,16328,112,-129,137,-173
12.259,12.22,-0.55,1.39,-0.51,-1.75,-1.83,0.64,-1.04,0.01,-0.25,1255.00,1996.00,176.00,197.00,917.00,1506.00,2315.00,2909.00,,,,,,,,,,,,0,1,0,,168,16372,52,-142,85,-109
12.301,12.28,-0.61,0.54,-0.34,1.44,-6.17,-1.73,0.84,-0.63,0.25,1263.00,2055.00,210.00,195.00,865.00,1573.00,2279.00,2944.00,,,,,,,,,,,,0,1,0,,148,16248,384,-37,63,-114
12.402,12.33,-0.57,-0.43,0.44,-9.60,-0.31,0.09,0.55,-0.25,0.06,1232.00,2091.00,187.00,258.00,850.00,1475.00,2287.00,2915.00,,,,,,,,,,,,0,1,0,,68,16356,220,-58,161,-165
12.423,12.39,-0.47,0.21,0.09,-7.40,4.30,1.49,-1.36,0.71,-0.95,1241.00,2058.00,140.00,209.00,919.00,1469.00,2373.00,2883.00,,,,,,,,,,,,0,1,0,,120,16304,-12,-156,131,-150
12.464,12.44,-0.51,1.08,-1.10,11.13,-11.89,-1.38,0.68,-1.45,0.66,1303.00,2053.00,240.00,155.00,867.00,1558.00,2263.00,3008.00,,,,,,,,,,,,0,1,0,,84,16324,148,-106,86,-96
12.524,12.50,-0.54,-0.54,0.48,-8.08,0.30,-1.10,1.43,-0.44,0.30,1232.00,2098.00,176.00,239.00,828.00,1510.00,2265.00,2918.00,,,,,,,,,,,,0,1,0,,36,16384,128,-112,143,-169
12.586,12.55,-0.47,0.32,0.52,-10.27,7.65,0.94,0.22,0.30,-0.43,1210.00,2025.00,123.00,214.00,852.00,1439.00,2325.00,2890.00,,,,,,,,,,,,0,1,0,,204,16256,192,-109,78,-223
12.628,12.61,-0.44,0.88,-0.44,9.31,-6.47,0.08,-0.09,-0.93,0.15,1262.00,2033.00,185.00,144.00,880.00,1501.00,2304.00,2987.00,,,,,,,,,,,,0,1,0,,156,16336,112,-62,6,-246
12.689,12.66,-0.54,-0.22,-0.07,-6.23,-0.84,-2.38,2.73,-1.40,1.01,1262.00,2102.00,181.00,229.00,790.00,1534.00,2218.00,2973.00,,,,,,,,,,,,0,1,0,,196,16280,88,23,181,-215
12.77,12.72,-0.48,-0.70,1.16,-13.25,7.78,0.54,0.53,0.39,-0.24,1191.00,2073.00,129.00,240.00,844.00,1450.00,2297.00,2864.00,,,,,,,,,,,,0,1,0,,100,16296,-152,-49,141,-226
12.811,12.77,-0.44,1.78,-0.80,-1.75,1.12,0.51,-0.56,-0.14,-0.28,1266.00,1981.00,150.00,182.00,896.00,1495.00,2324.00,2928.00,,,,,,,,,,,,0,1,0,,52,16260,4,-112,11,-167
12.852,12.83,-0.47,0.56,-0.23,-0.82,-5.23,-1.23,1.02,-1.21,0.63,1255.00,2047.00,208.00,208.00,849.00,1535.00,2256.00,2981.00,,,,,,,,,,,,0,1,0,,76,16212,244,-27,85,-84
12.914,12.88,-0.49,-0.28,0.47,-13.57,1.83,-0.72,1.42,-0.37,0.20,1227.00,2077.00,179.00,285.00,823.00,1488.00,2274.00,2917.00,,,,,,,,,,,,0,1,0,,152,16124,24,-109,231,-42
12.975,12.94,-0.36,0.67,0.04,-9.90,5.40,1.98,-1.10,0.97,-1.48,1234.00,2023.00,138.00,224.00,898.00,1431.00,2431.00,2894.00,,,,,,,,,,,,0,1,0,,152,16364,28,-132,209,-111
13.037,12.99,-0.40,1.79,-1.44,4.57,-8.41,-1.04,0.74,-1.33,0.52,1310.00,2014.00,224.00,183.00,859.00,1535.00,2275.00,3005.00,,,,,,,,,,,,0,1,0,,-16,16208,-140,-155,31,-193
13.139,13.05,-0.45,-0.72,0.81,-7.47,-1.22,-1.38,1.78,-0.40,0.36,1214.00,2094.00,189.00,243.00,817.00,1513.00,2256.00,2908.00,,,,,,,,,,,,0,1,0,,8,16316,32,-136,-20,-143
13.16,13.10,-0.34,0.22,0.45,-10.83,10.07,1.69,-0.63,0.36,-0.25,1217.00,2037.00,109.00,205.00,880.00,1429.00,2300.00,2869.00,,,,,,,,,,,,0,1,0,,88,16272,132,-77,131,-157
13.202,13.16,-0.29,1.17,-0.26,9.92,-7.36,0.63,-0.65,0.16,-0.10,1243.00,2000.00,192.00,144.00,898.00,1491.00,2289.00,2880.00,,,,,,,,,,,,0,1,0,,44,16252,192,-125,117,-158
13.264,13.21,-0.40,0.39,-0.34,-0.76,-5.86,-2.46,2.83,-1.07,1.03,1266.00,2067.00,215.00,211.00,787.00,1535.00,2202.00,2933.00,,,,,,,,,,,,0,1,0,,8,16288,128,-129,73,-85
13.306,13.27,-0.31,-0.75,1.28,-13.89,8.87,1.30,-0.73,0.55,-0.35,1184.00,2070.00,123.00,239.00,891.00,1455.00,2304.00,2855.00,,,,,,,,,,,,0,1,0,,152,16316,84,-93,142,-157
13.366,13.32,-0.23,1.52,-0.69,-0.66,0.75,1.40,-1.03,-0.54,-0.01,1264.00,1995.00,150.00,176.00,904.00,1461.00,2308.00,2954.00,,,,,,,,,,,,0,1,0,,40,16204,220,-55,204,-100
13.448,13.38,-0.33,0.02,-0.21,3.91,-7.43,-2.20,1.94,-1.12,0.33,1266.00,2090.00,215.00,183.00,822.00,1556.00,2290.00,2995.00,,,,,,,,,,,,0,1,0,,104,16276,60,-68,177,-119
13.509,13.43,-0.34,-0.87,0.59,-11.31,2.36,-0.64,1.08,-0.46,0.14,1232.00,2119.00,167.00,257.00,837.00,1497.00,2286.00,2933.00,,,,,,,,,,,,0,1,0,,76,16300,32,-26,133,-44
13.53,13.49,-0.22,0.05,0.19,-7.95,5.29,2.06,-1.87,-0.00,-0.54,1238.00,2065.00,134.00,208.00,935.00,1456.00,2352.00,2933.00,,,,,,,,,,,,0,1,0,,272,16368,76,-120,109,-241
13.591,13.54,-0.24,1.84,-1.58,13.33,-12.40,-0.61,0.10,-1.14,0.50,1319.00,2018.00,237.00,144.00,882.00,1535.00,2269.00,2983.00,,,,,,,,,,,,0,1,0,,112,16312,-4,-123,50,-213
13.633,13.60,-0.25,-0.77,0.69,-9.03,1.70,-0.40,0.96,-0.24,0.40,1223.00,2105.00,166.00,239.00,839.00,1488.00,2245.00,2887.00,,,,,,,,,,,,0,1,0,,32,16224,80,-53,28,-127
13.674,13.65,-0.19,0.16,0.48,-11.25,7.39,0.90,0.11,0.25,-0.12,1216.00,2040.00,127.00,224.00,858.00,1446.00,2288.00,2871.00,,,,,,,,,,,,0,1,0,,144,16400,152,-86,167,-73
13.737,13.71,-0.13,1.01,-0.41,5.76,-2.24,1.07,-0.69,-0.29,0.18,1257.00,2021.00,157.00,148.00,893.00,1467.00,2274.00,2910.00,,,,,,,,,,,,0,1,0,,48,16188,24,-85,190,-137
13.8,13.76,-0.22,-0.13,0.13,-2.93,-3.70,-2.03,2.20,-1.25,1.16,1246.00,2083.00,199.00,217.00,808.00,1535.00,2194.00,2944.00,,,,,,,,,,,,0,1,0,,124,16400,-32,-127,126,-194
13.861,13.82,-0.16,-0.74,1.44,-17.00,12.84,0.99,-0.16,0.58,-0.19,1174.00,2061.00,105.00,243.00,869.00,1451.00,2283.00,2839.00,,,,,,,,,,,,0,1,0,,84,16324,160,-104,22,-137
13.924,13.87,-0.11,1.30,-0.29,-1.84,-0.15,0.99,-1.16,-0.08,-0.34,1242.00,1991.00,161.00,189.00,917.00,1490.00,2329.00,2926.00,,,,,,,,,,,,0,1,0,,32,16272,152,-83,100,-183
14.011,13.93,-0.15,1.07,-0.49,1.41,-7.43,-1.00,0.92,-1.02,0.50,1261.00,2020.00,225.00,202.00,850.00,1525.00,2265.00,2970.00,,,,,,,,,,,,0,1,0,,92,16256,24,-60,144,-152
14.029,13.98,-0.14,-0.64,0.38,-12.04,2.71,0.01,0.64,-0.20,0.29,1241.00,2112.00,166.00,262.00,847.00,1476.00,2256.00,2891.00,,,,,,,,,,,,0,1,0,,68,16264,88,-92,71,-164
14.091,14.04,-0.03,0.47,0.15,-7.44,4.18,2.03,-1.98,0.46,-0.96,1231.00,2033.00,141.00,210.00,941.00,1462.00,2385.00,2912.00,,,,,,,,,,,,0,1,0,,124,16304,32,-148,126,-125
14.133,14.09,-0.08,1.40,-1.26,7.77,-8.11,-0.91,0.54,-1.66,0.73,1307.00,2036.00,208.00,160.00,866.00,1535.00,2263.00,3027.00,,,,,,,,,,,,0,1,0,,56,16284,184,-136,186,-135
14.235,14.15,-0.15,-0.81,0.65,-3.75,-1.26,-1.47,1.76,-0.50,0.39,1227.00,2111.00,177.00,210.00,819.00,1519.00,2257.00,2918.00,,,,,,,,,,,,0,1,0,,108,16208,36,-130,157,-142
14.256,14.20,-0.10,-0.23,0.58,-11.77,8.16,0.74,0.31,-0.17,-0.19,1218.00,2066.00,123.00,224.00,851.00,1447.00,2315.00,2925.00,,,,,,,,,,,,0,1,0,,136,16312,52,-72,90,-146
14.298,14.26,-0.11,1.22,-0.76,11.29,-5.58,-0.33,0.05,-0.81,0.07,1276.00,2023.00,170.00,130.00,880.00,1520.00,2309.00,2979.00,,,,,,,,,,,,0,1,0,,96,16320,96,-20,129,-153
14.338,14.31,-0.22,-0.26,0.19,1.00,-4.93,-2.13,2.35,-1.17,1.15,1245.00,2091.00,198.00,192.00,803.00,1535.00,2192.00,2935.00,,,,,,,,,,,,0,1,0,,200,16316,128,-168,124,-236
14.422,14.37,-0.15,-1.03,1.63,-12.55,6.43,1.10,-0.20,0.44,-0.19,1168.00,2074.00,137.00,242.00,869.00,1446.00,2289.00,2855.00,,,,,,,,,,,,0,1,0,,-16,16176,128,-192,-22,-154
14.462,14.42,-0.09,1.13,-0.34,4.23,-2.20,0.95,-1.04,-0.04,-0.27,1249.00,2007.00,161.00,157.00,912.00,1488.00,2319.00,2916.00,,,,,,,,,,,,0,1,0,,-20,16284,72,-58,129,-89
14.524,14.48,-0.15,0.09,-0.29,2.63,-7.34,-1.28,0.60,-1.26,0.63,1270.00,2089.00,219.00,192.00,869.00,1555.00,2258.00,2987.00,,,,,,,,,,,,0,1,0,,124,16256,48,-85,257,-108
14.604,14.53,-0.16,-0.70,0.74,-12.51,2.98,-0.32,1.08,-0.08,0.04,1218.00,2096.00,165.00,265.00,832.00,1478.00,2282.00,2896.00,,,,,,,,,,,,0,1,0,,172,16312,52,-43,143,-69
14.624,14.59,-0.07,0.13,0.25,-9.54,8.17,1.68,-1.39,0.22,-0.63,1232.00,2055.00,118.00,205.00,917.00,1459.00,2353.00,2914.00,,,,,,,,,,,,0,1,0,,72,16312,220,-135,39,-195
14.664,14.64,-0.11,1.67,-1.41,12.77,-11.58,-0.92,0.65,-1.28,0.68,1311.00,2022.00,229.00,144.00,861.00,1531.00,2253.00,2986.00,,,,,,,,,,,,0,1,0,,0,16160,124,-122,71,-161
14.726,14.70,-0.17,-0.67,0.60,-5.09,-1.02,-1.22,2.15,-0.11,0.28,1227.00,2102.00,179.00,220.00,798.00,1488.00,2254.00,2881.00,,,,,,,,,,,,0,1,0,,160,16296,56,-103,125,-121
14.79,14.75,-0.11,-0.32,0.89,-14.58,10.83,0.96,0.30,0.21,-0.10,1200.00,2057.00,112.00,233.00,848.00,1435.00,2287.00,2874.00,,,,,,,,,,,,0,1,0,,148,16360,272,-128,116,-144
14.851,14.81,-0.06,0.92,-0.49,7.59,-4.44,0.86,-0.91,-0.55,0.15,1264.00,2032.00,171.00,146.00,907.00,1488.00,2288.00,2942.00,,,,,,,,,,,,0,1,0,,52,16240,200,-82,60,-155
14.892,14.86,-0.15,0.23,-0.34,-0.51,-3.85,-1.87,1.96,-1.37,1.23,1270.00,2080.00,192.00,198.00,816.00,1535.00,2191.00,2953.00,,,,,,,,,,,,0,1,0,,36,16244,256,-115,114,-153
14.974,14.91,-0.09,-1.20,1.48,-6.44,9.29,1.20,-0.34,0.32,-0.14,1181.00,2096.00,105.00,176.00,874.00,1446.00,2288.00,2865.00,,,,,,,,,,,,0,1,0,,72,16296,224,-93,126,-148
14.994,14.97,-0.01,0.97,-0.50,0.04,-0.90,1.36,-1.24,-0.20,-0.19,1264.00,2029.00,162.00,179.00,915.00,1472.00,2316.00,2928.00,,,,,,,,,,,,0,1,0,,188,16320,196,-39,126,-56
15.055,15.03,-0.06,-0.07,-0.34,4.28,-6.94,-0.97,0.62,-1.18,0.34,1277.00,2105.00,208.00,178.00,863.00,1535.00,2291.00,3001.00,,,,,,,,,,,,0,1,0,,200,16408,64,1,218,-81
15.117,15.08,-0.07,-1.00,0.59,-11.94,2.57,-0.14,0.56,-0.33,0.22,1235.00,2130.00,167.00,262.00,853.00,1488.00,2270.00,2911.00,,,,,,,,,,,,0,1,0,,160,16284,56,-79,161,-193
15.178,15.14,0.05,-0.02,0.32,-3.52,3.94,2.29,-1.51,0.42,-0.82,1231.00,2064.00,133.00,181.00,913.00,1429.00,2369.00,2906.00,,,,,,,,,,,,0,1,0,,128,16348,96,-111,70,-100
15.22,15.19,-0.02,1.18,-0.91,7.99,-7.74,-1.41,0.75,-1.03,0.44,1287.00,2034.00,203.00,157.00,864.00,1557.00,2272.00,2975.00,,,,,,,,,,,,0,1,0,,8,16276,148,-6,88,-113
15.281,15.25,-0.06,-0.53,0.34,-7.81,0.53,-0.90,1.64,-0.31,0.59,1241.00,2105.00,173.00,235.00,816.00,1490.00,2224.00,2880.00,,,,,,,,,,,,0,1,0,,52,16372,148,-83,179,-184
15.364,15.30,-0.01,-0.35,0.81,-14.07,12.39,0.94,-0.15,0.35,-0.24,1206.00,2064.00,102.00,219.00,869.00,1453.00,2299.00,2869.00,,,,,,,,,,,,0,1,0,,232,16384,132,-81,185,-58
15.385,15.36,0.02,1.01,-0.46,7.70,-5.11,0.63,-0.42,-0.51,0.39,1260.00,2023.00,177.00,148.00,887.00,1482.00,2257.00,2919.00,,,,,,,,,,,,0,1,0,,84,16244,84,-179,100,-114
15.447,15.41,-0.08,0.23,-0.09,-2.51,-3.28,-1.88,2.59,-0.88,1.04,1253.00,2066.00,193.00,211.00,789.00,1510.00,2194.00,2911.00,,,,,,,,,,,,0,1,0,,84,16352,132,-83,63,-143
15.508,15.47,-0.05,-1.00,1.48,-17.21,10.91,0.52,0.41,0.63,-0.16,1177.00,2080.00,117.00,258.00,850.00,1456.00,2277.00,2831.00,,,,,,,,,,,,0,1,0,,208,16392,140,-100,125,-148
15.548,15.52,0.01,0.93,-0.24,7.03,-2.32,1.03,-0.86,-0.20,-0.16,1247.00,2018.00,154.00,141.00,902.00,1476.00,2312.00,2926.00,,,,,,,,,,,,0,1,0,,56,16308,16,-63,136,-160
15.61,15.58,-0.06,0.53,-0.38,-0.36,-5.91,-1.37,0.72,-1.04,0.69,1266.00,2058.00,214.00,208.00,865.00,1556.00,2242.00,2957.00,,,,,,,,,,,,0,1,0,,104,16196,112,-119,129,-110
15.712,15.63,-0.10,-0.58,0.46,-15.58,6.28,-0.75,1.12,-0.67,0.51,1234.00,2102.00,146.00,274.00,837.00,1502.00,2249.00,2928.00,,,,,,,,,,,,0,1,0,,224,16328,56,-128,155,-117
15.733,15.69,0.01,0.02,0.12,-5.48,4.05,2.06,-1.63,0.52,-0.76,1243.00,2071.00,137.00,195.00,923.00,1447.00,2357.00,2890.00,,,,,,,,,,,,0,1,0,,180,16320,40,-162,168,-173
15.775,15.74,-0.05,1.20,-1.48,5.55,-9.86,-1.15,0.90,-1.43,0.82,1327.00,2064.00,238.00,183.00,853.00,1535.00,2242.00,2992.00,,,,,,,,,,,,0,1,0,,208,16352,228,-47,109,-136
15.836,15.80,-0.10,-0.94,0.54,-8.22,0.35,-1.15,1.38,-0.79,0.61,1237.00,2128.00,176.00,240.00,831.00,1515.00,2242.00,2934.00,,,,,,,,,,,,0,1,0,,88,16432,268,-18,131,-142
15.897,15.85,-0.04,-0.36,0.70,-13.90,8.72,1.19,-0.12,0.38,-0.07,1213.00,2070.00,124.00,240.00,864.00,1438.00,2277.00,2853.00,,,,,,,,,,,,0,1,0,,188,16268,108,-151,118,-238
15.937,15.91,-0.02,0.78,-0.04,3.09,-2.82,0.38,-0.23,-0.24,0.19,1237.00,2019.00,170.00,167.00,882.00,1489.00,2270.00,2903.00,,,,,,,,,,,,0,1,0,,172,16304,144,-86,30,-205
16.0,15.96,-0.10,-0.16,0.13,-1.54,-4.35,-1.72,2.28,-1.17,1.34,1247.00,2086.00,201.00,209.00,800.00,1513.00,2170.00,2921.00,,,,,,,,,,,,0,1,0,,132,16344,184,-67,25,-206
16.064,16.01,-0.00,-0.75,1.27,-18.59,15.03,1.87,-0.50,0.63,-0.37,1185.00,2071.00,96.00,244.00,871.00,1414.00,2304.00,2848.00,,,,,,,,,,,,0,1,0,,140,16140,152,-111,165,-165
16.106,16.07,0.06,1.37,-0.43,4.42,-2.71,1.27,-0.97,-0.31,-0.00,1250.00,1993.00,165.00,158.00,903.00,1466.00,2297.00,2926.00,,,,,,,,,,,,0,1,0,,52,16260,-60,-104,198,-126
16.167,16.12,-0.01,0.20,-0.27,-0.82,-5.23,-1.35,1.18,-1.00,0.71,1266.00,2079.00,208.00,208.00,843.00,1535.00,2238.00,2950.00,,,,,,,,,,,,0,1,0,,108,16320,40,-86,198,-178
16.23,16.18,-0.02,-0.61,0.70,-14.23,5.95,-0.23,1.05,0.05,0.20,1219.00,2091.00,145.00,262.00,832.00,1474.00,2257.00,2869.00,,,,,,,,,,,,0,1,0,,168,16316,56,-112,121,-112
16.291,16.23,0.07,0.44,-0.16,-8.25,6.10,1.85,-1.94,0.80,-0.86,1253.00,2053.00,129.00,206.00,942.00,1471.00,2358.00,2866.00,,,,,,,,,,,,0,1,0,,168,16352,104,-91,101,-258
16.334,16.29,0.03,1.36,-1.20,10.93,-9.62,-0.74,0.48,-1.05,0.50,1303.00,2035.00,213.00,147.00,866.00,1527.00,2266.00,2973.00,,,,,,,,,,,,0,1,0,,112,16280,64,-96,41,-239
16.396,16.34,-0.01,-0.73,0.54,-9.73,2.73,-0.83,1.61,-0.38,0.49,1232.00,2110.00,159.00,239.00,816.00,1487.00,2239.00,2896.00,,,,,,,,,,,,0,1,0,,20,16388,124,-149,37,-235
16.437,16.40,0.03,-0.25,0.65,-15.40,10.95,0.87,-0.06,0.18,-0.09,1214.00,2064.00,113.00,240.00,866.00,1454.00,2287.00,2877.00,,,,,,,,,,,,0,1,0,,40,16316,272,-194,82,-184
16.498,16.45,0.02,0.95,-0.63,6.51,-3.86,-0.14,0.20,-0.47,0.13,1273.00,2037.00,169.00,150.00,870.00,1503.00,2287.00,2934.00,,,,,,,,,,,,0,1,0,,-48,16300,132,-202,74,-155
16.56,16.51,-0.07,0.09,-0.28,-3.44,-3.62,-1.79,2.23,-1.06,0.90,1269.00,2088.00,200.00,221.00,803.00,1519.00,2218.00,2943.00,,,,,,,,,,,,0,1,0,,172,16188,280,-17,158,-93
16.601,16.57,-0.03,-1.51,1.56,-18.71,13.41,0.71,0.15,0.11,0.07,1183.00,2118.00,105.00,256.00,859.00,1455.00,2271.00,2873.00,,,,,,,,,,,,0,1,0,,180,16424,36,-84,172,-146
16.663,16.62,0.01,1.14,-0.28,6.16,-2.85,0.70,-0.42,-0.06,-0.02,1245.00,2003.00,161.00,148.00,886.00,1478.00,2288.00,2898.00,,,,,,,,,,,,0,1,0,,-20,16332,176,-105,99,-204
16.705,16.67,-0.07,0.10,-0.34,5.44,-8.86,-1.62,1.59,-0.62,0.43,1273.00,2091.00,226.00,179.00,829.00,1535.00,2256.00,2928.00,,,,,,,,,,,,0,1,0,,24,16260,32,-108,-4,-175
16.767,16.73,-0.08,-0.49,0.43,-13.56,3.56,-0.17,0.97,0.25,0.12,1234.00,2096.00,163.00,272.00,835.00,1474.00,2259.00,2853.00,,,,,,,,,,,,0,1,0,,20,16360,308,-48,129,-70
16.809,16.78,0.01,0.37,0.07,-5.50,4.47,1.76,-1.37,0.62,-0.63,1239.00,2046.00,134.00,193.00,915.00,1454.00,2336.00,2868.00,,,,,,,,,,,,0,1,0,,92,16312,168,-42,205,-132
16.871,16.84,-0.02,1.24,-1.15,11.29,-11.16,-0.72,0.63,-1.04,0.68,1303.00,2043.00,230.00,151.00,859.00,1520.00,2243.00,2957.00,,,,,,,,,,,,0,1,0,,80,16328,124,-78,178,-180
16.933,16.89,-0.07,-0.84,0.58,-6.78,-0.34,-0.99,2.15,-0.25,0.31,1232.00,2117.00,178.00,231.00,795.00,1475.00,2256.00,2895.00,,,,,,,,,,,,0,1,0,,60,16304,20,-109,38,-115
17.016,16.95,0.01,-0.20,0.74,-11.33,9.74,1.51,-0.10,0.30,-0.10,1207.00,2055.00,112.00,211.00,858.00,1419.00,2284.00,2864.00,,,,,,,,,,,,0,1,0,,8,16292,180,-123,83,-116
17.036,17.00,0.04,1.15,-0.34,11.06,-4.95,0.63,-0.15,-0.34,0.18,1249.00,2006.00,165.00,129.00,874.00,1471.00,2276.00,2916.00,,,,,,,,,,,,0,1,0,,140,16268,32,-109,146,-133
17.099,17.06,-0.03,-0.46,0.41,-4.57,-2.29,-1.40,1.58,-1.04,1.17,1235.00,2095.00,190.00,223.00,826.00,1522.00,2185.00,2919.00,,,,,,,,,,,,0,1,0,,204,16388,64,-73,139,-149
17.181,17.11,0.01,-0.99,1.44,-15.55,11.16,0.85,0.14,0.34,-0.15,1179.00,2081.00,112.00,240.00,857.00,1447.00,2288.00,2863.00,,,,,,,,,,,,0,1,0,,96,16312,8,-139,88,-159
17.201,17.17,0.05,1.22,-0.89,1.29,-2.75,0.79,-0.80,-0.57,0.16,1285.00,2030.00,175.00,179.00,903.00,1488.00,2288.00,2944.00,,,,,,,,,,,,0,1,0,,48,16352,324,-143,72,-145
17.283,17.23,-0.03,0.17,-0.31,1.40,-5.53,-1.55,1.56,-1.08,0.70,1269.00,2083.00,203.00,192.00,829.00,1532.00,2243.00,2961.00,,,,,,,,,,,,0,1,0,,28,16324,148,-180,88,-109
17.304,17.28,-0.05,-0.99,0.66,-13.66,3.71,-0.40,0.82,-0.43,0.24,1230.00,2125.00,162.00,272.00,845.00,1493.00,2272.00,2921.00,,,,,,,,,,,,0,1,0,,32,16196,168,-22,122,-127
17.366,17.33,0.05,0.29,-0.08,-8.47,4.14,1.83,-1.56,0.26,-0.67,1251.00,2061.00,144.00,219.00,923.00,1457.00,2357.00,2913.00,,,,,,,,,,,,0,1,0,,224,16468,92,-47,166,-203
17.426,17.39,0.02,1.16,-1.30,3.52,-6.86,-0.48,0.21,-1.32,0.74,1315.00,2057.00,210.00,183.00,875.00,1523.00,2247.00,2985.00,,,,,,,,,,,,0,1,0,,84,16208,104,-187,118,-241
17.488,17.44,-0.05,-0.78,0.61,-11.74,1.01,-1.45,2.03,-0.63,0.77,1229.00,2111.00,181.00,271.00,807.00,1507.00,2216.00,2903.00,,,,,,,,,,,,0,1,0,,20,16340,140,-24,-52,-165
17.55,17.50,-0.00,-0.24,0.82,-12.70,10.04,0.93,0.31,0.93,-0.44,1203.00,2054.00,113.00,221.00,848.00,1436.00,2299.00,2819.00,,,,,,,,,,,,0,1,0,,56,16344,232,18,163,-115
17.59,17.55,0.00,0.92,-0.35,11.02,-6.02,0.16,-0.05,-0.45,0.27,1255.00,2025.00,175.00,133.00,877.00,1495.00,2269.00,2921.00,,,,,,,,,,,,0,1,0,,-24,16264,48,-80,216,-131
17.65,17.61,-0.09,-0.17,0.31,-1.77,-1.61,-1.80,2.54,-1.18,1.26,1235.00,2077.00,174.00,196.00,790.00,1507.00,2179.00,2928.00,,,,,,,,,,,,0,1,0,,84,16348,160,-158,128,-154
17.712,17.66,0.00,-0.92,1.37,-16.65,13.26,1.72,-0.06,0.82,-0.19,1182.00,2079.00,102.00,237.00,853.00,1406.00,2273.00,2812.00,,,,,,,,,,,,0,1,0,,180,16280,136,-148,78,-159
17.754,17.72,0.05,1.62,-0.38,10.83,-5.74,0.97,-0.72,0.07,0.03,1241.00,1971.00,173.00,133.00,896.00,1474.00,2277.00,2880.00,,,,,,,,,,,,0,1,0,,80,16396,144,-114,117,-196
17.814,17.77,0.03,0.33,-0.20,2.31,-6.28,-0.44,0.23,-0.72,0.63,1258.00,2064.00,208.00,189.00,873.00,1519.00,2237.00,2925.00,,,,,,,,,,,,0,1,0,,212,16300,80,-137,128,-219
17.937,17.83,0.04,-0.60,0.45,-13.73,4.79,0.35,0.38,0.26,-0.05,1235.00,2104.00,153.00,265.00,854.00,1467.00,2279.00,2865.00,,,,,,,,,,,,0,1,0,,-48,16392,180,-149,69,-151
17.957,17.89,0.13,0.72,-0.24,-6.08,5.51,1.74,-1.43,0.69,-0.83,1252.00,2035.00,128.00,192.00,918.00,1457.00,2359.00,2876.00,,,,,,,,,,,,0,1,0,,64,16384,356,-150,174,-167
17.978,17.94,0.11,1.51,-1.31,8.16,-9.62,-0.31,0.34,-1.27,0.63,1308.00,2030.00,224.00,164.00,866.00,1507.00,2259.00,2989.00,,,,,,,,,,,,0,1,0,,12,16336,392,-82,182,-153
18.02,18.00,0.06,-0.91,0.45,-9.00,1.03,-0.78,1.96,-0.33,0.45,1242.00,2130.00,172.00,243.00,800.00,1470.00,2242.00,2893.00,,,,,,,,,,,,0,1,0,,84,16248,212,-26,83,-77
18.082,18.05,0.14,-0.36,0.77,-11.89,6.07,1.59,-0.53,0.04,-0.10,1209.00,2067.00,138.00,238.00,877.00,1431.00,2294.00,2893.00,,,,,,,,,,,,0,1,0,,-16,16328,216,-50,140,-136
18.146,18.10,0.14,0.23,-0.02,3.66,-3.65,0.09,-0.20,-0.74,0.21,1248.00,2062.00,176.00,167.00,885.00,1505.00,2289.00,2960.00,,,,,,,,,,,,0,1,0,,204,16312,120,-15,166,-121
18.228,18.16,0.02,-0.21,0.14,0.96,-5.82,-2.14,2.79,-0.82,1.05,1247.00,2089.00,208.00,197.00,784.00,1517.00,2190.00,2903.00,,,,,,,,,,,,0,1,0,,68,16296,12,-116,47,-185
18.291,18.21,0.07,-0.84,1.34,-15.64,14.04,1.06,0.49,0.95,-0.41,1182.00,2074.00,96.00,223.00,838.00,1422.00,2295.00,2815.00,,,,,,,,,,,,0,1,0,,40,16332,136,-104,-66,-183
18.312,18.27,0.14,1.32,-0.62,9.66,-5.67,1.38,-0.82,-0.15,0.02,1264.00,2007.00,176.00,139.00,894.00,1454.00,2287.00,2906.00,,,,,,,,,,,,0,1,0,,88,16268,208,-7,82,-111
18.375,18.32,0.08,0.36,-0.28,1.44,-7.11,-1.12,1.24,-0.73,0.84,1263.00,2066.00,221.00,200.00,837.00,1519.00,2211.00,2909.00,,,,,,,,,,,,0,1,0,,-20,16180,120,-87,201,-117
18.417,18.38,0.06,-0.44,0.69,-13.16,5.97,-0.33,1.20,0.15,0.07,1216.00,2078.00,142.00,251.00,827.00,1474.00,2269.00,2868.00,,,,,,,,,,,,0,1,0,,32,16308,80,-86,143,-116
18.479,18.43,0.21,0.34,0.18,-3.83,4.18,3.15,-1.80,0.55,-0.71,1232.00,2042.00,132.00,182.00,913.00,1392.00,2349.00,2882.00,,,,,,,,,,,,0,1,0,,136,16232,120,-120,83,-180
18.561,18.49,0.21,1.05,-0.95,7.69,-8.70,0.17,-0.26,-1.04,0.70,1293.00,2047.00,215.00,163.00,887.00,1503.00,2241.00,2956.00,,,,,,,,,,,,0,1,0,,52,16312,88,-120,56,-128
18.582,18.55,0.18,-0.54,0.49,-12.38,3.51,-0.45,1.78,0.23,0.38,1231.00,2097.00,160.00,260.00,803.00,1458.00,2228.00,2835.00,,,,,,,,,,,,0,1,0,,16,16372,124,-55,117,-132
18.644,18.60,0.25,0.16,0.65,-11.95,9.95,1.64,-0.42,0.47,-0.19,1205.00,2031.00,112.00,215.00,871.00,1424.00,2288.00,2852.00,,,,,,,,,,,,0,1,0,,124,16304,188,-65,111,-194
18.707,18.66,0.28,0.93,-0.37,11.73,-8.44,0.95,-0.36,-0.44,0.24,1256.00,2025.00,197.00,138.00,879.00,1461.00,2272.00,2922.00,,,,,,,,,,,,0,1,0,,140,16340,212,-124,68,-151
18.789,18.71,0.17,0.39,-0.09,-1.28,-2.91,-1.98,2.74,-1.05,0.92,1249.00,2053.00,185.00,199.00,784.00,1510.00,2215.00,2940.00,,,,,,,,,,,,0,1,0,,60,16272,208,-121,101,-151
18.81,18.76,0.27,-0.80,1.47,-14.70,10.23,2.24,-0.75,0.32,-0.07,1173.00,2064.00,116.00,238.00,877.00,1403.00,2279.00,2859.00,,,,,,,,,,,,0,1,0,,28,16316,156,-91,148,-136
18.851,18.82,0.34,1.15,-0.47,8.65,-2.25,1.51,-1.00,-0.20,-0.06,1258.00,2013.00,149.00,132.00,901.00,1454.00,2299.00,2918.00,,,,,,,,,,,,0,1,0,,128,16308,40,-52,109,-125
18.913,18.87,0.26,-0.08,-0.38,5.74,-7.61,-1.14,1.07,-0.75,0.60,1280.00,2108.00,210.00,171.00,845.00,1527.00,2241.00,2930.00,,,,,,,,,,,,0,1,0,,132,16324,56,3,97,-118
18.954,18.93,0.26,-0.88,0.62,-12.23,3.57,0.12,0.58,-0.30,0.04,1230.00,2118.00,159.00,258.00,848.00,1472.00,2291.00,2922.00,,,,,,,,,,,,0,1,0,,124,16352,136,19,217,-155
19.015,18.98,0.35,0.28,-0.04,-6.25,5.56,2.12,-1.31,0.45,-0.71,1248.00,2059.00,128.00,193.00,906.00,1431.00,2354.00,2894.00,,,,,,,,,,,,0,1,0,,236,16208,-52,-136,134,-194
19.076,19.04,0.26,1.15,-0.94,4.60,-8.25,-1.50,1.41,-1.12,0.60,1290.00,2038.00,222.00,182.00,835.00,1535.00,2256.00,2973.00,,,,,,,,,,,,0,1,0,,84,16356,52,-80,14,-193
19.137,19.09,0.26,-0.85,0.58,-9.76,2.63,0.42,0.50,-0.12,0.32,1232.00,2118.00,160.00,240.00,847.00,1458.00,2250.00,2880.00,,,,,,,,,,,,0,1,0,,76,16148,276,-31,97,-182
19.2,19.15,0.32,-0.00,0.61,-11.64,9.84,1.28,-0.15,0.63,-0.18,1211.00,2046.00,112.00,213.00,864.00,1434.00,2279.00,2832.00,,,,,,,,,,,,0,1,0,,92,16328,176,-45,181,-242
19.263,19.20,0.31,1.04,-0.28,8.64,-5.22,0.29,-0.22,-0.32,0.35,1247.00,2011.00,175.00,143.00,883.00,1494.00,2254.00,2900.00,,,,,,,,,,,,0,1,0,,44,16260,84,-31,193,-114
19.325,19.26,0.25,-0.05,0.46,2.50,-6.17,-0.87,1.67,-0.58,0.91,1222.00,2058.00,206.00,187.00,814.00,1487.00,2197.00,2886.00,,,,,,,,,,,,0,1,0,,60,16324,112,-77,129,-132
19.387,19.32,0.31,-0.73,1.53,-15.56,11.33,1.44,0.14,1.62,-0.57,1168.00,2055.00,111.00,239.00,848.00,1414.00,2287.00,2753.00,,,,,,,,,,,,0,1,0,,124,16236,-28,-118,140,-104
19.408,19.37,0.35,1.28,-0.16,-0.64,1.38,0.98,-0.54,-0.34,0.21,1234.00,1986.00,145.00,173.00,887.00,1466.00,2272.00,2913.00,,,,,,,,,,,,0,1,0,,168,16308,276,-77,149,-60
19.449,19.42,0.24,0.65,-0.15,1.64,-6.84,-1.77,1.93,-0.65,0.71,1247.00,2035.00,217.00,197.00,816.00,1530.00,2224.00,2910.00,,,,,,,,,,,,0,1,0,,-4,16316,140,-89,128,-144
19.511,19.48,0.21,-0.60,0.91,-13.07,5.68,-0.35,1.38,0.20,-0.01,1205.00,2079.00,144.00,252.00,819.00,1468.00,2277.00,2869.00,,,,,,,,,,,,0,1,0,,28,16140,-16,-128,85,-153
19.573,19.53,0.30,0.50,0.13,-7.24,4.24,1.92,-1.12,0.34,-0.54,1232.00,2032.00,140.00,208.00,900.00,1435.00,2337.00,2893.00,,,,,,,,,,,,0,1,0,,32,16312,188,-128,155,-63
19.634,19.59,0.27,0.85,-1.05,12.67,-10.38,-0.35,0.20,-1.21,0.68,1305.00,2069.00,215.00,140.00,873.00,1515.00,2250.00,2977.00,,,,,,,,,,,,0,1,0,,68,16344,192,-105,219,-125
19.676,19.64,0.18,-0.40,-0.03,-7.23,-1.10,-1.41,2.29,-0.56,0.51,1263.00,2115.00,187.00,240.00,795.00,1494.00,2244.00,2915.00,,,,,,,,,,,,0,1,0,,16,16212,140,-152,107,68
19.758,19.70,0.27,-0.24,0.62,-13.34,12.88,1.96,-0.76,0.37,-0.60,1216.00,2065.00,98.00,210.00,882.00,1419.00,2343.00,2894.00,,,,,,,,,,,,0,1,0,,112,16404,96,-64,198,-79
19.798,19.75,0.24,0.57,-0.43,8.41,-5.14,-0.33,0.18,-0.45,0.16,1268.00,2057.00,175.00,144.00,874.00,1515.00,2282.00,2929.00,,,,,,,,,,,,0,1,0,,204,16352,-60,-21,288,-68
19.841,19.81,0.13,-0.00,0.16,-1.25,-3.51,-1.91,2.55,-0.69,0.90,1241.00,2071.00,191.00,202.00,791.00,1513.00,2203.00,2900.00,,,,,,,,,,,,0,1,0,,180,16232,8,-168,151,-74
19.903,19.86,0.22,-0.53,1.07,-15.82,11.25,1.90,-0.36,0.94,-0.38,1193.00,2064.00,112.00,242.00,864.00,1407.00,2291.00,2813.00,,,,,,,,,,,,0,1,0,,140,16276,108,-85,111,-127
19.965,19.92,0.28,1.39,-0.51,4.76,-2.26,1.34,-0.80,-0.22,0.05,1255.00,1996.00,160.00,154.00,894.00,1456.00,2287.00,2912.00,,,,,,,,,,,,0,1,0,,188,16328,84,-106,111,-107
20.006,19.98,0.22,0.56,-0.09,5.82,-7.73,-0.89,0.88,0.17,0.32,1245.00,2039.00,211.00,171.00,850.00,1520.00,2237.00,2846.00,,,,,,,,,,,,0,1,0,,184,16280,60,-120,89,15
20.109,20.03,0.20,-0.46,0.80,-14.75,7.58,-0.21,0.89,0.23,-0.01,1209.00,2073.00,134.00,256.00,839.00,1479.00,2275.00,2865.00,,,,,,,,,,,,0,1,0,,92,16348,56,-76,120,-198
20.129,20.08,0.27,0.16,0.96,-3.04,0.83,1.57,-1.15,0.64,-0.60,1185.00,2014.00,156.00,193.00,907.00,1456.00,2332.00,2864.00,,,,,,,,,,,,0,1,0,,188,16140,184,-136,148,-99
20.171,20.14,0.20,1.18,-0.82,-2.85,-5.66,-1.12,0.85,-0.99,0.58,1281.00,2029.00,221.00,228.00,855.00,1535.00,2253.00,2959.00,,,,,,,,,,,,0,1,0,,52,16376,120,-114,147,-84
20.232,20.19,0.14,-0.97,0.87,-10.38,1.71,-0.88,2.35,-0.21,0.47,1216.00,2112.00,170.00,252.00,785.00,1461.00,2235.00,2878.00,,,,,,,,,,,,0,1,0,,96,16328,288,-108,145,-88
20.294,20.25,0.25,0.32,0.42,-11.19,9.53,2.19,-0.84,0.69,-0.47,1217.00,2031.00,113.00,211.00,882.00,1409.00,2313.00,2848.00,,,,,,,,,,,,0,1,0,,148,16336,128,-80,114,-135
20.336,20.30,0.25,1.17,-0.54,9.05,-6.08,0.38,0.26,-0.41,0.36,1262.00,2015.00,182.00,144.00,859.00,1470.00,2256.00,2909.00,,,,,,,,,,,,0,1,0,,204,16284,124,-113,50,-139
20.399,20.36,0.19,-0.23,0.37,-2.00,-2.77,-1.07,1.97,-0.73,0.81,1232.00,2078.00,186.00,204.00,804.00,1487.00,2215.00,2911.00,,,,,,,,,,,,0,1,0,,152,16324,180,-135,126,-167
20.504,20.41,0.27,-0.69,1.22,-13.61,12.05,1.97,-0.62,0.79,-0.31,1187.00,2069.00,103.00,217.00,875.00,1413.00,2289.00,2825.00,,,,,,,,,,,,0,1,0,,116,16448,248,-164,132,-135
20.524,20.47,0.33,1.17,-0.59,3.05,0.26,1.40,-0.53,-0.43,0.04,1265.00,2017.00,144.00,154.00,880.00,1442.00,2297.00,2937.00,,,,,,,,,,,,0,1,0,,120,16264,188,-9,130,-59
20.585,20.52,0.27,-0.13,-0.09,0.71,-5.65,-0.83,0.97,-1.00,0.94,1261.00,2096.00,207.00,198.00,845.00,1513.00,2210.00,2932.00,,,,,,,,,,,,0,1,0,,164,16388,100,-36,157,-233
20.627,20.58,0.29,-0.39,0.78,-5.32,-1.84,0.70,0.23,0.43,-0.18,1209.00,2069.00,188.00,227.00,855.00,1452.00,2288.00,2855.00,,,,,,,,,,,,0,1,0,,264,16256,120,-137,149,-224
20.689,20.64,0.38,0.67,-0.12,-5.09,5.03,2.07,-1.50,0.38,-0.39,1245.00,2032.00,129.00,187.00,916.00,1441.00,2317.00,2878.00,,,,,,,,,,,,0,1,0,,120,16324,56,-58,9,-175
20.75,20.69,0.31,1.46,-1.29,9.36,-9.52,-1.04,0.74,-1.05,0.68,1307.00,2032.00,218.00,156.00,859.00,1535.00,2243.00,2958.00,,,,,,,,,,,,0,1,0,,96,16308,104,-79,136,-185
20.855,20.75,0.26,-0.46,0.59,-11.38,4.24,-0.63,1.61,-0.25,0.57,1223.00,2085.00,151.00,245.00,813.00,1475.00,2224.00,2875.00,,,,,,,,,,,,0,1,0,,164,16364,-128,-81,210,-249
20.875,20.80,0.37,0.18,0.51,-7.43,6.55,2.42,-1.66,0.77,-0.72,1214.00,2037.00,124.00,197.00,918.00,1427.00,2342.00,2859.00,,,,,,,,,,,,0,1,0,,104,16300,8,-86,57,-228
20.895,20.85,0.39,1.48,-0.83,12.43,-6.39,0.75,-0.02,-0.25,0.31,1275.00,2006.00,174.00,127.00,866.00,1459.00,2256.00,2895.00,,,,,,,,,,,,0,1,0,,104,16360,176,-172,108,-178
20.956,20.91,0.30,0.00,0.28,-6.34,-0.18,-1.42,2.13,-0.15,0.56,1233.00,2064.00,175.00,226.00,802.00,1501.00,2221.00,2864.00,,,,,,,,,,,,0,1,0,,40,16252,100,-105,105,-231
21.017,20.96,0.41,-0.61,1.19,-18.39,17.43,2.49,-0.45,1.21,-0.47,1187.00,2064.00,84.00,227.00,859.00,1378.00,2291.00,2790.00,,,,,,,,,,,,0,1,0,,40,16292,120,-23,65,-244
21.077,21.02,0.48,1.25,-0.37,7.05,-4.15,1.89,-1.23,-0.40,0.21,1249.00,2000.00,170.00,148.00,906.00,1441.00,2274.00,2920.00,,,,,,,,,,,,0,1,0,,96,16300,152,-53,70,-271
21.118,21.07,0.42,0.59,-0.27,2.16,-4.85,-0.81,1.18,-0.82,0.76,1257.00,2047.00,193.00,183.00,835.00,1503.00,2224.00,2925.00,,,,,,,,,,,,0,1,0,,100,16248,132,-84,30,-171
21.221,21.13,0.42,-1.29,1.42,-14.73,7.99,0.36,0.16,0.00,0.01,1187.00,2107.00,131.00,253.00,864.00,1475.00,2282.00,2889.00,,,,,,,,,,,,0,1,0,,56,16344,184,-127,118,-177
21.242,21.18,0.49,0.82,-0.31,-5.06,2.86,1.85,-1.02,0.44,-0.57,1254.00,2030.00,145.00,198.00,896.00,1435.00,2336.00,2884.00,,,,,,,,,,,,0,1,0,,28,16312,296,-127,114,-90
21.284,21.24,0.42,0.81,-0.91,10.42,-9.62,-0.87,0.68,-1.00,0.42,1296.00,2064.00,215.00,150.00,859.00,1527.00,2274.00,2974.00,,,,,,,,,,,,0,1,0,,200,16352,116,4,210,-148
21.347,21.30,0.36,-1.11,0.84,-11.22,3.70,-0.74,1.61,-0.50,0.53,1221.00,2125.00,155.00,247.00,815.00,1482.00,2240.00,2907.00,,,,,,,,,,,,0,1,0,,16,16360,-8,-82,144,-221
21.387,21.35,0.44,0.10,0.72,-9.08,6.96,1.94,-0.75,0.98,-0.67,1202.00,2032.00,125.00,208.00,882.00,1420.00,2326.00,2831.00,,,,,,,,,,,,0,1,0,,152,16348,208,2,5,-198
21.449,21.41,0.47,1.45,-0.63,9.62,-5.34,0.95,-0.38,-0.31,0.39,1262.00,1998.00,173.00,138.00,880.00,1462.00,2249.00,2896.00,,,,,,,,,,,,0,1,0,,4,16284,80,128,35,-249
21.511,21.46,0.40,0.41,0.16,-4.49,1.08,-0.94,1.49,0.39,0.18,1232.00,2038.00,158.00,203.00,823.00,1498.00,2245.00,2832.00,,,,,,,,,,,,0,1,0,,12,16116,-88,66,64,-275
21.595,21.51,0.49,-0.52,1.24,-18.98,18.30,2.27,-0.51,1.03,-0.49,1182.00,2054.00,81.00,227.00,865.00,1392.00,2301.00,2811.00,,,,,,,,,,,,0,1,0,,16,16288,88,70,86,-153
21.616,21.57,0.53,2.12,-0.82,14.30,-5.12,1.36,-0.50,0.15,-0.13,1259.00,1955.00,157.00,114.00,879.00,1443.00,2294.00,2884.00,,,,,,,,,,,,0,1,0,,-64,16236,28,-44,107,-196
21.658,21.62,0.43,0.18,0.13,0.94,-3.85,-1.44,1.93,-0.63,1.01,1239.00,2058.00,187.00,187.00,811.00,1510.00,2187.00,2884.00,,,,,,,,,,,,0,1,0,,100,16284,-12,-62,67,-124
21.719,21.68,0.46,-0.85,1.47,-16.81,10.62,0.87,0.79,0.87,-0.10,1174.00,2068.00,118.00,256.00,827.00,1421.00,2260.00,2800.00,,,,,,,,,,,,0,1,0,,12,16184,-128,5,123,-123
21.76,21.73,0.54,1.01,-0.31,0.08,-0.34,2.09,-1.78,0.07,-0.21,1250.00,2015.00,157.00,176.00,930.00,1451.00,2307.00,2899.00,,,,,,,,,,,,0,1,0,,80,16312,-136,-43,183,-126
21.822,21.79,0.45,0.62,-0.66,8.75,-11.17,-1.26,1.42,-0.97,0.54,1283.00,2066.00,241.00,167.00,831.00,1520.00,2257.00,2960.00,,,,,,,,,,,,0,1,0,,-20,16220,-184,-89,139,-137
21.883,21.84,0.39,-1.03,0.63,-15.69,6.57,-0.74,1.83,0.01,0.18,1233.00,2130.00,144.00,273.00,805.00,1473.00,2261.00,2875.00,,,,,,,,,,,,0,1,0,,44,16312,12,-158,71,-137
21.944,21.90,0.48,-0.23,0.72,-3.77,8.21,2.29,-0.96,0.86,-0.83,1209.00,2059.00,106.00,163.00,886.00,1408.00,2352.00,2857.00,,,,,,,,,,,,0,1,0,,116,16208,112,-166,106,-184
22.007,21.95,0.47,1.36,-1.21,10.35,-9.77,0.17,-0.12,-1.08,0.49,1304.00,2036.00,217.00,151.00,880.00,1497.00,2268.00,2977.00,,,,,,,,,,,,0,1,0,,-40,16320,28,-137,55,-171
22.068,22.01,0.40,-0.19,0.14,-5.66,-0.51,-0.92,1.71,-0.11,0.12,1247.00,2088.00,176.00,222.00,813.00,1488.00,2274.00,2894.00,,,,,,,,,,,,0,1,0,,72,16368,40,-40,130,-138
22.109,22.07,0.49,-0.62,1.10,-17.52,15.66,2.23,-0.58,1.00,-0.31,1193.00,2070.00,91.00,230.00,869.00,1397.00,2281.00,2802.00,,,,,,,,,,,,0,1,0,,96,16200,-4,-168,155,-144
22.169,22.12,0.52,1.80,-0.38,6.71,-1.85,1.09,-0.37,0.12,-0.03,1237.00,1957.00,151.00,141.00,877.00,1453.00,2282.00,2879.00,,,,,,,,,,,,0,1,0,,0,16320,172,-85,49,-116
22.21,22.17,0.43,0.52,-0.13,2.57,-4.00,-1.30,1.93,-0.40,0.89,1249.00,2045.00,183.00,176.00,809.00,1502.00,2192.00,2867.00,,,,,,,,,,,,0,1,0,,52,16180,48,-77,166,-58
22.271,22.23,0.47,-0.32,1.09,-14.31,8.57,1.30,0.34,1.07,-0.35,1187.00,2046.00,126.00,245.00,841.00,1414.00,2283.00,2797.00,,,,,,,,,,,,0,1,0,,132,16296,-56,-90,192,-102
22.334,22.28,0.56,1.00,-0.31,-4.97,3.88,2.17,-1.51,0.51,-0.21,1250.00,2016.00,137.00,192.00,915.00,1436.00,2289.00,2849.00,,,,,,,,,,,,0,1,0,,40,16368,-48,-209,157,-67
22.397,22.34,0.50,1.05,-0.50,10.36,-10.52,-0.60,0.52,-0.87,0.77,1262.00,2022.00,226.00,154.00,862.00,1517.00,2225.00,2930.00,,,,,,,,,,,,0,1,0,,164,16320,-92,-191,74,-176
22.437,22.39,0.47,-0.60,0.54,-12.58,4.52,-0.03,1.32,0.45,0.10,1229.00,2099.00,152.00,255.00,817.00,1452.00,2253.00,2832.00,,,,,,,,,,,,0,1,0,,124,16264,132,-120,69,-129
22.479,22.45,0.59,0.38,0.52,-7.06,8.14,2.75,-1.58,0.87,-0.70,1209.00,2021.00,113.00,186.00,909.00,1406.00,2335.00,2846.00,,,,,,,,,,,,0,1,0,,100,16336,-40,-52,97,-153
22.541,22.50,0.54,1.38,-0.87,13.82,-10.15,-0.37,0.72,-0.55,0.30,1280.00,2016.00,208.00,133.00,849.00,1495.00,2270.00,2931.00,,,,,,,,,,,,0,1,0,,48,16332,52,-111,174,-113
22.604,22.56,0.50,-0.26,0.48,-0.57,-2.23,-0.32,1.65,0.28,0.14,1226.00,2075.00,176.00,190.00,807.00,1456.00,2255.00,2848.00,,,,,,,,,,,,0,1,0,,72,16348,48,-167,148,-138
22.707,22.61,0.54,-0.02,0.79,-10.83,10.07,1.37,0.40,0.78,-0.42,1200.00,2038.00,109.00,205.00,837.00,1408.00,2303.00,2834.00,,,,,,,,,,,,0,1,0,,56,16368,64,-169,134,-146
22.728,22.67,0.56,1.44,-0.66,16.79,-6.07,1.04,-0.64,-0.01,-0.03,1264.00,2000.00,158.00,106.00,891.00,1467.00,2288.00,2894.00,,,,,,,,,,,,0,1,0,,148,16304,56,-144,130,-130
22.769,22.73,0.47,-0.14,0.12,-0.05,-2.40,-1.42,2.53,-0.53,0.70,1247.00,2085.00,176.00,187.00,785.00,1485.00,2220.00,2897.00,,,,,,,,,,,,0,1,0,,-32,16464,100,-38,86,-134
22.81,22.78,0.53,-0.93,1.31,-13.95,12.90,1.71,-0.10,0.38,-0.09,1186.00,2083.00,99.00,215.00,855.00,1408.00,2279.00,2854.00,,,,,,,,,,,,0,1,0,,72,16248,92,7,148,-70
22.872,22.83,0.60,0.76,-0.12,3.10,-1.47,1.87,-0.92,0.20,-0.39,1243.00,2025.00,158.00,161.00,891.00,1430.00,2324.00,2898.00,,,,,,,,,,,,0,1,0,,4,16348,-4,-34,147,-263
22.935,22.89,0.50,0.54,-0.34,8.98,-10.14,-1.22,1.63,-0.69,0.61,1263.00,2055.00,227.00,161.00,821.00,1509.00,2238.00,2923.00,,,,,,,,,,,,0,1,0,,84,16256,68,-161,110,-176
22.975,22.94,0.49,-0.92,1.09,-17.36,9.30,0.20,1.13,0.65,-0.16,1200.00,2095.00,128.00,271.00,822.00,1446.00,2276.00,2829.00,,,,,,,,,,,,0,1,0,,-96,16352,60,-168,44,-190
23.079,23.00,0.56,1.03,-0.03,-8.07,8.64,1.99,-0.75,1.31,-0.82,1231.00,1999.00,112.00,191.00,881.00,1417.00,2331.00,2805.00,,,,,,,,,,,,0,1,0,,68,16272,108,-80,166,-54
23.098,23.05,0.55,1.56,-1.24,13.77,-8.66,0.24,0.17,-0.41,0.40,1301.00,2021.00,192.00,128.00,865.00,1481.00,2251.00,2906.00,,,,,,,,,,,,0,1,0,,48,16352,-104,-108,248,-127
23.159,23.11,0.49,-0.23,0.66,-3.87,-0.37,-0.64,2.55,-0.15,0.75,1213.00,2062.00,169.00,206.00,773.00,1439.00,2199.00,2850.00,,,,,,,,,,,,0,1,0,,88,16312,-96,-151,86,-157
23.2,23.16,0.58,0.16,0.87,-7.77,7.42,2.34,-0.01,0.96,-0.20,1191.00,2019.00,119.00,195.00,841.00,1370.00,2269.00,2798.00,,,,,,,,,,,,0,1,0,,60,16296,124,-200,-16,-136
23.262,23.22,0.63,1.76,-0.53,7.59,-1.52,1.62,-0.40,-0.03,0.17,1248.00,1968.00,146.00,135.00,870.00,1424.00,2264.00,2881.00,,,,,,,,,,,,0,1,0,,16,16380,72,-136,61,-192
23.325,23.27,0.54,0.47,-0.09,0.32,-4.70,-1.27,2.78,-0.46,0.80,1247.00,2046.00,198.00,196.00,772.00,1466.00,2205.00,2881.00,,,,,,,,,,,,0,1,0,,100,16384,-80,-55,106,-138
23.366,23.33,0.60,-0.41,1.28,-18.00,18.20,1.76,-0.12,0.83,-0.17,1177.00,2043.00,80.00,219.00,855.00,1406.00,2270.00,2810.00,,,,,,,,,,,,0,1,0,,132,16268,48,-163,98,-155
23.448,23.39,0.68,1.35,-0.47,-0.18,1.35,2.11,-1.25,0.07,-0.06,1253.00,1997.00,144.00,170.00,903.00,1429.00,2288.00,2887.00,,,,,,,,,,,,0,1,0,,12,16324,72,-81,102,-180
23.489,23.44,0.61,0.78,-0.47,3.79,-5.58,-0.68,1.36,-0.57,0.42,1266.00,2042.00,195.00,175.00,825.00,1488.00,2256.00,2923.00,,,,,,,,,,,,0,1,0,,52,16288,52,-210,192,-172
23.53,23.50,0.57,-0.49,0.40,-9.46,2.18,-0.21,1.40,0.38,-0.03,1236.00,2098.00,163.00,240.00,816.00,1459.00,2271.00,2849.00,,,,,,,,,,,,0,1,0,,28,16228,164,-86,147,-87
23.593,23.55,0.64,0.63,-0.08,1.41,5.46,2.04,-0.75,0.57,-0.62,1243.00,2033.00,112.00,143.00,880.00,1414.00,2337.00,2873.00,,,,,,,,,,,,0,1,0,,144,16376,160,-92,124,-141
23.654,23.60,0.56,1.38,-1.26,14.12,-12.50,-0.93,0.94,-0.84,0.38,1307.00,2037.00,235.00,140.00,848.00,1520.00,2271.00,2957.00,,,,,,,,,,,,0,1,0,,164,16364,-76,13,149,-157
23.696,23.66,0.50,-0.70,0.70,-9.90,3.14,-0.68,2.30,-0.02,0.63,1221.00,2099.00,156.00,238.00,784.00,1451.00,2208.00,2844.00,,,,,,,,,,,,0,1,0,,68,16324,44,-96,59,-186
23.8,23.71,0.60,0.27,0.49,-7.25,10.28,2.41,-0.25,0.87,-0.41,1213.00,2031.00,101.00,177.00,851.00,1375.00,2298.00,2823.00,,,,,,,,,,,,0,1,0,,36,16288,52,-58,-10,-158
23.821,23.77,0.62,1.13,-0.41,9.76,-4.17,1.00,-0.46,0.36,-0.00,1254.00,2011.00,162.00,133.00,883.00,1462.00,2269.00,2850.00,,,,,,,,,,,,0,1,0,,16,16272,208,-36,133,-118
23.863,23.82,0.53,0.63,-0.33,-1.17,-1.92,-1.19,2.88,-0.51,1.08,1260.00,2047.00,175.00,193.00,767.00,1458.00,2174.00,2865.00,,,,,,,,,,,,0,1,0,,32,16100,-52,-82,191,-133
23.924,23.88,0.58,-0.52,1.50,-15.13,14.65,1.58,0.33,1.61,-0.58,1165.00,2039.00,92.00,215.00,837.00,1399.00,2288.00,2754.00,,,,,,,,,,,,0,1,0,,-16,16280,152,-112,123,-127
23.965,23.93,0.63,1.19,-0.10,3.89,0.77,1.60,-0.49,0.59,-0.18,1232.00,1990.00,138.00,147.00,875.00,1429.00,2282.00,2838.00,,,,,,,,,,,,0,1,0,,44,16308,12,-189,47,-172
24.026,23.99,0.58,0.65,-0.25,2.54,-4.59,-0.27,1.09,-0.05,0.29,1254.00,2041.00,189.00,179.00,831.00,1475.00,2250.00,2874.00,,,,,,,,,,,,0,1,0,,28,16388,192,-123,28,-87
24.088,24.05,0.58,0.24,0.46,-12.26,3.47,0.42,1.03,0.40,0.13,1216.00,2035.00,160.00,259.00,823.00,1437.00,2251.00,2835.00,,,,,,,,,,,,0,1,0,,-28,16272,124,-133,148,-143
24.17,24.10,0.70,0.97,0.02,-8.77,10.07,3.02,-1.80,0.97,-0.70,1229.00,2001.00,105.00,189.00,915.00,1399.00,2331.00,2835.00,,,,,,,,,,,,0,1,0,,48,16284,36,-208,145,-108
24.19,24.16,0.61,1.44,-1.19,14.14,-10.35,-0.97,1.41,-0.98,0.69,1301.00,2029.00,209.00,132.00,827.00,1503.00,2239.00,2949.00,,,,,,,,,,,,0,1,0,,120,16444,40,-142,93,-149
24.25,24.21,0.55,-0.59,0.57,-9.07,2.39,-0.73,2.25,0.23,0.23,1227.00,2097.00,160.00,235.00,787.00,1456.00,2246.00,2847.00,,,,,,,,,,,,0,1,0,,60,16368,152,-160,153,-117
24.332,24.26,0.61,-0.20,0.62,-10.57,13.32,1.88,-0.03,0.81,-0.41,1215.00,2062.00,91.00,186.00,849.00,1396.00,2301.00,2830.00,,,,,,,,,,,,0,1,0,,-8,16284,24,-102,153,-113
24.353,24.32,0.63,1.40,-0.62,10.81,-4.86,0.87,-0.38,-0.44,0.33,1262.00,2001.00,165.00,130.00,881.00,1466.00,2261.00,2915.00,,,,,,,,,,,,0,1,0,,60,16488,128,-56,118,-102
24.416,24.37,0.52,0.01,0.22,0.84,-2.91,-1.57,2.69,-0.83,0.89,1237.00,2067.00,178.00,183.00,780.00,1487.00,2210.00,2917.00,,,,,,,,,,,,0,1,0,,80,16196,4,5,129,-74
24.456,24.43,0.58,-1.24,1.70,-12.76,8.79,1.74,-0.18,1.17,-0.53,1168.00,2087.00,121.00,229.00,858.00,1409.00,2301.00,2799.00,,,,,,,,,,,,0,1,0,,108,16296,124,-78,114,-231
24.538,24.48,0.64,1.41,-0.34,7.82,-3.74,1.80,-1.02,0.25,-0.10,1243.00,1985.00,164.00,142.00,897.00,1438.00,2285.00,2869.00,,,,,,,,,,,,0,1,0,,180,16360,32,-176,41,-166
24.579,24.54,0.58,0.73,-0.20,4.73,-5.90,-0.60,1.24,-0.39,0.55,1249.00,2032.00,195.00,170.00,829.00,1488.00,2232.00,2892.00,,,,,,,,,,,,0,1,0,,36,16320,52,-91,77,-187
24.64,24.59,0.56,0.06,0.37,-11.14,4.65,0.19,1.78,0.59,0.10,1226.00,2055.00,147.00,240.00,794.00,1422.00,2247.00,2816.00,,,,,,,,,,,,0,1,0,,48,16240,112,-71,143,-131
24.702,24.65,0.65,0.47,0.41,-5.58,4.77,2.43,-1.09,1.33,-1.01,1214.00,2019.00,132.00,192.00,890.00,1405.00,2355.00,2818.00,,,,,,,,,,,,0,1,0,,148,16356,136,-44,137,-163
24.744,24.70,0.60,1.85,-1.17,15.87,-12.04,-0.34,0.74,-0.50,0.45,1290.00,1995.00,222.00,129.00,848.00,1493.00,2249.00,2913.00,,,,,,,,,,,,0,1,0,,116,16372,-48,-188,89,-199
24.805,24.76,0.58,-0.37,0.42,-8.24,1.32,0.23,1.95,0.31,0.30,1232.00,2087.00,167.00,234.00,786.00,1413.00,2234.00,2832.00,,,,,,,,,,,,0,1,0,,36,16352,32,-112,-21,-148
24.887,24.82,0.68,0.31,0.51,-7.54,9.66,2.45,-0.74,1.13,-0.49,1211.00,2027.00,105.00,182.00,873.00,1391.00,2297.00,2800.00,,,,,,,,,,,,0,1,0,,80,16324,176,-131,104,-159
24.907,24.87,0.69,0.90,-0.48,14.28,-4.76,0.86,0.29,-0.00,0.23,1264.00,2033.00,154.00,113.00,850.00,1441.00,2256.00,2873.00,,,,,,,,,,,,0,1,0,,44,16296,-100,-63,135,-157
24.969,24.92,0.64,-0.17,0.43,-1.75,-1.83,-0.29,1.71,-0.26,0.79,1227.00,2070.00,176.00,197.00,804.00,1452.00,2198.00,2859.00,,,,,,,,,,,,0,1,0,,28,16288,140,-49,82,-132
25.01,24.98,0.71,-0.75,1.38,-13.74,11.57,2.17,-0.06,0.86,-0.28,1178.00,2065.00,106.00,221.00,846.00,1381.00,2283.00,2815.00,,,,,,,,,,,,0,1,0,,64,16364,80,-91,139,-150
25.071,25.03,0.75,1.79,-0.62,6.48,-1.77,1.40,-0.51,0.21,-0.24,1253.00,1970.00,151.00,142.00,879.00,1441.00,2305.00,2885.00,,,,,,,,,,,,0,1,0,,44,16212,96,-90,125,-132
25.133,25.09,0.71,0.17,0.02,4.46,-7.00,-0.05,1.17,-0.90,0.76,1247.00,2065.00,208.00,177.00,824.00,1459.00,2228.00,2935.00,,,,,,,,,,,,0,1,0,,108,16252,120,-53,144,-155
25.196,25.14,0.74,-0.39,0.58,-9.59,3.64,1.36,0.25,0.41,-0.30,1222.00,2080.00,151.00,232.00,844.00,1414.00,2304.00,2867.00,,,,,,,,,,,,0,1,0,,24,16364,28,-41,78,-121
25.279,25.20,0.84,0.39,-0.10,-3.23,4.55,2.80,-1.94,0.34,-0.60,1250.00,2054.00,128.00,176.00,926.00,1417.00,2345.00,2898.00,,,,,,,,,,,,0,1,0,,168,16244,160,8,153,-75
25.3,25.25,0.80,1.26,-1.26,16.12,-12.70,0.06,0.60,-1.22,0.51,1310.00,2047.00,229.00,130.00,848.00,1475.00,2271.00,2992.00,,,,,,,,,,,,0,1,0,,28,16312,-140,-50,161,-225
25.342,25.31,0.77,-0.93,0.61,-9.55,4.89,0.14,1.79,0.37,0.10,1232.00,2123.00,141.00,224.00,794.00,1424.00,2256.00,2841.00,,,,,,,,,,,,0,1,0,,80,16136,4,-148,62,-184
25.404,25.36,0.82,0.65,0.40,-11.58,11.73,1.75,0.08,0.35,-0.17,1211.00,2006.00,101.00,202.00,846.00,1399.00,2290.00,2864.00,,,,,,,,,,,,0,1,0,,32,16372,156,-90,43,-142
25.466,25.42,0.84,1.10,-0.26,10.86,-4.66,1.14,-0.13,0.25,0.06,1245.00,2006.00,163.00,129.00,865.00,1441.00,2266.00,2857.00,,,,,,,,,,,,0,1,0,,-40,16280,-76,19,186,-81
25.508,25.48,0.73,-0.06,0.32,3.07,-3.45,-1.33,2.88,-0.07,0.51,1232.00,2067.00,176.00,170.00,769.00,1466.00,2224.00,2859.00,,,,,,,,,,,,0,1,0,,-52,16320,-36,-74,252,-63
25.569,25.53,0.78,-0.22,1.20,-11.01,9.80,1.75,0.34,1.03,-0.30,1178.00,2032.00,111.00,208.00,834.00,1389.00,2278.00,2797.00,,,,,,,,,,,,0,1,0,,52,16356,-16,-99,168,-144
25.651,25.58,0.83,1.46,-0.64,16.88,-6.57,1.73,-0.58,0.27,-0.05,1262.00,1997.00,162.00,107.00,877.00,1425.00,2279.00,2864.00,,,,,,,,,,,,0,1,0,,124,16356,-8,-93,39,-112
25.672,25.64,0.74,0.74,-0.29,6.76,-7.78,-0.90,1.84,-0.45,0.64,1255.00,2036.00,208.00,165.00,807.00,1482.00,2224.00,2892.00,,,,,,,,,,,,0,1,0,,-20,16316,96,-51,45,-131
25.734,25.69,0.75,-0.01,0.30,-14.10,7.50,0.94,1.06,0.36,-0.04,1232.00,2064.00,133.00,250.00,814.00,1407.00,2274.00,2853.00,,,,,,,,,,,,0,1,0,,68,16220,72,-50,130,-215
25.776,25.75,0.84,0.65,-0.08,-6.62,5.55,2.60,-1.41,0.59,-0.57,1243.00,2032.00,129.00,196.00,903.00,1408.00,2330.00,2867.00,,,,,,,,,,,,0,1,0,,108,16244,52,-34,119,-129
25.838,25.80,0.75,1.85,-1.40,18.89,-12.21,-1.06,1.38,-0.90,0.58,1306.00,2007.00,212.00,115.00,830.00,1510.00,2250.00,2949.00,,,,,,,,,,,,0,1,0,,88,16384,-40,-93,141,-126
25.899,25.86,0.68,-0.82,0.69,-7.67,0.16,-0.59,2.29,-0.02,0.37,1224.00,2109.00,176.00,236.00,783.00,1446.00,2239.00,2864.00,,,,,,,,,,,,0,1,0,,124,16304,-160,-265,110,-231
25.939,25.91,0.76,0.24,0.29,-13.21,13.41,2.30,-0.19,0.72,-0.67,1227.00,2044.00,95.00,206.00,850.00,1379.00,2337.00,2860.00,,,,,,,,,,,,0,1,0,,96,16252,136,-157,8,-152
26.02,25.97,0.77,1.06,-0.53,8.69,-5.55,0.96,0.32,-0.26,0.11,1264.00,2023.00,178.00,144.00,847.00,1434.00,2281.00,2912.00,,,,,,,,,,,,0,1,0,,92,16340,-52,-20,119,-219
26.062,26.02,0.67,-0.29,0.05,-4.93,0.66,-1.31,2.44,-0.63,0.70,1255.00,2101.00,163.00,209.00,787.00,1482.00,2224.00,2908.00,,,,,,,,,,,,0,1,0,,104,16328,-52,41,163,-142
26.123,26.08,0.74,-0.64,1.23,-17.36,19.17,2.10,0.05,0.99,-0.53,1185.00,2064.00,75.00,208.00,842.00,1381.00,2308.00,2819.00,,,,,,,,,,,,0,1,0,,36,16356,104,-203,203,-185
26.164,26.14,0.82,1.34,-0.49,7.89,-2.24,2.44,-1.44,0.01,0.07,1255.00,1999.00,151.00,136.00,907.00,1418.00,2274.00,2883.00,,,,,,,,,,,,0,1,0,,96,16220,-92,-122,71,-155
26.247,26.19,0.75,0.65,-0.37,3.12,-7.08,-0.64,1.28,-0.52,0.66,1262.00,2047.00,214.00,187.00,828.00,1489.00,2224.00,2898.00,,,,,,,,,,,,0,1,0,,-40,16352,208,-135,71,-123
26.309,26.25,0.79,-0.06,0.55,-10.95,3.61,1.60,0.19,0.83,-0.39,1217.00,2055.00,155.00,245.00,843.00,1403.00,2298.00,2827.00,,,,,,,,,,,,0,1,0,,36,16448,108,-71,127,0
26.371,26.30,0.92,0.89,-0.40,-7.50,7.80,3.33,-1.98,0.44,-0.42,1259.00,2030.00,116.00,191.00,919.00,1389.00,2318.00,2873.00,,,,,,,,,,,,0,1,0,,116,16408,-108,-29,141,-191
26.392,26.35,0.83,1.67,-1.23,15.32,-11.52,-0.91,1.28,-0.82,0.39,1298.00,2012.00,218.00,130.00,832.00,1505.00,2269.00,2954.00,,,,,,,,,,,,0,1,0,,160,16328,96,-66,131,-131
26.452,26.41,0.75,-0.63,0.54,-11.59,6.11,-0.75,2.25,0.03,0.29,1230.00,2102.00,137.00,235.00,787.00,1457.00,2247.00,2865.00,,,,,,,,,,,,0,1,0,,88,16364,-80,-126,72,-156
26.494,26.46,0.84,0.32,0.58,-8.35,10.64,2.57,-0.86,1.04,-0.63,1206.00,2022.00,101.00,183.00,877.00,1389.00,2319.00,2821.00,,,,,,,,,,,,0,1,0,,24,16252,128,-99,112,-94
26.555,26.52,0.85,0.99,-0.32,14.37,-6.50,1.03,0.17,-0.26,0.31,1251.00,2017.00,169.00,118.00,853.00,1436.00,2256.00,2896.00,,,,,,,,,,,,0,1,0,,128,16268,112,-100,160,-165
26.617,26.57,0.73,0.14,0.09,-0.15,-2.05,-1.55,2.93,-0.39,0.49,1243.00,2064.00,173.00,186.00,770.00,1477.00,2240.00,2897.00,,,,,,,,,,,,0,1,0,,40,16268,-88,-150,112,-119
26.679,26.63,0.77,-0.89,1.32,-15.91,13.94,1.58,0.76,1.11,-0.62,1185.00,2080.00,97.00,226.00,818.00,1383.00,2315.00,2813.00,,,,,,,,,,,,0,1,0,,120,16324,64,-214,45,-138
26.741,26.68,0.81,1.11,-0.48,9.01,-2.50,1.53,-0.91,-0.15,-0.10,1259.00,2016.00,150.00,131.00,896.00,1449.00,2303.00,2916.00,,,,,,,,,,,,0,1,0,,-68,16276,180,-96,102,-226
26.781,26.74,0.74,-0.03,-0.32,1.60,-5.22,-0.57,1.77,-1.01,0.60,1275.00,2101.00,199.00,189.00,805.00,1465.00,2252.00,2960.00,,,,,,,,,,,,0,1,0,,128,16284,96,-2,176,-40
26.843,26.80,0.74,-0.88,0.76,-10.64,4.87,0.74,0.61,0.28,-0.37,1221.00,2110.00,144.00,234.00,837.00,1435.00,2318.00,2887.00,,,,,,,,,,,,0,1,0,,84,16332,-56,-46,146,-280
26.883,26.85,0.83,0.63,-0.30,-2.05,1.98,2.47,-1.31,0.50,-0.44,1258.00,2045.00,144.00,180.00,900.00,1411.00,2317.00,2867.00,,,,,,,,,,,,0,1,0,,60,16312,-40,-202,103,-250
26.945,26.91,0.76,1.42,-1.41,11.35,-8.69,-0.50,0.57,-1.15,0.63,1317.00,2042.00,201.00,141.00,858.00,1509.00,2254.00,2974.00,,,,,,,,,,,,0,1,0,,-12,16276,52,-41,-44,-223
26.987,26.96,0.74,-0.66,0.45,-12.01,4.58,0.42,1.56,0.48,0.08,1237.00,2110.00,150.00,249.00,800.00,1417.00,2254.00,2830.00,,,,,,,,,,,,0,1,0,,12,16412,-28,-92,34,-175
27.049,27.01,0.88,0.15,0.44,-8.39,12.58,3.46,-1.58,0.88,-0.84,1219.00,2043.00,91.00,174.00,897.00,1367.00,2352.00,2855.00,,,,,,,,,,,,0,1,0,,-60,16172,92,-11,139,-192
27.112,27.07,0.92,1.28,-0.84,10.12,-7.14,1.66,-0.45,0.13,0.00,1280.00,2022.00,189.00,142.00,872.00,1424.00,2278.00,2875.00,,,,,,,,,,,,0,1,0,,40,16380,4,-132,149,-197
27.153,27.12,0.83,-0.05,0.24,-2.86,0.19,-0.76,2.12,-0.19,0.70,1237.00,2071.00,161.00,195.00,793.00,1463.00,2206.00,2858.00,,,,,,,,,,,,0,1,0,,32,16336,-48,-161,45,-158
27.215,27.18,0.92,-0.43,1.27,-11.42,11.68,2.62,-0.67,1.05,-0.36,1178.00,2045.00,101.00,201.00,867.00,1379.00,2285.00,2800.00,,,,,,,,,,,,0,1,0,,-16,16420,40,-168,20,-218
27.278,27.23,0.93,1.45,-0.74,6.28,-1.20,1.01,-0.28,-0.22,0.03,1269.00,2003.00,147.00,141.00,874.00,1454.00,2289.00,2913.00,,,,,,,,,,,,0,1,0,,-16,16260,100,-109,50,-223
27.32,27.29,0.83,0.43,-0.35,2.37,-4.33,-1.10,1.70,-0.63,0.74,1266.00,2064.00,187.00,179.00,816.00,1499.00,2220.00,2906.00,,,,,,,,,,,,0,1,0,,-32,16280,120,-88,122,-157
27.401,27.34,0.79,-0.18,0.45,-10.59,5.11,0.10,1.05,0.27,-0.13,1226.00,2070.00,142.00,232.00,827.00,1455.00,2289.00,2870.00,,,,,,,,,,,,0,1,0,,-68,16264,16,-108,186,-153
27.464,27.40,0.85,0.42,-0.27,-2.92,4.74,1.89,-0.93,0.27,-0.51,1261.00,2061.00,126.00,173.00,891.00,1429.00,2336.00,2899.00,,,,,,,,,,,,0,1,0,,16,16280,216,-142,149,-144
27.485,27.45,0.76,0.82,-0.90,12.28,-10.58,-0.84,1.10,-1.28,0.58,1295.00,2063.00,219.00,143.00,839.00,1508.00,2265.00,2993.00,,,,,,,,,,,,0,1,0,,104,16360,84,-137,105,-110
27.547,27.51,0.68,-1.63,0.85,-14.86,10.93,-0.78,1.96,-0.38,0.19,1232.00,2169.00,112.00,235.00,800.00,1470.00,2276.00,2919.00,,,,,,,,,,,,0,1,0,,104,16400,44,-39,216,-126
27.607,27.57,0.79,-0.08,0.18,-8.41,8.76,2.81,-1.30,0.84,-0.66,1242.00,2077.00,112.00,193.00,894.00,1392.00,2331.00,2846.00,,,,,,,,,,,,0,1,0,,84,16204,152,-158,155,-189
27.648,27.62,0.77,1.12,-0.79,2.51,-1.96,0.45,0.13,-0.48,0.37,1280.00,2032.00,164.00,167.00,864.00,1471.00,2258.00,2917.00,,,,,,,,,,,,0,1,0,,36,16364,60,-98,12,-124
27.709,27.67,0.68,-0.24,0.30,-4.74,-0.51,-1.14,2.29,-0.38,0.61,1237.00,2083.00,173.00,214.00,791.00,1478.00,2225.00,2887.00,,,,,,,,,,,,0,1,0,,0,16132,88,-57,111,-136
27.77,27.73,0.75,-0.67,1.15,-12.10,10.00,2.09,0.16,1.32,-0.55,1191.00,2071.00,112.00,216.00,837.00,1377.00,2297.00,2784.00,,,,,,,,,,,,0,1,0,,96,16264,-28,-75,191,-85
27.85,27.78,0.79,1.40,-0.19,6.04,-1.13,1.58,-0.36,-0.03,-0.11,1233.00,1978.00,147.00,142.00,869.00,1425.00,2299.00,2903.00,,,,,,,,,,,,0,1,0,,68,16332,136,-84,182,-87
27.87,27.84,0.68,0.71,-0.43,-1.31,-4.15,-1.49,2.43,-0.61,0.70,1265.00,2046.00,198.00,206.00,790.00,1493.00,2223.00,2906.00,,,,,,,,,,,,0,1,0,,48,16224,144,-131,96,-143
27.931,27.89,0.65,-0.11,0.79,-15.51,7.70,0.15,1.28,0.39,0.09,1202.00,2045.00,135.00,263.00,816.00,1443.00,2257.00,2840.00,,,,,,,,,,,,0,1,0,,-32,16240,184,-119,68,-81
27.994,27.95,0.74,1.16,-0.57,-1.62,-0.68,2.47,-1.59,1.04,-0.76,1264.00,2017.00,165.00,190.00,914.00,1422.00,2335.00,2831.00,,,,,,,,,,,,0,1,0,,-100,16272,72,-72,128,-138
28.034,28.00,0.66,1.10,-0.95,13.28,-11.01,-0.96,1.52,-0.65,0.28,1292.00,2043.00,220.00,139.00,822.00,1498.00,2276.00,2943.00,,,,,,,,,,,,0,1,0,,52,16260,148,-144,106,-87
28.095,28.06,0.62,-0.68,0.53,-11.62,4.44,-0.08,1.29,-0.04,0.26,1232.00,2107.00,150.00,246.00,819.00,1456.00,2253.00,2875.00,,,,,,,,,,,,0,1,0,,152,16384,48,-102,116,-181
28.219,28.11,0.70,0.31,0.28,-7.40,6.69,2.17,-0.94,0.84,-0.70,1226.00,2039.00,123.00,196.00,887.00,1414.00,2336.00,2849.00,,,,,,,,,,,,0,1,0,,48,16256,124,-76,158,-110
28.239,28.17,0.68,1.36,-1.08,9.66,-5.67,0.41,0.18,-0.26,0.27,1295.00,2029.00,176.00,139.00,862.00,1471.00,2261.00,2899.00,,,,,,,,,,,,0,1,0,,-24,16224,88,-84,174,-183
28.28,28.23,0.61,-0.21,0.37,-5.59,1.81,-0.73,1.53,-0.64,0.50,1232.00,2077.00,155.00,208.00,818.00,1484.00,2249.00,2925.00,,,,,,,,,,,,0,1,0,,16,16364,20,-172,156,-101
28.32,28.28,0.69,-1.00,1.27,-19.65,19.46,2.25,-0.52,0.65,-0.53,1190.00,2091.00,77.00,226.00,866.00,1394.00,2323.00,2858.00,,,,,,,,,,,,0,1,0,,104,16344,52,-84,193,-127
28.383,28.33,0.71,1.56,-0.66,8.59,-3.55,0.99,-0.29,0.23,-0.35,1261.00,1990.00,160.00,137.00,875.00,1456.00,2318.00,2891.00,,,,,,,,,,,,0,1,0,,92,16156,72,-227,172,-162
28.444,28.39,0.62,0.68,-0.23,1.05,-5.59,-1.14,1.49,-0.74,0.99,1252.00,2037.00,205.00,195.00,826.00,1510.00,2194.00,2898.00,,,,,,,,,,,,0,1,0,,0,16448,32,-248,46,-121
28.504,28.44,0.66,-0.29,1.02,-15.11,10.20,1.46,-0.13,0.52,-0.20,1191.00,2047.00,117.00,242.00,860.00,1423.00,2287.00,2847.00,,,,,,,,,,,,0,1,0,,68,16188,72,-251,139,-75
28.566,28.50,0.77,0.84,-0.37,-2.75,1.58,2.96,-2.22,0.33,-0.15,1258.00,2032.00,149.00,187.00,937.00,1418.00,2288.00,2864.00,,,,,,,,,,,,0,1,0,,32,16368,164,-244,227,-61
28.587,28.55,0.69,0.93,-0.88,7.44,-9.46,-0.82,0.90,-0.73,0.71,1291.00,2053.00,225.00,168.00,848.00,1515.00,2227.00,2919.00,,,,,,,,,,,,0,1,0,,188,16224,96,-244,266,-19
28.648,28.61,0.65,-0.28,0.30,-12.21,3.11,-0.10,1.14,0.64,0.02,1238.00,2086.00,163.00,261.00,826.00,1463.00,2255.00,2817.00,,,,,,,,,,,,0,1,0,,52,16348,120,-217,97,-118
28.69,28.66,0.76,0.27,0.59,-2.45,6.26,2.83,-1.32,1.48,-0.77,1207.00,2026.00,115.00,163.00,895.00,1392.00,2318.00,2783.00,,,,,,,,,,,,0,1,0,,-4,16252,336,-274,82,-93
28.75,28.72,0.75,1.54,-0.94,14.02,-9.31,0.59,-0.03,-0.25,0.57,1281.00,2007.00,198.00,129.00,869.00,1469.00,2224.00,2875.00,,,,,,,,,,,,0,1,0,,200,16272,268,-136,186,-79
28.811,28.77,0.66,-0.30,0.53,-2.24,-0.91,-1.17,2.14,0.18,0.30,1223.00,2075.00,169.00,196.00,798.00,1486.00,2240.00,2847.00,,,,,,,,,,,,0,1,0,,148,16160,104,-172,260,-242
28.873,28.83,0.74,0.12,0.53,-11.16,9.85,2.41,-0.89,1.43,-0.57,1214.00,2041.00,111.00,209.00,881.00,1399.00,2295.00,2774.00,,,,,,,,,,,,0,1,0,,124,16252,148,-242,109,-140
28.936,28.89,0.77,1.46,-0.36,11.41,-5.18,1.18,-1.08,-0.09,0.08,1243.00,1982.00,166.00,128.00,910.00,1476.00,2278.00,2895.00,,,,,,,,,,,,0,1,0,,88,16284,420,-210,113,-102
28.998,28.94,0.64,0.06,-0.05,4.25,-6.48,-1.77,1.82,-0.64,0.70,1254.00,2078.00,203.00,176.00,821.00,1535.00,2224.00,2909.00,,,,,,,,,,,,0,1,0,,192,16272,148,-187,187,-84
29.042,29.00,0.60,-1.38,2.00,-12.26,9.73,-0.06,0.80,0.78,-0.42,1152.00,2082.00,114.00,219.00,841.00,1474.00,2303.00,2834.00,,,,,,,,,,,,0,1,0,,36,16272,332,-85,107,-28
29.102,29.05,0.62,0.51,0.02,2.04,0.09,1.00,-1.04,0.05,-0.55,1239.00,2037.00,148.00,161.00,911.00,1485.00,2351.00,2928.00,,,,,,,,,,,,0,1,0,,176,16328,480,-55,199,-161
29.163,29.10,0.54,0.90,-0.64,7.01,-9.47,-1.11,0.37,-0.88,0.68,1275.00,2042.00,227.00,171.00,877.00,1554.00,2237.00,2939.00,,,,,,,,,,,,0,1,0,,124,16172,444,-227,186,-69
29.204,29.16,0.43,-1.32,1.14,-5.86,0.97,-1.51,1.77,0.65,-0.13,1206.00,2126.00,163.00,215.00,819.00,1521.00,2273.00,2827.00,,,,,,,,,,,,0,1,0,,168,16256,392,-200,60,-143
29.306,29.21,0.50,0.65,0.41,-7.33,6.97,1.82,-1.03,1.10,-0.73,1210.00,2005.00,121.00,194.00,897.00,1437.00,2329.00,2822.00,,,,,,,,,,,,0,1,0,,188,16188,336,-79,161,-125
29.326,29.27,0.48,1.77,-0.77,14.60,-9.87,0.01,0.34,0.20,0.22,1264.00,1980.00,202.00,128.00,861.00,1488.00,2249.00,2851.00,,,,,,,,,,,,0,1,0,,156,16244,236,-62,260,-121
29.366,29.32,0.42,0.50,0.13,-1.04,-0.54,-0.76,1.48,0.31,0.56,1232.00,2032.00,162.00,185.00,821.00,1488.00,2203.00,2813.00,,,,,,,,,,,,0,1,0,,156,16324,220,-24,216,-101
29.447,29.38,0.46,-0.03,1.04,-9.61,10.53,1.36,0.10,1.44,-0.39,1184.00,2025.00,104.00,193.00,851.00,1420.00,2272.00,2759.00,,,,,,,,,,,,0,1,0,,220,16384,340,-68,116,-135
29.467,29.43,0.52,1.91,-0.72,16.45,-7.64,1.53,-0.91,0.18,0.24,1257.00,1966.00,173.00,112.00,896.00,1449.00,2247.00,2852.00,,,,,,,,,,,,0,1,0,,160,16288,200,-13,110,-212
29.529,29.49,0.43,0.85,-0.32,5.37,-5.05,-1.30,2.21,-0.35,1.00,1254.00,2028.00,184.00,162.00,797.00,1491.00,2177.00,2853.00,,,,,,,,,,,,0,1,0,,224,16196,268,-135,207,-118
29.571,29.55,0.48,-0.47,1.33,-11.50,9.63,1.40,-0.30,1.19,-0.36,1175.00,2045.00,113.00,213.00,869.00,1433.00,2279.00,2784.00,,,,,,,,,,,,0,1,0,,184,16264,244,-3,208,-68
29.676,29.60,0.54,0.94,-0.02,-2.80,4.99,1.78,-1.30,0.63,-0.21,1232.00,2005.00,124.00,171.00,911.00,1450.00,2283.00,2835.00,,,,,,,,,,,,0,1,0,,212,16120,280,144,196,-135
29.696,29.66,0.48,1.01,-0.66,11.29,-9.39,-0.70,0.60,-0.25,0.48,1274.00,2034.00,209.00,144.00,860.00,1520.00,2235.00,2882.00,,,,,,,,,,,,0,1,0,,164,16180,248,26,97,-199
29.737,29.71,0.47,-0.65,0.56,-11.25,4.82,0.23,1.14,0.63,0.16,1229.00,2102.00,146.00,240.00,821.00,1444.00,2238.00,2807.00,,,,,,,,,,,,0,1,0,,180,16388,312,-28,164,-102
29.799,29.76,0.55,0.26,0.54,-6.44,9.29,2.16,-0.85,1.21,-0.82,1210.00,2029.00,105.00,176.00,883.00,1411.00,2336.00,2817.00,,,,,,,,,,,,0,1,0,,148,16384,40,-26,228,-145
29.86,29.82,0.53,1.49,-1.12,15.97,-7.58,0.20,0.34,-0.08,0.46,1295.00,2021.00,174.00,114.00,858.00,1477.00,2231.00,2864.00,,,,,,,,,,,,0,1,0,,112,16264,160,-122,147,-224
29.922,29.87,0.46,0.55,0.11,-3.30,0.45,-0.90,2.12,0.74,0.51,1232.00,2029.00,160.00,197.00,795.00,1471.00,2192.00,2769.00,,,,,,,,,,,,0,1,0,,92,16276,144,-264,83,-169
29.983,29.93,0.58,0.39,0.79,-11.75,11.07,2.73,-0.62,1.58,-0.26,1191.00,2005.00,105.00,207.00,863.00,1371.00,2251.00,2735.00,,,,,,,,,,,,0,1,0,,184,16280,212,-237,106,-183
30.044,29.98,0.61,2.33,-0.48,19.04,-6.48,1.28,-0.30,0.89,-0.10,1232.00,1922.00,155.00,98.00,871.00,1440.00,2259.00,2798.00,,,,,,,,,,,,1,0,0,,72,16196,300,-124,172,-108
30.085,30.04,0.54,0.73,-0.10,7.17,-6.53,-0.77,2.01,-0.23,1.11,1242.00,2026.00,193.00,157.00,798.00,1468.00,2160.00,2832.00,,,,,,,,,,,,1,0,0,,152,16156,340,-22,187,-186
30.148,30.09,0.58,-0.21,1.53,-9.62,8.84,1.38,0.62,1.61,-0.34,1157.00,2013.00,114.00,202.00,827.00,1399.00,2259.00,2737.00,,,,,,,,,,,,1,0,0,,88,16280,-44,-154,134,-116
30.21,30.15,0.64,1.35,-0.29,-0.45,2.63,1.81,-0.67,1.31,-0.40,1241.00,1987.00,135.00,166.00,880.00,1424.00,2279.00,2774.00,,,,,,,,,,,,1,0,0,,100,16252,276,-225,61,-93
30.251,30.20,0.60,1.24,-0.62,10.78,-9.91,-0.20,0.41,0.32,0.29,1266.00,2014.00,217.00,149.00,861.00,1498.00,2235.00,2832.00,,,,,,,,,,,,1,0,0,,136,16372,316,-122,122,-91
30.313,30.26,0.56,-0.18,0.67,-10.34,3.17,-0.20,2.14,2.02,-0.16,1211.00,2057.00,157.00,242.00,784.00,1430.00,2220.00,2680.00,,,,,,,,,,,,1,0,0,,212,16368,264,-97,224,-119
30.416,30.32,0.68,0.48,0.62,-4.43,5.69,2.95,-1.05,1.77,-0.85,1200.00,2007.00,123.00,179.00,880.00,1375.00,2315.00,2757.00,,,,,,,,,,,,1,0,0,,164,16304,284,-176,158,-116
30.436,30.37,0.66,1.85,-1.00,9.92,-7.36,0.23,0.54,0.18,0.40,1278.00,1986.00,192.00,144.00,848.00,1467.00,2227.00,2839.00,,,,,,,,,,,,1,0,0,,268,16372,368,-153,112,-7
30.458,30.42,0.62,0.41,0.16,6.22,-4.40,-0.19,2.30,0.60,0.49,1232.00,2038.00,175.00,154.00,777.00,1423.00,2200.00,2786.00,,,,,,,,,,,,1,0,0,,204,16256,452,-185,293,-106
30.518,30.48,0.72,0.71,0.38,-16.19,18.54,2.72,-0.25,1.92,-0.54,1211.00,2002.00,76.00,202.00,846.00,1358.00,2271.00,2718.00,,,,,,,,,,,,1,0,0,,256,16288,292,-13,258,-109
30.58,30.53,0.77,2.13,-0.52,15.09,-5.62,1.64,-0.42,1.33,-0.22,1239.00,1939.00,159.00,112.00,871.00,1424.00,2256.00,2759.00,,,,,,,,,,,,1,0,0,,172,16288,260,-149,76,-173
30.622,30.59,0.70,1.00,-0.07,4.02,-2.13,-0.64,2.17,0.50,0.80,1234.00,2003.00,161.00,158.00,789.00,1454.00,2167.00,2774.00,,,,,,,,,,,,1,0,0,,224,16424,540,-58,-22,-96
30.683,30.64,0.76,-0.15,1.56,-11.43,13.41,1.99,0.78,2.29,-0.49,1154.00,2007.00,92.00,192.00,811.00,1360.00,2249.00,2675.00,,,,,,,,,,,,1,0,0,,256,16264,332,109,173,-95
30.764,30.70,0.88,1.76,-0.40,3.69,0.30,3.19,-1.41,1.49,-0.29,1239.00,1961.00,142.00,150.00,893.00,1375.00,2258.00,2746.00,,,,,,,,,,,,1,0,0,,212,16416,180,17,247,-92
30.785,30.75,0.85,1.78,-0.86,10.03,-9.05,0.21,0.86,0.63,0.41,1270.00,1984.00,210.00,150.00,834.00,1456.00,2208.00,2788.00,,,,,,,,,,,,1,0,0,,216,16160,76,-133,188,-190
30.847,30.81,0.85,-0.05,0.74,-9.10,4.22,0.76,1.01,1.27,0.25,1204.00,2043.00,145.00,224.00,819.00,1419.00,2201.00,2730.00,,,,,,,,,,,,1,0,0,,172,16352,168,-267,-21,-167
30.909,30.86,0.95,1.06,0.26,-6.62,9.35,2.96,-0.85,2.07,-0.59,1211.00,1981.00,105.00,177.00,870.00,1367.00,2271.00,2706.00,,,,,,,,,,,,1,0,0,,108,16160,568,-75,-72,-166
30.95,30.92,0.96,2.04,-0.95,19.81,-12.26,1.16,0.23,0.80,0.29,1270.00,1968.00,209.00,111.00,848.00,1426.00,2215.00,2778.00,,,,,,,,,,,,1,0,0,,-24,16288,560,-24,194,-140
31.011,30.98,0.89,0.88,0.33,-0.91,-0.12,-0.46,2.68,1.30,0.48,1210.00,1991.00,158.00,182.00,765.00,1424.00,2173.00,2710.00,,,,,,,,,,,,1,0,0,,216,16300,272,69,230,-225
31.075,31.03,0.97,0.42,0.87,-11.95,13.78,2.44,0.20,2.02,-0.24,1185.00,1998.00,91.00,194.00,830.00,1357.00,2230.00,2686.00,,,,,,,,,,,,1,0,0,,96,16292,272,45,-36,30
31.136,31.08,1.01,2.13,-0.52,19.10,-7.31,1.89,-0.40,1.25,-0.14,1239.00,1939.00,162.00,100.00,866.00,1409.00,2250.00,2762.00,,,,,,,,,,,,1,0,0,,296,16308,412,261,97,-148
31.177,31.14,0.95,1.18,-0.20,6.00,-3.36,-0.32,2.18,0.48,0.87,1239.00,1996.00,166.00,151.00,784.00,1435.00,2160.00,2771.00,,,,,,,,,,,,1,0,0,,204,16284,148,256,241,-276
31.24,31.19,0.97,0.25,1.15,-11.47,10.12,1.37,0.87,2.60,-0.44,1171.00,1997.00,110.00,210.00,816.00,1390.00,2231.00,2639.00,,,,,,,,,,,,1,0,0,,200,16196,84,181,2,-292
31.303,31.25,1.07,1.69,-0.17,4.91,-0.75,2.94,-1.11,2.02,-0.30,1225.00,1954.00,147.00,147.00,883.00,1378.00,2237.00,2690.00,,,,,,,,,,,,1,0,0,,60,16176,156,156,-6,-229
31.365,31.30,1.00,1.85,-0.73,8.46,-6.48,-0.26,1.38,1.14,0.37,1259.00,1971.00,188.00,149.00,818.00,1463.00,2192.00,2735.00,,,,,,,,,,,,1,0,0,,88,16328,168,-74,5,-163
31.385,31.36,1.00,0.42,0.67,-10.69,6.08,1.05,1.30,1.62,0.37,1198.00,2009.00,135.00,227.00,802.00,1392.00,2173.00,2684.00,,,,,,,,,,,,1,0,0,,96,16376,260,6,-71,-105
31.446,31.41,1.12,1.74,0.04,-1.12,7.15,3.31,-1.18,2.45,-0.69,1210.00,1939.00,107.00,151.00,880.00,1360.00,2267.00,2672.00,,,,,,,,,,,,1,0,0,,268,16564,-284,205,-237,-11
31.508,31.47,1.07,2.34,-1.01,17.37,-8.98,0.07,1.38,1.17,0.39,1267.00,1948.00,183.00,112.00,813.00,1444.00,2189.00,2731.00,,,,,,,,,,,,1,0,0,,172,16136,316,269,-21,86
31.57,31.52,1.04,1.04,0.20,-3.54,2.35,0.51,1.69,1.80,0.46,1215.00,1985.00,145.00,189.00,793.00,1407.00,2155.00,2658.00,,,,,,,,,,,,1,0,0,,172,16516,56,130,258,-164
31.631,31.58,1.13,0.97,0.70,-12.01,19.45,2.84,-0.09,2.64,-0.46,1184.00,1964.00,67.00,167.00,837.00,1346.00,2231.00,2636.00,,,,,,,,,,,,1,0,0,,72,16184,-128,-75,90,-111
31.672,31.64,1.17,2.23,-0.30,18.74,-3.27,2.02,-0.29,1.54,0.16,1222.00,1920.00,131.00,91.00,859.00,1398.00,2201.00,2708.00,,,,,,,,,,,,1,0,0,,128,16272,-200,-391,121,-204
31.756,31.69,1.05,1.36,-0.14,8.25,-4.11,-1.22,2.84,1.01,0.96,1231.00,1979.00,166.00,141.00,769.00,1461.00,2128.00,2706.00,,,,,,,,,,,,1,0,0,,-4,15928,-84,-770,161,2
31.777,31.75,1.12,-0.07,1.54,-9.88,11.91,2.29,-0.12,2.37,-0.05,1153.00,2001.00,97.00,188.00,847.00,1377.00,2193.00,2635.00,,,,,,,,,,,,1,0,0,,32,16644,0,-952,192,-69
31.881,31.80,1.18,2.05,-0.39,5.54,2.33,2.37,-1.04,1.56,-0.30,1232.00,1938.00,123.00,132.00,889.00,1407.00,2256.00,2739.00,,,,,,,,,,,,1,0,0,,116,16416,672,-352,200,-356
31.901,31.85,1.12,1.59,-0.71,10.80,-7.07,0.08,0.97,0.75,0.64,1264.00,1991.00,186.00,138.00,831.00,1459.00,2176.00,2758.00,,,,,,,,,,,,1,0,0,,108,16216,348,-145,169,-137
31.942,31.91,1.08,0.08,0.76,-8.67,5.81,0.26,1.75,2.28,-0.05,1200.00,2032.00,132.00,211.00,794.00,1419.00,2197.00,2645.00,,,,,,,,,,,,1,0,0,,80,16320,248,421,207,-138
32.006,31.96,1.20,1.68,0.31,-5.86,13.66,3.58,-1.62,2.63,-0.67,1194.00,1930.00,82.00,153.00,897.00,1362.00,2257.00,2652.00,,,,,,,,,,,,1,0,0,,200,16384,-24,203,220,-205
32.067,32.02,1.19,2.81,-1.12,30.24,-14.48,0.82,0.92,1.11,0.37,1264.00,1918.00,195.00,78.00,822.00,1419.00,2194.00,2739.00,,,,,,,,,,,,1,0,0,,152,16220,8,-120,361,-458
32.109,32.08,1.12,1.07,0.50,-11.85,15.01,-0.11,2.61,1.51,0.68,1195.00,1967.00,85.00,187.00,763.00,1407.00,2141.00,2673.00,,,,,,,,,,,,1,0,0,,228,16108,-104,-437,63,-194
32.172,32.13,1.18,1.19,0.80,-12.66,16.40,2.33,0.32,2.64,-0.29,1173.00,1942.00,80.00,186.00,826.00,1358.00,2211.00,2624.00,,,,,,,,,,,,1,0,0,,144,16516,372,-479,-119,-129
32.254,32.19,1.22,2.64,-0.43,19.94,-5.03,1.92,-0.50,1.96,-0.06,1221.00,1895.00,141.00,91.00,870.00,1411.00,2211.00,2679.00,,,,,,,,,,,,1,0,0,,168,16428,388,-345,153,-162
32.274,32.24,1.13,1.58,-0.16,4.19,-3.08,-0.45,2.22,1.18,1.09,1227.00,1962.00,169.00,161.00,784.00,1441.00,2107.00,2679.00,,,,,,,,,,,,1,0,0,,76,16420,308,13,240,-150
32.336,32.30,1.15,0.18,1.49,-16.34,14.08,1.49,0.67,2.56,-0.20,1151.00,1984.00,97.00,229.00,823.00,1391.00,2203.00,2626.00,,,,,,,,,,,,1,0,0,,224,16304,208,17,173,-95
32.378,32.35,1.22,1.87,-0.03,9.39,-0.40,2.49,-1.17,2.11,-0.35,1212.00,1933.00,133.00,122.00,893.00,1405.00,2240.00,2684.00,,,,,,,,,,,,1,0,0,,168,16204,252,-48,87,-196
32.44,32.41,1.13,1.46,-0.59,10.17,-7.73,-0.55,1.47,0.84,0.63,1259.00,1995.00,195.00,144.00,818.00,1476.00,2174.00,2749.00,,,,,,,,,,,,1,0,0,,100,16252,256,-134,1,-160
32.502,32.46,1.07,-0.08,0.96,-11.55,6.36,-0.02,2.03,1.66,0.17,1190.00,2033.00,135.00,233.00,786.00,1424.00,2195.00,2694.00,,,,,,,,,,,,1,0,0,,204,16412,472,-37,21,-285
32.605,32.52,1.17,1.20,0.35,-1.85,7.74,2.96,-1.49,2.60,-0.91,1202.00,1965.00,105.00,153.00,901.00,1391.00,2288.00,2672.00,,,,,,,,,,,,1,0,0,,196,16352,284,226,51,-194
32.646,32.57,1.14,2.43,-1.14,23.63,-11.29,0.54,0.42,1.13,0.38,1274.00,1948.00,185.00,93.00,849.00,1454.00,2192.00,2736.00,,,,,,,,,,,,1,0,0,,28,16232,316,119,-15,-299
32.667,32.63,1.08,0.91,0.32,2.41,-1.58,0.09,1.99,2.01,0.32,1210.00,1989.00,161.00,166.00,786.00,1419.00,2164.00,2647.00,,,,,,,,,,,,1,0,0,,40,16228,300,30,31,-139
32.707,32.68,1.14,1.45,0.64,-2.54,8.51,2.14,0.14,2.81,-0.46,1178.00,1931.00,102.00,154.00,837.00,1375.00,2224.00,2618.00,,,,,,,,,,,,1,0,0,,84,16232,232,-36,153,-37
32.77,32.74,1.15,2.00,0.03,20.28,-5.53,1.35,-0.07,1.94,0.03,1205.00,1920.00,144.00,91.00,859.00,1427.00,2201.00,2675.00,,,,,,,,,,,,1,0,0,,100,16320,-92,157,198,3
32.832,32.79,1.05,1.70,-0.06,11.14,-6.48,-0.75,2.28,1.47,0.68,1218.00,1948.00,179.00,134.00,786.00,1456.00,2143.00,2678.00,,,,,,,,,,,,1,0,1,,172,16496,56,131,116,-189
32.873,32.85,1.09,0.41,1.50,-7.54,9.66,1.78,0.74,2.94,-0.37,1146.00,1966.00,105.00,182.00,816.00,1373.00,2208.00,2598.00,,,,,,,,,,,,1,0,1,,48,16376,-64,51,65,-265
32.934,32.90,1.13,2.21,-0.07,12.96,-1.46,1.90,-0.26,2.17,-0.18,1207.00,1909.00,132.00,109.00,859.00,1403.00,2217.00,2666.00,,,,,,,,,,,,1,0,1,,84,16272,124,-114,-66,-134
32.996,32.96,1.07,2.03,-0.42,17.97,-9.88,-0.14,1.38,1.30,0.67,1234.00,1941.00,190.00,112.00,816.00,1456.00,2151.00,2697.00,,,,,,,,,,,,1,0,1,,168,16312,96,74,-63,-166
33.038,33.01,1.03,0.84,0.50,-3.75,1.31,0.42,1.51,2.12,0.17,1200.00,1985.00,154.00,196.00,802.00,1419.00,2177.00,2646.00,,,,,,,,,,,,1,0,1,,-80,16316,68,97,-19,-96
33.101,33.07,1.14,1.54,0.50,-0.23,6.34,3.21,-1.53,2.70,-0.60,1185.00,1931.00,110.00,149.00,899.00,1379.00,2246.00,2640.00,,,,,,,,,,,,1,0,1,,-80,16204,164,45,109,-94
33.164,33.12,1.10,2.33,-0.72,22.58,-10.53,0.33,0.54,1.29,0.34,1248.00,1934.00,181.00,95.00,847.00,1462.00,2190.00,2722.00,,,,,,,,,,,,1,0,1,,52,16272,0,19,169,-46
33.204,33.17,1.05,0.53,0.79,1.99,0.88,0.04,1.94,2.10,0.27,1188.00,1994.00,142.00,158.00,789.00,1424.00,2166.00,2641.00,,,,,,,,,,,,1,0,1,,28,16392,108,-49,144,-137
33.288,33.23,1.11,0.85,1.16,-7.89,11.43,2.20,0.19,2.87,-0.44,1158.00,1950.00,96.00,176.00,834.00,1370.00,2220.00,2611.00,,,,,,,,,,,,1,0,1,,140,16384,-176,110,38,-145
33.349,33.28,1.12,2.55,-0.47,22.57,-7.66,1.38,-0.16,2.14,0.22,1226.00,1904.00,155.00,88.00,863.00,1429.00,2170.00,2640.00,,,,,,,,,,,,1,0,1,,204,16184,-88,30,-1,-179
33.37,33.34,1.05,1.50,0.17,6.95,-4.76,-0.24,2.01,1.21,1.41,1207.00,1951.00,176.00,151.00,790.00,1437.00,2070.00,2653.00,,,,,,,,,,,,1,0,1,,116,16276,-64,-11,-98,-212
33.431,33.40,1.11,0.66,1.52,-7.84,12.00,2.21,0.12,3.20,-0.17,1139.00,1945.00,93.00,173.00,837.00,1372.00,2175.00,2559.00,,,,,,,,,,,,1,0,1,,152,16084,-200,174,-137,-58
33.492,33.45,1.16,2.55,-0.21,11.28,-0.33,2.18,-0.79,2.60,0.00,1209.00,1891.00,128.00,113.00,880.00,1408.00,2178.00,2608.00,,,,,,,,,,,,1,0,1,,136,16444,172,253,-250,19
33.534,33.51,1.08,1.93,-0.29,15.03,-7.47,-0.49,1.39,1.64,0.75,1228.00,1942.00,176.00,118.00,821.00,1476.00,2128.00,2655.00,,,,,,,,,,,,1,0,1,,220,16496,116,250,7,-265
33.596,33.56,1.09,0.71,1.00,-6.50,2.97,1.26,0.75,2.49,0.30,1171.00,1969.00,148.00,209.00,823.00,1401.00,2148.00,2599.00,,,,,,,,,,,,1,0,1,,136,16252,-360,213,-102,-144
33.657,33.62,1.20,1.63,0.89,1.11,8.60,3.35,-1.50,3.36,-0.42,1158.00,1904.00,95.00,133.00,895.00,1370.00,2197.00,2559.00,,,,,,,,,,,,1,0,1,,244,16296,-468,231,-362,-90
33.718,33.67,1.13,2.94,-1.00,27.34,-11.62,-0.30,1.28,1.93,0.39,1253.00,1902.00,176.00,81.00,823.00,1469.00,2159.00,2650.00,,,,,,,,,,,,1,0,1,,156,16164,-728,509,-1209,115
33.759,33.73,1.08,1.09,0.74,6.71,-1.85,0.25,1.52,1.94,0.78,1179.00,1953.00,151.00,141.00,804.00,1428.00,2113.00,2621.00,,,,,,,,,,,,1,0,1,,244,16088,-24,522,-1325,360
33.861,33.78,1.16,1.25,0.82,-6.09,13.51,2.69,-0.17,3.24,-0.24,1171.00,1937.00,83.00,155.00,843.00,1357.00,2181.00,2559.00,,,,,,,,,,,,1,0,1,,116,16648,-112,298,-500,-185
33.881,33.84,1.17,2.71,-0.57,18.99,-3.63,1.26,0.13,2.15,0.11,1229.00,1897.00,133.00,91.00,851.00,1424.00,2183.00,2647.00,,,,,,,,,,,,1,0,1,,284,15964,-376,24,-267,12
33.923,33.89,1.08,1.62,-0.23,9.05,-6.08,-0.59,2.27,1.52,0.78,1231.00,1963.00,182.00,144.00,784.00,1447.00,2129.00,2665.00,,,,,,,,,,,,1,0,1,,336,16504,-296,97,44,-90
33.984,33.95,1.12,0.60,1.08,1.87,5.30,1.82,0.45,2.67,-0.11,1168.00,1973.00,112.00,141.00,828.00,1381.00,2188.00,2608.00,,,,,,,,,,,,1,0,1,,272,16624,-480,234,197,-239
34.087,34.00,1.19,2.43,-0.31,8.88,0.05,2.60,-0.94,2.26,0.04,1218.00,1905.00,131.00,123.00,880.00,1390.00,2187.00,2640.00,,,,,,,,,,,,1,0,1,,276,16240,-712,292,3,-487
34.108,34.06,1.15,1.85,-0.11,10.26,-4.90,0.27,1.11,1.69,0.65,1218.00,1939.00,167.00,133.00,822.00,1443.00,2138.00,2657.00,,,,,,,,,,,,1,0,1,,180,16260,-524,46,-44,-230
34.15,34.11,1.12,0.91,0.82,-6.65,3.91,0.55,1.61,2.66,0.28,1178.00,1963.00,141.00,205.00,796.00,1408.00,2143.00,2582.00,,,,,,,,,,,,1,0,1,,152,16192,-572,231,16,-57
34.192,34.17,1.22,1.80,0.52,0.28,5.83,3.22,-1.12,3.12,-0.55,1178.00,1910.00,112.00,148.00,879.00,1363.00,2223.00,2593.00,,,,,,,,,,,,1,0,1,,280,16092,-348,-250,131,-95
34.254,34.22,1.23,2.97,-1.03,14.12,-8.29,1.46,-0.02,2.06,0.38,1254.00,1901.00,187.00,125.00,855.00,1419.00,2155.00,2637.00,,,,,,,,,,,,1,0,1,,220,16308,-556,49,242,-105
34.337,34.28,1.19,1.60,0.49,9.56,-3.87,0.36,2.45,2.25,0.78,1184.00,1927.00,160.00,133.00,763.00,1387.00,2101.00,2589.00,,,,,,,,,,,,1,0,1,,484,16372,-568,165,146,-55
34.358,34.33,1.26,1.76,0.83,-4.28,13.58,2.53,0.06,3.03,0.07,1159.00,1897.00,80.00,144.00,835.00,1357.00,2153.00,2559.00,,,,,,,,,,,,1,0,1,,160,16408,-568,214,122,-26
34.461,34.39,1.30,2.78,-0.23,23.98,-6.65,2.13,-0.05,2.43,0.21,1205.00,1875.00,143.00,81.00,846.00,1383.00,2160.00,2611.00,,,,,,,,,,,,1,0,1,,312,16272,-1000,117,164,-194
34.481,34.44,1.24,1.93,-0.01,12.64,-6.98,0.01,2.12,1.82,1.05,1209.00,1927.00,179.00,128.00,782.00,1419.00,2087.00,2615.00,,,,,,,,,,,,1,0,1,,160,16320,-824,41,140,-237
34.522,34.50,1.26,1.18,1.19,-6.85,8.23,1.81,0.75,3.33,-0.23,1149.00,1923.00,112.00,184.00,815.00,1371.00,2176.00,2549.00,,,,,,,,,,,,1,0,1,,196,16296,-604,-63,265,-194
34.585,34.55,1.35,2.72,-0.09,4.27,4.49,2.95,-0.97,2.54,0.09,1197.00,1872.00,112.00,131.00,876.00,1372.00,2170.00,2608.00,,,,,,,,,,,,1,0,1,,312,16312,-728,-265,365,-239
34.646,34.60,1.32,1.70,-0.12,21.53,-9.77,0.70,0.37,1.58,0.74,1222.00,1951.00,177.00,97.00,849.00,1447.00,2131.00,2661.00,,,,,,,,,,,,1,0,1,,260,16300,-648,95,157,-91
34.686,34.66,1.29,1.28,0.52,-4.57,3.48,0.80,1.80,2.92,0.24,1189.00,1950.00,139.00,191.00,784.00,1387.00,2138.00,2559.00,,,,,,,,,,,,1,0,1,,292,16448,-592,-45,220,-145
34.748,34.72,1.41,1.87,0.83,2.55,5.91,3.62,-0.87,3.86,-0.72,1157.00,1889.00,107.00,135.00,861.00,1333.00,2213.00,2529.00,,,,,,,,,,,,1,0,1,,196,16452,-812,-107,254,-247
34.831,34.77,1.43,3.19,-0.78,28.97,-13.08,1.93,0.35,2.11,0.68,1232.00,1872.00,185.00,79.00,831.00,1379.00,2118.00,2611.00,,,,,,,,,,,,1,0,1,,352,16196,-728,-51,166,-192
34.872,34.83,1.40,1.78,0.35,6.80,-2.24,0.82,1.80,2.80,0.66,1189.00,1920.00,154.00,142.00,784.00,1386.00,2094.00,2542.00,,,,,,,,,,,,1,0,1,,204,16456,-620,-59,120,-254
34.934,34.88,1.48,1.85,0.96,-4.28,13.58,3.01,0.30,3.82,-0.10,1149.00,1884.00,80.00,144.00,817.00,1323.00,2142.00,2492.00,,,,,,,,,,,,1,0,1,,116,16248,-724,-118,86,-212
34.996,34.94,1.54,3.32,-0.29,25.71,-4.30,2.58,-0.09,2.96,0.17,1197.00,1838.00,122.00,71.00,841.00,1360.00,2144.00,2559.00,,,,,,,,,,,,1,0,1,,200,16296,-704,-33,301,-209
35.016,34.99,1.50,2.45,0.25,15.31,-7.25,0.80,1.50,1.98,1.16,1181.00,1875.00,173.00,116.00,797.00,1398.00,2069.00,2591.00,,,,,,,,,,,,1,0,1,,248,16424,-924,-78,181,-282
35.079,35.05,1.57,1.05,1.82,-0.52,5.78,2.84,0.86,3.57,-0.14,1113.00,1900.00,114.00,153.00,795.00,1312.00,2156.00,2519.00,,,,,,,,,,,,1,0,1,,312,16336,-716,-74,60,-79
35.222,35.10,1.67,2.80,0.12,7.45,2.46,3.69,-1.16,3.20,-0.17,1182.00,1856.00,118.00,122.00,873.00,1339.00,2174.00,2558.00,,,,,,,,,,,,1,0,1,,288,16484,-808,-94,198,-312
35.242,35.16,1.61,2.54,-0.39,20.95,-10.78,0.42,1.37,1.83,0.68,1221.00,1901.00,189.00,102.00,808.00,1424.00,2129.00,2640.00,,,,,,,,,,,,1,0,1,,268,16236,-968,-233,-62,-138
35.262,35.21,1.61,1.13,1.01,-3.60,4.67,1.49,1.57,3.07,0.16,1161.00,1936.00,128.00,178.00,784.00,1358.00,2141.00,2549.00,,,,,,,,,,,,1,0,1,,220,16272,-424,51,-12,-206
35.303,35.27,1.73,1.90,0.55,1.93,6.83,4.14,-0.77,3.44,-0.53,1174.00,1901.00,103.00,135.00,848.00,1302.00,2208.00,2559.00,,,,,,,,,,,,1,0,1,,144,16424,-612,-155,286,-264
35.344,35.32,1.77,3.39,-0.75,20.37,-7.28,2.50,0.02,2.40,0.50,1226.00,1856.00,158.00,95.00,837.00,1360.00,2128.00,2594.00,,,,,,,,,,,,1,0,1,,196,16064,-620,-184,109,-181
35.406,35.38,1.77,1.77,0.77,6.56,0.27,1.70,1.76,3.10,0.50,1163.00,1900.00,135.00,134.00,773.00,1340.00,2101.00,2523.00,,,,,,,,,,,,1,0,1,,60,16352,-756,7,-7,-69
35.468,35.43,1.88,1.68,1.23,1.19,10.19,4.10,0.18,4.04,-0.19,1136.00,1883.00,87.00,127.00,806.00,1271.00,2144.00,2476.00,,,,,,,,,,,,1,0,1,,160,16236,-572,129,116,-47
35.55,35.49,1.96,3.54,0.12,34.47,-7.69,3.49,-0.55,3.28,-0.07,1166.00,1802.00,125.00,55.00,848.00,1328.00,2160.00,2544.00,,,,,,,,,,,,1,0,1,,184,16276,-832,-46,324,-21
35.571,35.54,1.92,3.03,-0.65,10.97,-3.03,1.10,1.68,2.32,1.12,1227.00,1877.00,149.00,123.00,785.00,1375.00,2060.00,2559.00,,,,,,,,,,,,1,0,1,,376,16828,-904,-101,171,-108
35.633,35.60,1.99,1.58,1.54,-6.02,11.99,3.31,0.79,3.86,-0.07,1119.00,1875.00,90.00,161.00,791.00,1290.00,2137.00,2486.00,,,,,,,,,,,,1,0,1,,100,16468,-816,34,30,-215
35.695,35.65,2.10,2.87,0.33,6.73,3.83,4.25,-1.13,3.37,-0.22,1167.00,1840.00,111.00,121.00,863.00,1309.00,2173.00,2544.00,,,,,,,,,,,,1,0,1,,188,16240,-916,-212,3,-113
35.756,35.71,2.09,3.40,-0.47,27.43,-11.75,1.74,0.79,2.58,0.29,1207.00,1841.00,177.00,81.00,814.00,1373.00,2145.00,2590.00,,,,,,,,,,,,1,0,1,,168,16316,-684,-299,93,-193
35.797,35.76,2.04,1.78,0.76,-1.13,3.42,1.23,2.06,2.84,0.35,1163.00,1899.00,131.00,167.00,767.00,1354.00,2128.00,2559.00,,,,,,,,,,,,1,0,1,,180,16416,-700,-99,173,-182
35.838,35.82,2.17,2.08,1.09,-10.65,15.49,4.65,-1.09,3.67,-0.57,1136.00,1860.00,81.00,176.00,855.00,1287.00,2203.00,2538.00,,,,,,,,,,,,1,0,1,,200,16356,-744,-145,168,-85
35.921,35.87,2.17,3.42,-0.47,31.28,-12.52,2.18,0.44,1.98,0.46,1207.00,1840.00,172.00,71.00,823.00,1362.00,2149.00,2640.00,,,,,,,,,,,,1,0,1,,216,16444,-644,-61,144,-77
35.982,35.92,2.12,2.41,0.31,10.55,-3.01,1.16,2.28,2.84,0.35,1178.00,1875.00,150.00,125.00,759.00,1350.00,2128.00,2559.00,,,,,,,,,,,,1,0,1,,108,16380,-772,-52,169,-82
36.023,35.98,2.21,1.75,1.22,-4.30,13.36,3.96,-0.25,3.87,-0.27,1135.00,1878.00,81.00,145.00,827.00,1293.00,2160.00,2498.00,,,,,,,,,,,,1,0,1,,288,16512,-844,-193,35,-161
36.087,36.03,2.28,3.87,-0.18,23.06,-3.41,3.62,-0.20,3.21,-0.16,1178.00,1793.00,122.00,77.00,830.00,1309.00,2173.00,2557.00,,,,,,,,,,,,1,0,1,,132,16316,-608,-53,47,-279
36.129,36.09,2.18,2.74,0.20,26.10,-9.32,0.29,2.82,2.67,0.68,1178.00,1856.00,159.00,80.00,749.00,1377.00,2097.00,2554.00,,,,,,,,,,,,1,0,1,,132,16348,-588,87,-40,-146
36.19,36.15,2.24,2.14,1.44,-4.37,8.42,3.36,0.27,3.67,-0.05,1114.00,1839.00,106.00,166.00,813.00,1306.00,2142.00,2503.00,,,,,,,,,,,,1,0,1,,196,16372,-868,179,227,-214
36.294,36.20,2.38,3.14,0.45,14.35,1.60,4.96,-1.35,3.34,-0.27,1154.00,1815.00,109.00,95.00,862.00,1280.00,2181.00,2551.00,,,,,,,,,,,,1,0,1,,228,16288,-1124,110,187,-100
36.314,36.26,2.34,4.05,-0.96,19.38,-10.25,1.53,1.35,2.16,0.50,1225.00,1818.00,189.00,107.00,793.00,1364.00,2137.00,2618.00,,,,,,,,,,,,1,0,1,,248,16312,-772,-182,-9,-164
36.356,36.31,2.30,1.81,0.98,0.62,1.73,1.67,2.13,3.03,0.28,1149.00,1886.00,139.00,163.00,758.00,1328.00,2129.00,2545.00,,,,,,,,,,,,1,0,1,,280,16496,-452,-127,92,-85
36.418,36.37,2.43,2.80,0.89,1.42,11.66,4.91,-1.16,3.69,-0.53,1134.00,1818.00,80.00,121.00,854.00,1276.00,2197.00,2533.00,,,,,,,,,,,,1,0,1,,212,16272,-804,308,235,-136
36.481,36.42,2.49,4.05,-0.56,35.23,-11.44,3.63,-0.02,2.68,0.17,1199.00,1799.00,151.00,59.00,822.00,1302.00,2155.00,2588.00,,,,,,,,,,,,1,0,1,,256,16296,-992,25,219,-251
36.502,36.48,2.47,2.80,0.34,16.52,-3.88,2.03,1.75,2.37,0.55,1168.00,1845.00,141.00,101.00,769.00,1323.00,2123.00,2593.00,,,,,,,,,,,,1,0,1,,240,16500,-1040,16,113,-415
36.565,36.53,2.57,2.13,1.11,-2.99,20.07,4.50,-0.04,3.69,-0.43,1134.00,1856.00,55.00,115.00,810.00,1259.00,2186.00,2527.00,,,,,,,,,,,,1,0,1,,116,16400,-828,-207,-93,-329
36.647,36.59,2.62,3.89,-0.18,30.55,-5.78,3.61,-0.53,2.51,0.13,1178.00,1792.00,121.00,61.00,845.00,1321.00,2166.00,2608.00,,,,,,,,,,,,1,0,1,,44,16304,-480,-384,185,-101
36.668,36.64,2.55,2.99,-0.22,19.57,-9.11,1.21,1.93,1.72,0.81,1200.00,1859.00,177.00,103.00,773.00,1360.00,2119.00,2643.00,,,,,,,,,,,,1,0,1,,152,16524,-1092,-238,291,-102
36.729,36.70,2.59,2.20,0.88,-2.54,9.25,3.35,1.09,3.36,-0.29,1147.00,1862.00,98.00,151.00,778.00,1278.00,2182.00,2550.00,,,,,,,,,,,,1,0,1,,300,16428,-600,-236,11,-60
36.791,36.75,2.72,3.55,0.14,5.68,8.26,5.11,-1.10,3.45,-0.56,1165.00,1801.00,89.00,112.00,848.00,1264.00,2210.00,2559.00,,,,,,,,,,,,1,0,1,,264,16484,-752,-140,157,-146
36.832,36.81,2.65,4.05,-0.63,27.89,-12.42,1.40,1.48,2.03,0.46,1203.00,1802.00,182.00,81.00,789.00,1366.00,2147.00,2635.00,,,,,,,,,,,,1,0,1,,156,16508,-780,181,296,-441
36.894,36.86,2.60,2.07,1.21,0.77,4.86,1.63,2.20,3.42,0.10,1129.00,1855.00,117.00,149.00,756.00,1328.00,2134.00,2518.00,,,,,,,,,,,,1,0,1,,204,16248,-684,-450,192,-271
36.956,36.92,2.70,2.89,0.94,6.89,9.59,4.53,-0.50,3.97,-0.62,1129.00,1809.00,81.00,103.00,830.00,1273.00,2197.00,2512.00,,,,,,,,,,,,1,0,1,,40,16120,-860,-31,141,-261
37.017,36.97,2.77,3.90,0.03,34.60,-7.88,4.13,-0.70,2.48,0.39,1164.00,1781.00,126.00,55.00,845.00,1300.00,2137.00,2593.00,,,,,,,,,,,,1,0,1,,84,16052,-700,-498,112,-5
37.078,37.03,2.73,3.14,0.58,21.65,-3.68,2.03,1.77,2.71,0.54,1146.00,1809.00,127.00,82.00,768.00,1322.00,2111.00,2559.00,,,,,,,,,,,,1,0,1,,280,16508,-556,-234,343,45
37.119,37.08,2.80,2.48,1.52,-0.79,16.82,4.13,-0.05,3.74,-0.28,1102.00,1810.00,63.00,115.00,816.00,1278.00,2166.00,2512.00,,,,,,,,,,,,1,0,1,,84,16620,-1120,10,169,24
37.181,37.14,2.88,4.13,0.18,43.65,-8.42,4.25,-0.78,2.72,-0.10,1150.00,1758.00,110.00,39.00,847.00,1297.00,2185.00,2602.00,,,,,,,,,,,,1,0,1,,240,16440,-844,24,194,-218
37.243,37.19,2.80,2.64,0.68,35.11,-11.88,1.30,1.66,1.85,0.72,1150.00,1840.00,155.00,60.00,783.00,1365.00,2124.00,2635.00,,,,,,,,,,,,1,0,1,,268,16300,-856,-33,129,-185
37.284,37.25,2.81,2.52,1.00,-3.11,8.17,3.09,0.87,2.85,-0.02,1133.00,1833.00,105.00,159.00,791.00,1299.00,2170.00,2583.00,,,,,,,,,,,,1,0,1,,112,16180,-884,-75,133,-118
37.387,37.30,2.90,3.02,0.68,18.65,1.20,4.65,-1.09,3.04,-0.41,1142.00,1812.00,103.00,81.00,855.00,1287.00,2209.00,2591.00,,,,,,,,,,,,1,0,1,,164,16428,-832,-247,170,-142
37.407,37.35,2.85,4.10,-0.77,45.04,-15.81,1.92,0.82,2.09,0.52,1211.00,1805.00,160.00,45.00,810.00,1362.00,2137.00,2624.00,,,,,,,,,,,,1,0,1,,104,16364,-668,-358,117,-156
37.449,37.41,2.83,2.57,0.79,7.03,3.07,2.32,1.72,3.58,-0.15,1145.00,1840.00,115.00,122.00,766.00,1309.00,2157.00,2519.00,,,,,,,,,,,,1,0,1,,168,16300,-544,74,-153,-153
37.511,37.47,2.92,3.10,1.28,3.07,15.23,4.78,-0.52,3.89,-0.37,1104.00,1778.00,64.00,103.00,827.00,1261.00,2171.00,2503.00,,,,,,,,,,,,1,0,1,,272,16376,-380,-158,41,-108
37.552,37.52,2.96,4.15,0.11,37.04,-7.18,3.59,0.24,3.10,0.05,1154.00,1760.00,116.00,49.00,811.00,1295.00,2153.00,2554.00,,,,,,,,,,,,1,0,1,,168,16348,-624,60,171,-226
37.613,37.58,2.90,3.45,0.57,21.75,-6.03,1.86,2.17,2.45,0.98,1140.00,1787.00,144.00,87.00,754.00,1317.00,2071.00,2555.00,,,,,,,,,,,,1,0,1,,144,16344,-688,-32,93,-238
37.675,37.63,3.02,2.47,1.76,-7.17,20.81,5.23,-0.20,3.94,-0.10,1088.00,1799.00,57.00,133.00,806.00,1228.00,2137.00,2480.00,,,,,,,,,,,,1,0,1,,160,16288,-904,-112,-1,-142
37.737,37.69,3.10,4.56,-0.14,35.23,-6.73,4.73,-0.68,3.23,-0.15,1161.00,1743.00,117.00,52.00,835.00,1269.00,2171.00,2554.00,,,,,,,,,,,,1,0,2,,220,16456,-824,59,-50,-233
37.839,37.74,3.06,3.70,0.44,27.82,-6.88,2.29,1.30,2.36,0.65,1143.00,1776.00,135.00,70.00,784.00,1325.00,2112.00,2587.00,,,,,,,,,,,,1,0,2,,-12,16272,-780,-62,67,-120
37.86,37.80,2.98,2.24,1.27,1.18,5.53,1.39,2.11,3.20,-0.02,1122.00,1840.00,112.00,144.00,763.00,1344.00,2157.00,2548.00,,,,,,,,,,,,1,0,2,,120,16396,-852,-16,160,-152
37.902,37.85,3.11,3.52,0.39,15.34,3.42,5.48,-1.67,3.58,-0.73,1150.00,1791.00,97.00,87.00,869.00,1265.00,2226.00,2558.00,,,,,,,,,,,,1,0,2,,188,16336,-972,0,176,-5
37.963,37.91,3.06,4.52,-1.09,46.43,-16.16,2.15,0.95,1.77,0.57,1223.00,1791.00,159.00,43.00,801.00,1345.00,2144.00,2654.00,,,,,,,,,,,,1,0,2,,200,16280,-960,-61,232,-211
38.003,37.96,3.02,2.10,1.24,7.83,0.40,2.38,2.14,2.93,0.22,1127.00,1852.00,131.00,127.00,748.00,1291.00,2139.00,2559.00,,,,,,,,,,,,1,0,2,,196,16512,-944,-39,133,-85
38.066,38.02,3.12,2.87,1.34,-0.10,17.80,4.84,-0.32,3.50,-0.21,1105.00,1791.00,59.00,109.00,817.00,1251.00,2167.00,2531.00,,,,,,,,,,,,1,0,2,,180,16324,-676,-310,-27,-258
38.127,38.07,3.16,3.81,0.29,57.89,-15.72,4.01,0.24,2.98,0.15,1150.00,1775.00,126.00,27.00,805.00,1274.00,2146.00,2559.00,,,,,,,,,,,,1,0,2,,48,16288,-644,-158,-53,-264
38.188,38.13,3.05,3.44,0.45,24.35,-7.66,0.94,3.38,2.57,0.78,1148.00,1794.00,150.00,82.00,718.00,1322.00,2089.00,2557.00,,,,,,,,,,,,1,0,2,,144,16388,-612,-24,-42,-56
38.229,38.18,3.12,2.71,1.68,-5.32,24.15,4.46,0.22,4.53,-0.50,1088.00,1786.00,46.00,113.00,799.00,1252.00,2161.00,2449.00,,,,,,,,,,,,1,0,2,,112,16500,-656,-29,126,-58
38.289,38.24,3.19,4.64,-0.09,36.47,-6.34,4.44,-0.23,3.27,-0.10,1156.00,1735.00,112.00,49.00,819.00,1268.00,2163.00,2546.00,,,,,,,,,,,,1,0,2,,152,16280,-740,-116,217,-238
38.351,38.29,3.16,3.61,-0.04,30.68,-8.90,2.69,1.05,2.80,0.42,1175.00,1805.00,143.00,66.00,789.00,1313.00,2122.00,2559.00,,,,,,,,,,,,1,0,2,,208,16220,-776,-6,43,-110
38.411,38.35,3.16,2.63,0.91,5.90,4.45,3.12,1.43,3.47,0.02,1136.00,1829.00,109.00,123.00,767.00,1278.00,2141.00,2518.00,,,,,,,,,,,,1,0,2,,208,16272,-616,-79,120,-80
38.432,38.40,3.29,3.46,0.66,13.39,6.30,5.75,-0.69,3.92,-0.58,1134.00,1782.00,86.00,87.00,820.00,1219.00,2194.00,2514.00,,,,,,,,,,,,1,0,2,,220,16400,-740,-77,256,-227
38.494,38.46,3.28,4.54,-0.74,40.32,-12.02,3.12,0.65,2.31,0.55,1200.00,1773.00,142.00,49.00,800.00,1305.00,2125.00,2599.00,,,,,,,,,,,,1,0,2,,112,16312,-936,-181,184,-163
38.556,38.51,3.24,2.60,0.92,8.84,-0.49,2.58,1.71,2.86,0.54,1136.00,1831.00,135.00,125.00,763.00,1296.00,2105.00,2544.00,,,,,,,,,,,,1,0,2,,120,16352,-720,-23,213,-92
38.597,38.57,3.33,2.52,1.44,8.99,9.12,4.94,0.11,3.37,-0.12,1106.00,1811.00,80.00,96.00,797.00,1232.00,2161.00,2537.00,,,,,,,,,,,,1,0,2,,188,16388,-832,-179,188,-232
38.66,38.62,3.39,3.86,0.25,45.65,-7.33,4.51,-0.20,3.08,-0.01,1151.00,1773.00,100.00,35.00,817.00,1264.00,2160.00,2559.00,,,,,,,,,,,,1,0,2,,196,16396,-704,-255,39,-238
38.72,38.67,3.33,3.88,-0.04,29.17,-9.40,2.31,2.04,2.53,1.03,1169.00,1786.00,151.00,71.00,753.00,1298.00,2063.00,2544.00,,,,,,,,,,,,1,0,2,,248,16356,-488,-239,-10,-222
38.762,38.73,3.37,2.71,1.58,1.61,14.60,3.96,1.46,4.11,-0.08,1094.00,1791.00,68.00,111.00,754.00,1235.00,2128.00,2462.00,,,,,,,,,,,,1,0,2,,-60,16264,-660,141,96,-146
38.867,38.78,3.46,4.18,0.10,21.76,4.82,5.26,-0.57,3.78,-0.19,1154.00,1758.00,80.00,65.00,822.00,1239.00,2154.00,2502.00,,,,,,,,,,,,1,0,2,,224,16344,-804,-3,257,-196
38.887,38.84,3.39,3.83,0.06,30.48,-8.05,1.98,1.79,2.91,0.33,1164.00,1785.00,137.00,65.00,768.00,1324.00,2128.00,2554.00,,,,,,,,,,,,1,0,2,,224,16252,-876,26,185,-76
38.929,38.90,3.41,2.44,0.98,1.32,5.32,3.87,1.42,3.66,0.24,1136.00,1840.00,113.00,144.00,757.00,1241.00,2109.00,2485.00,,,,,,,,,,,,1,0,2,,128,16292,-788,-141,106,-126
38.99,38.95,3.55,3.63,0.48,12.82,15.78,6.19,-0.75,4.23,-0.80,1142.00,1779.00,52.00,69.00,816.00,1200.00,2208.00,2498.00,,,,,,,,,,,,1,0,2,,176,16516,-828,-129,7,-122
39.071,39.01,3.53,4.51,-0.31,71.10,-22.11,3.25,1.12,2.89,0.27,1173.00,1755.00,140.00,19.00,778.00,1282.00,2135.00,2559.00,,,,,,,,,,,,1,0,2,,264,16400,-676,-110,84,-178
39.092,39.06,3.49,3.17,0.73,14.06,0.87,2.63,1.71,3.11,0.60,1136.00,1799.00,114.00,98.00,762.00,1293.00,2089.00,2515.00,,,,,,,,,,,,1,0,2,,40,16428,-828,-158,154,-218
39.153,39.12,3.56,2.97,1.02,5.23,21.01,4.95,0.64,4.30,-0.37,1122.00,1799.00,45.00,81.00,774.00,1214.00,2155.00,2463.00,,,,,,,,,,,,1,0,2,,64,16264,-896,-87,5,-149
39.234,39.17,3.61,4.42,0.05,50.93,-12.93,4.51,-0.20,3.31,-0.16,1152.00,1744.00,123.00,33.00,817.00,1264.00,2169.00,2547.00,,,,,,,,,,,,1,0,2,,-24,16504,-632,-78,27,-117
39.254,39.23,3.50,3.46,0.45,23.51,-6.88,1.32,3.28,2.67,0.60,1147.00,1792.00,146.00,83.00,717.00,1306.00,2106.00,2559.00,,,,,,,,,,,,1,0,2,,224,16324,-796,-108,283,-213
39.317,39.28,3.54,2.33,1.71,1.12,17.39,4.42,0.97,4.36,-0.44,1094.00,1812.00,59.00,105.00,768.00,1229.00,2160.00,2461.00,,,,,,,,,,,,1,0,2,,36,16492,-752,-194,82,-97
39.38,39.34,3.62,4.20,0.09,22.53,-1.65,5.07,-0.51,3.76,-0.15,1154.00,1757.00,112.00,75.00,822.00,1246.00,2150.00,2501.00,,,,,,,,,,,,1,0,2,,132,16396,-700,-171,30,-151
39.421,39.39,3.57,4.09,-0.14,35.59,-10.69,2.63,0.86,3.19,0.25,1171.00,1776.00,144.00,57.00,798.00,1323.00,2126.00,2531.00,,,,,,,,,,,,1,0,2,,196,16268,-744,32,124,-98
39.483,39.45,3.56,2.92,0.83,4.11,2.52,3.39,1.82,3.70,0.25,1135.00,1812.00,125.00,139.00,747.00,1251.00,2106.00,2480.00,,,,,,,,,,,,1,0,2,,156,16364,-1116,-139,157,-4
39.545,39.50,3.68,3.85,0.84,15.83,12.44,6.01,-0.48,4.59,-0.79,1115.00,1746.00,59.00,67.00,807.00,1200.00,2192.00,2462.00,,,,,,,,,,,,1,0,2,,108,16484,-840,-114,186,-100
39.586,39.56,3.71,4.77,-0.63,73.54,-21.56,4.30,0.37,2.98,0.58,1188.00,1752.00,130.00,17.00,795.00,1255.00,2096.00,2529.00,,,,,,,,,,,,1,0,2,,176,16320,-628,-156,73,-111
39.65,39.61,3.67,3.98,0.51,26.23,-2.89,2.81,2.12,3.52,0.56,1133.00,1753.00,112.00,67.00,743.00,1270.00,2078.00,2477.00,,,,,,,,,,,,1,0,2,,100,16340,-708,38,-1,-83
39.691,39.67,3.76,3.31,0.96,7.06,11.97,5.54,0.21,4.72,-0.36,1119.00,1778.00,71.00,96.00,784.00,1200.00,2137.00,2421.00,,,,,,,,,,,,1,0,2,,176,16352,-692,-77,100,28
39.753,39.72,3.82,4.17,0.39,inf,inf,4.84,-0.61,3.36,0.05,1136.00,1745.00,110.00,0.00,830.00,1261.00,2142.00,2527.00,,,,,,,,,,,,1,0,2,,268,16196,-788,5,210,-128
39.815,39.78,3.75,3.81,0.50,31.29,-9.24,2.46,2.64,2.81,0.63,1137.00,1765.00,144.00,65.00,727.00,1270.00,2097.00,2543.00,,,,,,,,,,,,1,0,2,,120,16252,-748,-43,225,-274
39.856,39.83,3.80,2.65,1.75,-0.79,16.82,4.80,0.53,4.13,-0.38,1085.00,1787.00,63.00,115.00,781.00,1225.00,2162.00,2480.00,,,,,,,,,,,,1,0,2,,264,16448,-708,-241,189,-36
39.959,39.89,3.91,4.18,0.36,26.82,0.34,5.93,-1.02,3.95,-0.36,1138.00,1746.00,93.00,60.00,832.00,1221.00,2167.00,2496.00,,,,,,,,,,,,1,0,2,,148,16380,-852,-9,130,-278
39.979,39.94,3.88,5.26,-1.00,41.14,-16.15,3.38,0.82,2.87,0.52,1201.00,1735.00,175.00,53.00,789.00,1286.00,2107.00,2544.00,,,,,,,,,,,,1,0,2,,248,16404,-776,-276,-88,-171
40.02,40.00,3.86,3.00,0.80,5.52,4.41,3.50,1.94,3.86,0.28,1135.00,1808.00,110.00,125.00,741.00,1242.00,2097.00,2463.00,,,,,,,,,,,,1,0,2,,196,16456,-816,-65,-17,-215
40.081,40.05,3.95,3.75,1.06,13.64,11.96,5.70,0.15,4.92,-0.54,1104.00,1743.00,63.00,74.00,784.00,1194.00,2150.00,2414.00,,,,,,,,,,,,1,0,2,,124,16300,-400,9,94,-68
