Time_Host,Time_Arduino,easingdata,CH1_Oxy,CH1_Deoxy,CH2_Oxy,CH2_Deoxy,CH3_Oxy,CH3_Deoxy,CH4_Oxy,CH4_Deoxy,CH1_PD730,CH1_PD850,CH2_PD730,CH2_PD850,CH3_PD730,CH3_PD850,CH4_PD730,CH4_PD850,Answers,airplane_playstate,trail_times,frameRate,Airplane X,Airplane Y,Correct,Wrong,Slow,AnswerRate,CorrectRate,VFTstates,VFTchoose,VFTCount,Culfstates,ax,ay,az,gx,gy,gz
0.012,45.75,8.52,-2.25,-0.42,11.21,-12.87,8.14,0.39,-7.54,-7.46,194.00,365.00,100.00,85.00,535.00,950.00,797.00,966.00,,,,,,,,,,,,4,0,0,,-1872,16128,-1160,-107,119,-169
1.388,0.04,0.00,0.00,0.00,0.00,0.00,0.00,0.00,0.00,0.00,176.00,384.00,77.00,117.00,499.00,895.00,759.00,903.00,,,,,,,,,,,,0,0,0,,-1980,16172,576,292,144,-156
1.408,0.10,0.00,0.00,0.00,0.00,0.00,0.00,0.00,0.00,0.00,171.00,362.00,58.00,106.00,524.00,869.00,785.00,902.00,,,,,,,,,,,,0,0,0,,-2144,16116,412,271,52,-177
1.428,0.16,0.00,0.00,0.00,0.00,0.00,0.00,0.00,0.00,0.00,180.00,356.00,80.00,80.00,534.00,903.00,779.00,918.00,,,,,,,,,,,,0,0,0,,-2048,16116,320,345,69,-228
1.449,0.21,0.00,0.00,0.00,0.00,0.00,0.00,0.00,0.00,0.00,176.00,366.00,80.00,106.00,493.00,907.00,765.00,929.00,,,,,,,,,,,,0,0,0,,-2272,16068,300,242,32,-226
1.469,0.27,0.00,0.00,0.00,0.00,0.00,0.00,0.00,0.00,0.00,170.00,368.00,55.00,112.00,523.00,885.00,784.00,912.00,,,,,,,,,,,,0,0,0,,-2128,16272,312,163,147,-128
1.489,0.32,0.00,0.00,0.00,0.00,0.00,0.00,0.00,0.00,0.00,177.00,357.00,75.00,83.00,541.00,906.00,801.00,935.00,,,,,,,,,,,,0,0,0,,-2192,16084,300,63,262,-97
1.509,1.07,0.00,0.00,0.00,0.00,0.00,0.00,0.00,0.00,0.00,183.00,357.00,98.00,86.00,533.00,950.00,781.00,954.00,,,,,,,,,,,,0,0,0,,-2064,16128,-108,44,190,-130
1.53,1.13,0.00,0.00,0.00,0.00,0.00,0.00,0.00,0.00,0.00,176.00,370.00,77.00,115.00,511.00,939.00,777.00,945.00,,,,,,,,,,,,0,0,0,,-2160,16116,-32,-73,190,-157
1.572,1.18,0.00,0.00,0.00,0.00,0.00,0.00,0.00,0.00,0.00,175.00,362.00,59.00,118.00,543.00,912.00,796.00,931.00,,,,,,,,,,,,0,0,0,,-2156,16060,-128,-74,193,-96
1.632,1.24,0.00,0.00,0.00,0.00,0.00,0.00,0.00,0.00,0.00,185.00,352.00,80.00,80.00,545.00,945.00,793.00,951.00,,,,,,,,,,,,0,0,0,,-2144,16176,136,29,170,-163
1.694,1.29,-0.08,0.50,-0.59,-1.24,-1.28,-1.66,1.04,-1.16,0.72,181.00,362.00,81.00,109.00,511.00,946.00,768.00,953.00,,,,,,,,,,,,0,0,0,,-2020,16104,-116,108,84,-185
1.735,1.35,-0.07,-0.65,1.73,-8.97,7.49,0.24,-0.27,0.49,-0.23,163.00,356.00,58.00,117.00,530.00,909.00,785.00,916.00,,,,,,,,,,,,0,0,0,,-2176,16188,-100,66,0,-190
1.796,1.40,-0.01,0.59,0.43,3.31,0.42,0.97,-1.10,0.18,-0.34,171.00,351.00,68.00,87.00,547.00,903.00,794.00,930.00,,,,,,,,,,,,0,0,0,,-2164,16080,-24,14,111,-186
1.856,1.46,-0.05,1.49,-1.33,5.51,-6.10,-0.70,0.19,-0.61,0.18,185.00,355.00,93.00,95.00,526.00,932.00,783.00,946.00,,,,,,,,,,,,0,0,0,,-2236,16168,-112,5,191,-175
1.917,1.51,-0.05,-0.49,0.26,-5.91,-0.38,-0.05,0.07,0.26,-0.02,176.00,368.00,84.00,128.00,523.00,911.00,779.00,919.00,,,,,,,,,,,,0,0,0,,-2220,16132,-252,1,234,-130
1.958,1.57,0.03,0.59,-0.10,-2.06,2.78,1.50,-1.54,0.82,-0.77,176.00,356.00,66.00,101.00,555.00,895.00,803.00,917.00,,,,,,,,,,,,0,0,0,,-2100,16264,-224,35,200,-102
2.04,1.62,0.01,2.30,-2.09,10.67,-8.23,-0.36,-0.03,-0.55,0.14,190.00,351.00,95.00,82.00,529.00,925.00,784.00,945.00,,,,,,,,,,,,0,0,0,,-2104,16144,-312,-16,172,-19
2.061,1.68,-0.05,-0.23,0.38,-1.14,-0.37,-1.21,1.18,-0.49,0.52,174.00,363.00,77.00,106.00,503.00,926.00,767.00,933.00,,,,,,,,,,,,0,0,0,,-2012,16260,-68,126,162,-47
2.122,1.73,-0.01,0.02,1.06,-9.06,10.26,0.71,-0.46,0.29,-0.14,167.00,353.00,50.00,109.00,531.00,897.00,784.00,921.00,,,,,,,,,,,,0,0,0,,-2080,16136,-220,43,140,-104
2.164,1.79,-0.01,1.33,-0.46,8.69,-4.39,0.05,-0.72,-0.34,-0.10,177.00,349.00,80.00,80.00,545.00,927.00,791.00,943.00,,,,,,,,,,,,0,0,0,,-2036,16116,-136,127,151,0
2.226,1.84,-0.09,0.41,-0.04,1.61,-4.79,-1.52,1.00,-1.06,0.50,176.00,358.00,93.00,107.00,511.00,942.00,776.00,955.00,,,,,,,,,,,,0,0,0,,-2040,16128,-176,45,307,28
2.287,1.90,-0.11,-0.49,0.26,-16.51,17.36,-0.49,-0.20,-0.62,0.04,176.00,368.00,39.00,121.00,535.00,934.00,789.00,950.00,,,,,,,,,,,,0,0,0,,-2124,16140,-352,8,326,47
2.329,1.95,-0.09,0.32,0.09,0.90,0.70,0.16,-1.33,-0.29,-0.48,175.00,358.00,70.00,95.00,562.00,938.00,807.00,951.00,,,,,,,,,,,,0,0,0,,-1908,16116,-412,89,187,38
2.413,2.01,-0.18,1.65,-1.78,7.19,-8.19,-1.75,0.09,-1.44,0.20,189.00,357.00,101.00,94.00,539.00,974.00,794.00,977.00,,,,,,,,,,,,0,0,0,,-1888,16316,-312,108,115,-61
2.433,2.06,-0.21,-0.95,0.62,-7.67,2.81,-0.91,0.22,-0.77,0.31,174.00,371.00,73.00,126.00,527.00,939.00,780.00,949.00,,,,,,,,,,,,0,0,0,,-1924,16188,-140,26,105,-125
2.496,2.12,-0.14,-0.52,1.02,-5.43,6.30,1.28,-1.30,0.64,-0.71,169.00,361.00,58.00,105.00,550.00,897.00,803.00,922.00,,,,,,,,,,,,0,0,0,,-2100,16196,-324,45,135,-113
2.559,2.17,-0.14,1.97,-1.19,7.88,-4.12,-0.20,-0.19,-0.38,0.08,182.00,347.00,80.00,82.00,532.00,923.00,784.00,940.00,,,,,,,,,,,,0,0,0,,-1992,16172,-204,133,216,-55
2.601,2.23,-0.19,-0.61,0.94,-0.21,-1.39,-1.17,1.24,-0.61,0.66,170.00,363.00,80.00,105.00,501.00,923.00,763.00,934.00,,,,,,,,,,,,0,0,0,,-1908,16192,-540,106,273,47
2.663,2.28,-0.15,6.54,-6.72,-8.47,10.44,0.65,-0.34,0.58,-0.29,226.00,336.00,49.00,106.00,528.00,896.00,786.00,914.00,,,,,,,,,,,,0,0,0,,-1964,16140,-556,83,228,26
2.726,2.34,-0.11,1.34,0.18,7.64,-2.84,0.57,-1.00,-0.28,-0.19,171.00,343.00,75.00,80.00,548.00,915.00,794.00,943.00,,,,,,,,,,,,0,0,0,,-1792,16260,-548,131,109,-8
2.788,2.39,-0.19,0.87,-0.20,5.34,-6.63,-1.55,1.01,-0.73,0.32,176.00,353.00,96.00,97.00,511.00,943.00,779.00,947.00,,,,,,,,,,,,0,0,0,,-1908,16300,-352,19,69,-57
2.85,2.45,-0.18,-1.06,1.09,-8.63,3.64,-0.13,-0.00,-0.20,0.02,170.00,368.00,71.00,128.00,526.00,916.00,784.00,935.00,,,,,,,,,,,,0,0,0,,-1824,16248,-388,-26,128,-153
2.89,2.50,-0.12,0.40,0.60,-1.65,2.93,0.99,-1.54,0.11,-0.53,170.00,352.00,65.00,99.00,560.00,913.00,803.00,937.00,,,,,,,,,,,,0,0,0,,-1820,16116,-424,-41,188,-152
2.973,2.56,-0.17,1.69,-1.09,8.32,-7.82,-1.09,-0.06,-1.20,0.31,182.00,350.00,97.00,89.00,537.00,953.00,786.00,965.00,,,,,,,,,,,,0,0,0,,-1820,16176,-536,-44,136,-128
2.993,2.61,-0.24,-1.24,1.26,-5.36,1.53,-1.45,0.97,-0.50,0.10,169.00,369.00,75.00,119.00,511.00,940.00,785.00,944.00,,,,,,,,,,,,0,0,0,,-1840,16184,-452,-86,127,-112
3.056,2.67,-0.21,0.49,0.57,-6.60,7.67,0.29,-0.87,-0.16,-0.37,170.00,351.00,55.00,106.00,547.00,922.00,800.00,943.00,,,,,,,,,,,,0,0,0,,-1964,16184,-548,-7,113,-180
3.159,2.72,-0.25,1.05,-0.16,6.08,-2.81,-1.08,-0.27,-1.09,0.22,175.00,350.00,77.00,85.00,543.00,958.00,788.00,963.00,,,,,,,,,,,,0,0,0,,-1848,16260,-628,0,99,-222
3.18,2.78,-0.29,0.13,0.05,-1.44,-1.66,-0.96,0.81,-1.15,0.50,176.00,361.00,83.00,111.00,511.00,926.00,777.00,958.00,,,,,,,,,,,,0,0,0,,-1872,16160,-504,-50,74,-297
3.222,2.83,-0.26,-0.86,2.14,-8.69,7.72,0.36,-0.27,0.11,-0.20,160.00,355.00,57.00,115.00,529.00,905.00,789.00,929.00,,,,,,,,,,,,0,0,0,,-2084,16068,-336,1,95,-227
3.263,2.89,-0.16,2.10,-0.40,7.87,-3.65,1.68,-2.80,-0.05,-0.29,174.00,338.00,78.00,81.00,592.00,919.00,795.00,937.00,,,,,,,,,,,,0,0,0,,-2056,16308,-556,66,209,-126
3.325,2.94,-0.21,0.59,0.32,5.68,-6.35,-1.05,0.27,-0.88,0.22,172.00,352.00,94.00,95.00,527.00,943.00,785.00,955.00,,,,,,,,,,,,0,0,0,,-1996,16168,-436,-37,232,-161
3.385,3.00,-0.21,-0.42,0.66,-8.63,3.64,-0.39,0.01,-0.48,0.12,172.00,363.00,71.00,128.00,528.00,925.00,784.00,943.00,,,,,,,,,,,,0,0,0,,-1868,16180,-716,-66,115,-136
3.447,3.05,-0.16,0.40,0.71,-3.84,2.56,0.80,-1.34,0.28,-0.81,169.00,351.00,69.00,109.00,556.00,915.00,813.00,938.00,,,,,,,,,,,,0,0,0,,-1904,16220,-596,-143,13,-195
3.527,3.11,-0.21,2.33,-1.71,7.07,-7.21,-1.00,0.11,-1.08,0.29,186.00,347.00,96.00,92.00,531.00,945.00,785.00,961.00,,,,,,,,,,,,0,0,0,,-1944,16284,-464,-105,69,-196
3.547,3.16,-0.26,0.04,0.19,-2.33,-0.68,-1.30,1.00,-0.71,0.45,175.00,361.00,80.00,112.00,509.00,934.00,773.00,943.00,,,,,,,,,,,,0,0,0,,-1944,16248,-476,63,167,-188
3.609,3.22,-0.23,0.01,1.17,-6.31,7.24,0.41,-0.40,0.30,-0.41,166.00,352.00,56.00,106.00,532.00,906.00,795.00,927.00,,,,,,,,,,,,0,0,0,,-2076,16244,-572,220,152,-164
3.651,3.27,-0.24,1.43,-0.39,9.11,-4.06,-0.51,-0.53,-0.80,0.15,176.00,347.00,78.00,78.00,545.00,943.00,787.00,954.00,,,,,,,,,,,,0,0,0,,-1940,16136,-560,121,106,-166
3.713,3.33,-0.31,0.68,-0.03,1.21,-2.77,-1.66,0.58,-1.26,0.64,175.00,354.00,84.00,103.00,524.00,958.00,773.00,959.00,,,,,,,,,,,,0,0,0,,-2032,16124,-596,6,118,-111
3.776,3.38,-0.32,-1.04,2.09,-9.79,7.45,-0.57,-0.45,-0.32,-0.24,161.00,358.00,59.00,121.00,543.00,943.00,797.00,946.00,,,,,,,,,,,,0,0,0,,-1968,16212,-648,-78,230,-97
3.817,3.44,-0.33,1.05,-0.26,-1.76,-0.17,-0.41,-1.07,-0.49,-0.51,176.00,351.00,77.00,108.00,560.00,953.00,811.00,959.00,,,,,,,,,,,,0,0,0,,-1836,16316,-700,-1,231,-145
3.878,3.49,-0.40,1.33,-0.56,4.18,-6.43,-1.74,0.15,-1.47,0.28,178.00,350.00,97.00,101.00,537.00,972.00,791.00,976.00,,,,,,,,,,,,0,0,0,,-1860,16320,-664,-68,115,-192
3.96,3.55,-0.40,-1.35,1.63,-8.63,3.64,-0.46,0.04,-0.45,0.10,166.00,367.00,71.00,128.00,528.00,927.00,784.00,942.00,,,,,,,,,,,,0,0,0,,-1868,16292,-692,61,60,-216
3.98,3.60,-0.34,1.24,-0.11,-3.72,4.49,0.82,-1.25,0.36,-0.77,174.00,347.00,62.00,103.00,553.00,912.00,810.00,934.00,,,,,,,,,,,,0,0,0,,-1972,16148,-664,-5,47,-227
4.044,3.66,-0.35,2.70,-1.84,9.57,-7.06,-0.46,-0.45,-0.90,0.25,186.00,343.00,91.00,83.00,542.00,939.00,784.00,955.00,,,,,,,,,,,,0,0,0,,-1960,16288,-748,-15,114,-266
4.126,3.71,-0.40,1.15,-0.19,-1.94,-0.58,-1.41,1.00,-0.75,0.47,175.00,349.00,79.00,110.00,510.00,938.00,773.00,944.00,,,,,,,,,,,,0,0,0,,-1996,16292,-732,-46,130,-185
4.147,3.77,-0.36,0.28,1.42,-10.61,11.54,0.44,-0.68,0.17,-0.29,163.00,346.00,48.00,112.00,540.00,912.00,792.00,929.00,,,,,,,,,,,,0,0,0,,-2068,16236,-672,-6,136,-242
4.21,3.82,-0.35,2.63,-1.51,8.90,-4.23,-0.16,-0.65,-0.37,-0.09,183.00,341.00,79.00,79.00,545.00,933.00,791.00,944.00,,,,,,,,,,,,0,0,0,,-1928,16236,-720,-44,143,-186
4.272,3.88,-0.43,0.87,-0.20,1.70,-4.21,-1.90,1.12,-0.87,0.60,176.00,353.00,90.00,105.00,511.00,953.00,769.00,945.00,,,,,,,,,,,,0,0,0,,-1896,16304,-728,56,172,-231
4.334,3.93,-0.45,-0.93,1.82,-7.93,5.32,-0.95,0.20,-0.53,0.06,163.00,359.00,64.00,119.00,528.00,941.00,787.00,946.00,,,,,,,,,,,,0,0,0,,-2008,16188,-880,-52,110,-270
4.375,3.99,-0.43,0.87,0.12,-1.98,1.93,-0.07,-1.21,-0.35,-0.56,173.00,350.00,69.00,103.00,561.00,944.00,811.00,955.00,,,,,,,,,,,,0,0,0,,-2076,16216,-848,-51,59,-203
4.416,4.04,-0.50,2.14,-1.65,6.76,-9.11,-1.69,-0.03,-1.54,0.35,186.00,349.00,107.00,98.00,542.00,975.00,789.00,977.00,,,,,,,,,,,,0,0,0,,-1972,16180,-688,-70,83,-251
4.498,4.10,-0.54,-0.77,0.67,-8.47,2.82,-1.37,0.34,-1.03,0.30,173.00,368.00,74.00,130.00,528.00,953.00,784.00,959.00,,,,,,,,,,,,0,0,0,,-1992,16232,-656,-44,72,-219
4.54,4.15,-0.51,0.02,0.84,-5.83,5.50,-0.01,-1.27,-0.19,-0.63,169.00,355.00,61.00,109.00,562.00,943.00,812.00,951.00,,,,,,,,,,,,0,0,0,,-1948,16348,-792,97,117,-259
4.621,4.21,-0.53,1.05,-0.26,7.88,-4.12,-0.95,-0.32,-1.03,0.18,176.00,351.00,80.00,82.00,543.00,954.00,789.00,962.00,,,,,,,,,,,,0,0,0,,-2184,16164,-804,52,76,-269
4.642,4.26,-0.60,0.03,0.73,-0.73,-0.99,-1.78,1.30,-1.08,0.72,170.00,356.00,79.00,106.00,505.00,944.00,767.00,950.00,,,,,,,,,,,,0,0,0,,-2048,16152,-644,-84,73,-193
4.704,4.32,-0.55,-0.41,2.23,-8.41,8.62,0.37,-0.42,0.32,-0.22,158.00,348.00,54.00,111.00,533.00,908.00,787.00,922.00,,,,,,,,,,,,0,0,0,,-2204,16112,-736,-146,206,-121
4.767,4.37,-0.51,2.11,-0.30,5.91,-2.99,0.17,-0.93,-0.19,-0.36,173.00,337.00,78.00,86.00,550.00,928.00,800.00,944.00,,,,,,,,,,,,0,0,0,,-1976,16196,-676,-81,273,-154
4.828,4.43,-0.56,2.00,-0.58,3.07,-4.05,-1.40,0.39,-1.10,0.32,176.00,341.00,87.00,99.00,527.00,953.00,784.00,961.00,,,,,,,,,,,,0,0,0,,-2112,16160,-728,-47,132,-149
4.869,4.48,-0.56,-0.35,1.07,-10.06,5.76,-0.57,0.07,-0.36,-0.07,168.00,358.00,65.00,128.00,528.00,930.00,790.00,943.00,,,,,,,,,,,,0,0,0,,-2108,16272,-848,54,44,-189
4.931,4.54,-0.50,0.58,0.87,-2.82,3.89,0.67,-1.43,0.24,-0.75,167.00,347.00,63.00,101.00,560.00,922.00,811.00,938.00,,,,,,,,,,,,0,0,0,,-2060,16176,-888,50,59,-211
4.992,4.59,-0.53,2.81,-1.77,8.48,-9.69,-1.07,-0.17,-1.54,0.47,185.00,341.00,107.00,93.00,540.00,955.00,784.00,974.00,,,,,,,,,,,,0,0,0,,-2164,16208,-736,-11,123,-187
5.054,4.65,-0.55,-0.15,0.68,-5.13,2.46,-1.08,0.38,-0.66,0.34,171.00,359.00,71.00,115.00,524.00,941.00,777.00,944.00,,,,,,,,,,,,0,0,0,,-2116,16088,-880,-45,113,-192
5.095,4.70,-0.51,0.96,0.74,-6.61,7.35,0.21,-0.71,-0.20,-0.31,167.00,343.00,56.00,107.00,543.00,921.00,798.00,943.00,,,,,,,,,,,,0,0,0,,-2212,16152,-764,-117,92,-206
5.156,4.76,-0.53,2.19,-0.64,9.29,-5.27,-0.85,-0.42,-0.83,-0.00,176.00,339.00,83.00,80.00,545.00,953.00,794.00,959.00,,,,,,,,,,,,0,0,0,,-2112,16132,-792,-195,98,-162
5.237,4.81,-0.62,0.87,0.33,2.78,-2.86,-2.24,1.24,-1.36,0.74,171.00,348.00,82.00,97.00,511.00,963.00,770.00,960.00,,,,,,,,,,,,0,0,0,,-2096,16288,-868,-64,139,-137
5.258,4.87,-0.61,-0.56,1.70,-9.80,7.77,-0.39,-0.74,-0.13,-0.45,163.00,355.00,58.00,120.00,550.00,944.00,803.00,944.00,,,,,,,,,,,,0,0,0,,-2120,16204,-832,-72,154,-186
5.299,4.92,-0.60,1.34,-0.04,3.64,-1.74,-0.39,-1.14,-0.64,-0.32,173.00,345.00,76.00,91.00,562.00,954.00,805.00,960.00,,,,,,,,,,,,0,0,0,,-2100,16128,-1012,-78,61,-186
5.361,4.98,-0.65,0.96,-0.23,4.01,-6.18,-1.61,0.35,-1.61,0.49,176.00,352.00,96.00,101.00,530.00,962.00,784.00,976.00,,,,,,,,,,,,0,0,0,,-2084,16180,-748,-75,0,-149
5.403,5.03,-0.64,-1.08,1.43,-10.60,4.83,-0.62,0.23,-0.52,0.25,167.00,365.00,69.00,134.00,524.00,928.00,779.00,941.00,,,,,,,,,,,,0,0,0,,-2196,16084,-816,-62,133,-122
5.463,5.09,-0.57,1.05,1.05,-2.63,3.25,0.88,-1.34,0.18,-0.71,164.00,339.00,65.00,102.00,555.00,912.00,810.00,939.00,,,,,,,,,,,,0,0,0,,-2096,16144,-948,-46,173,-139
5.525,5.14,-0.60,3.03,-1.54,9.61,-8.45,-1.23,0.26,-1.07,0.31,182.00,336.00,98.00,86.00,529.00,950.00,784.00,960.00,,,,,,,,,,,,0,0,0,,-2016,16248,-912,-16,135,-102
5.606,5.20,-0.64,-0.45,1.33,-4.10,1.61,-1.41,1.00,-0.64,0.31,166.00,357.00,73.00,113.00,510.00,938.00,778.00,944.00,,,,,,,,,,,,0,0,0,,-1996,16176,-1004,-106,69,-129
5.626,5.25,-0.58,0.85,1.34,-9.31,9.62,0.60,-0.63,0.32,-0.39,162.00,339.00,52.00,112.00,537.00,905.00,794.00,926.00,,,,,,,,,,,,0,0,0,,-2132,16292,-824,-23,128,-105
5.728,5.31,-0.57,2.20,-0.33,8.28,-3.78,-0.46,-0.21,-0.42,0.02,173.00,336.00,78.00,80.00,535.00,933.00,787.00,943.00,,,,,,,,,,,,0,0,0,,-2092,16200,-876,-12,118,-111
5.749,5.36,-0.63,1.53,0.00,-1.63,-1.37,-1.76,1.08,-0.97,0.45,172.00,342.00,82.00,111.00,511.00,949.00,777.00,953.00,,,,,,,,,,,,0,0,0,,-2068,16140,-780,-6,96,-123
5.83,5.42,-0.61,0.29,1.08,-8.73,5.88,-0.24,-0.25,-0.34,-0.10,166.00,349.00,63.00,121.00,534.00,926.00,791.00,943.00,,,,,,,,,,,,0,0,0,,-2068,16132,-968,-103,97,-115
5.85,5.47,-0.59,1.15,0.68,-0.12,1.04,-0.04,-1.26,-0.27,-0.63,167.00,341.00,70.00,98.00,562.00,944.00,813.00,954.00,,,,,,,,,,,,0,0,0,,-2008,16192,-956,-159,130,-104
5.911,5.53,-0.65,2.90,-1.90,5.95,-8.66,-1.84,0.19,-1.57,0.43,186.00,341.00,106.00,100.00,537.00,975.00,786.00,976.00,,,,,,,,,,,,0,0,0,,-2088,16252,-820,-220,183,-41
5.972,5.58,-0.68,-0.70,0.97,-8.36,1.82,-1.25,0.13,-1.05,0.28,170.00,364.00,78.00,133.00,533.00,954.00,785.00,960.00,,,,,,,,,,,,0,0,0,,-1992,16176,-868,-97,188,-82
6.033,5.64,-0.65,0.86,0.88,-5.35,4.46,-0.07,-1.21,-0.00,-0.83,166.00,343.00,64.00,110.00,561.00,944.00,818.00,949.00,,,,,,,,,,,,0,0,0,,-1996,16268,-816,-58,142,-136
6.095,5.69,-0.67,1.97,-1.29,9.11,-7.70,-1.02,-0.33,-0.97,0.04,183.00,348.00,95.00,86.00,544.00,957.00,794.00,963.00,,,,,,,,,,,,0,0,0,,-2020,16252,-808,1,52,-148
6.136,5.75,-0.73,0.19,1.22,-1.64,-0.68,-1.84,1.40,-0.85,0.57,165.00,349.00,79.00,109.00,503.00,944.00,770.00,945.00,,,,,,,,,,,,0,0,0,,-2020,16096,-864,-31,3,-145
6.177,5.80,-0.66,0.26,1.77,-8.11,7.52,0.50,-0.53,0.32,-0.27,160.00,343.00,57.00,113.00,535.00,906.00,789.00,923.00,,,,,,,,,,,,0,0,0,,-1976,16152,-848,-73,146,-177
6.238,5.86,-0.63,0.53,2.02,7.87,-3.65,-0.05,-0.65,-0.45,-0.01,157.00,337.00,78.00,81.00,544.00,929.00,789.00,945.00,,,,,,,,,,,,0,0,0,,-2036,16296,-856,-153,165,-145
6.299,5.91,-0.68,1.34,-0.04,4.03,-6.57,-1.59,1.02,-0.88,0.39,173.00,345.00,98.00,102.00,511.00,944.00,778.00,951.00,,,,,,,,,,,,0,0,0,,-1896,16104,-892,-41,181,-147
6.361,5.97,-0.67,0.49,0.79,-9.04,5.13,-0.40,-0.05,-0.30,-0.11,168.00,349.00,66.00,125.00,530.00,927.00,791.00,942.00,,,,,,,,,,,,0,0,0,,-1924,16176,-1040,7,79,-148
6.402,6.02,-0.61,0.77,0.69,-1.57,0.26,0.45,-1.39,3.60,-1.86,168.00,346.00,75.00,106.00,561.00,929.00,810.00,846.00,,,,,,,,,,,,0,0,0,,-2052,16252,-832,-48,73,-148
6.464,6.08,-0.65,2.65,-1.21,8.25,-8.54,-1.41,0.32,-1.47,0.40,180.00,338.00,101.00,91.00,529.00,955.00,786.00,973.00,,,,,,,,,,,,0,0,0,,-1988,16244,-908,-35,113,-154
6.526,6.13,-0.69,-0.56,1.70,-7.82,1.87,-1.52,1.00,-0.61,0.18,163.00,355.00,77.00,130.00,511.00,942.00,783.00,946.00,,,,,,,,,,,,0,0,0,,-2088,16176,-940,-60,134,-133
6.568,6.19,-0.64,1.24,0.87,-4.92,5.20,0.42,-0.98,-0.03,-0.55,165.00,338.00,61.00,106.00,549.00,920.00,806.00,943.00,,,,,,,,,,,,0,0,0,,-2016,16168,-748,-129,119,-111
6.629,6.24,-0.65,2.68,-0.81,8.08,-4.41,-0.85,-0.39,-0.85,0.03,176.00,334.00,81.00,82.00,544.00,952.00,793.00,959.00,,,,,,,,,,,,0,0,0,,-1964,16224,-912,-166,183,-112
6.69,6.30,-0.73,1.44,0.14,-1.93,-1.27,-2.24,1.24,-1.28,0.62,171.00,342.00,82.00,112.00,511.00,963.00,774.00,960.00,,,,,,,,,,,,0,0,0,,-2012,16192,-980,-49,181,-132
6.73,6.35,-0.71,0.18,1.45,-8.97,7.18,-0.35,-0.69,-0.21,-0.33,163.00,347.00,59.00,118.00,548.00,941.00,799.00,944.00,,,,,,,,,,,,0,0,0,,-1980,16272,-860,-37,164,-150
6.833,6.41,-0.71,2.48,-0.74,4.79,-2.61,-0.72,-0.96,-0.79,-0.18,176.00,336.00,78.00,89.00,560.00,962.00,801.00,962.00,,,,,,,,,,,,0,0,0,,-2020,16260,-884,-24,130,-199
6.855,6.46,-0.77,1.24,-0.32,1.61,-4.79,-1.84,0.15,-0.92,0.22,176.00,349.00,93.00,107.00,538.00,976.00,786.00,957.00,,,,,,,,,,,,0,0,0,,-1960,16208,-972,-65,52,-208
6.917,6.52,-0.75,0.22,0.55,-8.44,3.06,-0.52,-0.09,-0.45,0.10,171.00,355.00,73.00,129.00,532.00,932.00,784.00,942.00,,,,,,,,,,,,0,0,0,,-2084,16216,-864,-15,123,-196
6.979,6.57,-0.69,1.44,0.80,-7.20,9.27,0.61,-1.38,0.09,-0.72,165.00,336.00,51.00,104.00,559.00,923.00,812.00,943.00,,,,,,,,,,,,0,0,0,,-2004,16252,-980,26,166,-182
7.0,6.63,-0.72,3.00,-1.84,8.65,-8.31,-1.26,0.31,-1.42,0.48,185.00,339.00,99.00,89.00,528.00,950.00,782.00,969.00,,,,,,,,,,,,0,0,0,,-1984,16144,-912,-71,130,-183
7.062,6.68,-0.75,0.40,0.38,-4.93,0.90,-1.48,0.98,-0.68,0.32,172.00,354.00,77.00,119.00,511.00,941.00,778.00,945.00,,,,,,,,,,,,0,0,0,,-2012,16268,-1036,6,134,-214
7.124,6.74,-0.69,1.24,0.87,-6.07,6.20,0.47,-0.73,0.23,-0.38,165.00,338.00,59.00,108.00,541.00,912.00,795.00,929.00,,,,,,,,,,,,0,0,0,,-2056,16156,-956,-20,77,-198
7.206,6.79,-0.66,2.68,-0.81,8.08,-3.95,-0.10,-0.50,-0.78,0.00,176.00,334.00,79.00,81.00,540.00,927.00,793.00,957.00,,,,,,,,,,,,0,0,0,,-2000,16192,-988,26,96,-222
7.226,6.85,-0.72,2.10,-0.61,0.62,-1.90,-1.83,1.10,-1.03,0.68,176.00,340.00,81.00,103.00,511.00,951.00,768.00,949.00,,,,,,,,,,,,0,0,0,,-2160,16172,-1036,45,90,-233
7.287,6.90,-0.69,0.76,1.26,-8.11,7.52,-0.03,-0.53,-0.08,-0.32,163.00,341.00,57.00,113.00,540.00,925.00,797.00,939.00,,,,,,,,,,,,0,0,0,,-2088,16156,-1056,54,36,-207
7.328,6.96,-0.66,2.48,-0.74,1.46,-0.51,-0.10,-1.17,-0.51,-0.32,176.00,336.00,74.00,96.00,560.00,944.00,803.00,955.00,,,,,,,,,,,,0,0,0,,-2068,16156,-1052,-161,61,-208
7.389,7.01,-0.73,2.19,-0.64,6.16,-7.84,-2.03,0.32,-1.66,0.49,176.00,339.00,101.00,97.00,535.00,979.00,785.00,978.00,,,,,,,,,,,,0,0,0,,-2104,16180,-852,-163,99,-190
7.45,7.07,-0.77,-0.14,0.25,-8.89,3.73,-1.55,0.26,-0.79,-0.01,175.00,363.00,71.00,129.00,532.00,962.00,794.00,958.00,,,,,,,,,,,,0,0,0,,-2024,16256,-892,-145,97,-159
7.512,7.12,-0.74,1.53,0.33,-5.45,3.92,-0.18,-1.21,-0.25,-0.86,169.00,339.00,66.00,112.00,562.00,948.00,823.00,959.00,,,,,,,,,,,,0,0,0,,-2104,16284,-884,-22,115,-186
7.554,7.18,-0.79,3.08,-2.06,7.40,-7.70,-1.68,-0.27,-1.48,0.15,187.00,340.00,98.00,92.00,549.00,981.00,797.00,980.00,,,,,,,,,,,,0,0,0,,-2128,16204,-964,53,144,-218
7.615,7.23,-0.82,1.25,0.42,-2.33,-0.68,-1.56,0.58,-0.97,0.40,169.00,342.00,80.00,112.00,523.00,954.00,779.00,954.00,,,,,,,,,,,,0,0,0,,-2164,16172,-1060,-14,28,-210
7.676,7.29,-0.76,0.35,1.85,-8.71,9.07,0.41,-0.64,0.34,-0.42,159.00,341.00,53.00,111.00,539.00,912.00,795.00,926.00,,,,,,,,,,,,0,0,0,,-2168,16204,-980,-14,56,-183
7.737,7.34,-0.73,2.40,-0.29,9.30,-4.82,-0.08,-0.81,-0.25,-0.03,172.00,333.00,81.00,79.00,549.00,934.00,787.00,938.00,,,,,,,,,,,,0,0,0,,-2156,16108,-1048,-114,146,-152
7.778,7.40,-0.79,1.83,0.23,2.10,-3.72,-1.93,1.14,-0.89,0.56,169.00,336.00,87.00,102.00,511.00,954.00,771.00,947.00,,,,,,,,,,,,0,0,0,,-2056,16328,-980,-152,164,-126
7.86,7.45,-0.78,0.95,1.19,-9.30,5.22,-0.61,0.02,-0.48,0.07,163.00,339.00,66.00,126.00,530.00,933.00,786.00,944.00,,,,,,,,,,,,0,0,0,,-2060,16276,-1000,-98,116,-167
7.923,7.51,-0.72,1.83,0.23,-0.43,0.37,0.41,-1.41,0.07,-0.69,169.00,336.00,73.00,101.00,562.00,931.00,811.00,943.00,,,,,,,,,,,,0,0,0,,-2108,16176,-948,-36,53,-144
7.966,7.56,-0.80,2.94,-1.41,7.24,-7.46,-2.41,0.31,-1.01,0.27,181.00,336.00,97.00,92.00,539.00,994.00,785.00,959.00,,,,,,,,,,,,0,0,0,,-2020,16280,-1072,-18,96,-149
8.006,7.62,-0.83,0.11,1.03,-6.97,2.07,-1.41,0.96,-0.64,0.31,167.00,352.00,75.00,125.00,511.00,939.00,778.00,944.00,,,,,,,,,,,,0,0,0,,-2048,16104,-1020,-25,167,-184
8.048,7.67,-0.77,1.34,0.84,-4.52,5.68,0.54,-1.32,0.20,-0.74,165.00,337.00,59.00,103.00,558.00,924.00,811.00,939.00,,,,,,,,,,,,0,0,0,,-2152,16116,-1296,-65,74,-147
8.111,7.73,-0.78,2.58,-0.77,8.69,-4.39,-0.98,-0.27,-0.84,0.10,176.00,335.00,80.00,80.00,542.00,954.00,790.00,957.00,,,,,,,,,,,,0,0,0,,-2116,16292,-1148,-166,120,-141
8.152,7.78,-0.84,1.34,-0.04,-1.44,-1.66,-2.14,1.20,-1.14,0.57,173.00,345.00,83.00,111.00,511.00,960.00,774.00,956.00,,,,,,,,,,,,0,0,0,,-2104,16144,-916,-179,177,-156
8.233,7.84,-0.82,0.94,1.42,-9.92,10.18,-0.35,-0.48,-0.23,-0.30,161.00,337.00,51.00,113.00,542.00,936.00,798.00,944.00,,,,,,,,,,,,0,0,0,,-2120,16148,-1132,-40,97,-131
8.313,7.89,-0.83,1.92,0.09,5.53,-2.86,-1.03,-0.86,-0.86,-0.22,170.00,336.00,78.00,87.00,560.00,971.00,804.00,966.00,,,,,,,,,,,,0,0,0,,-2112,16188,-1008,-42,103,-185
8.334,7.95,-0.89,2.09,-0.71,1.39,-4.11,-2.08,0.17,-1.49,0.24,177.00,341.00,90.00,106.00,540.00,985.00,793.00,978.00,,,,,,,,,,,,0,0,0,,-2068,16220,-1156,-3,127,-211
8.375,8.00,-0.84,1.15,0.24,-9.85,4.58,0.25,-1.81,-0.69,-0.05,171.00,345.00,69.00,131.00,576.00,947.00,794.00,955.00,,,,,,,,,,,,0,0,0,,-2020,16200,-1104,-77,75,-210
8.436,8.06,-0.77,1.63,0.40,-0.49,1.98,0.49,-1.37,0.13,-0.83,168.00,337.00,67.00,97.00,560.00,927.00,816.00,944.00,,,,,,,,,,,,0,0,0,,-2160,16172,-928,-27,55,-147
8.499,8.11,-0.80,4.06,-2.39,10.22,-8.46,-1.42,0.22,-1.48,0.45,187.00,330.00,97.00,84.00,532.00,958.00,784.00,972.00,,,,,,,,,,,,0,0,0,,-2124,16192,-1020,-18,157,-105
8.56,8.17,-0.83,0.49,0.57,-6.34,2.36,-1.45,1.01,-0.61,0.30,170.00,351.00,73.00,121.00,510.00,939.00,778.00,943.00,,,,,,,,,,,,0,0,0,,-2112,16184,-1172,-113,149,-113
8.601,8.22,-0.79,1.43,1.03,-5.15,5.89,-0.05,-0.45,0.19,-0.32,163.00,334.00,59.00,105.00,538.00,924.00,793.00,929.00,,,,,,,,,,,,0,0,0,,-2076,16260,-1044,-26,125,-144
8.662,8.28,-0.79,3.57,-1.11,9.11,-4.06,-0.73,-0.29,-0.64,0.08,176.00,325.00,78.00,78.00,540.00,945.00,788.00,950.00,,,,,,,,,,,,0,0,0,,-2156,16124,-1100,-14,147,-121
8.725,8.33,-0.84,1.92,-0.02,-0.21,-1.39,-1.79,1.09,-0.94,0.62,171.00,337.00,80.00,105.00,511.00,950.00,769.00,947.00,,,,,,,,,,,,0,0,0,,-2080,16192,-1084,-99,81,-141
8.766,8.39,-0.80,0.95,1.31,-9.87,9.46,-0.07,-0.31,0.13,-0.23,162.00,338.00,53.00,115.00,534.00,921.00,790.00,929.00,,,,,,,,,,,,0,0,0,,-1988,16180,-968,-32,86,-158
8.828,8.44,-0.77,2.49,-0.64,1.82,0.13,-0.18,-0.98,-0.37,-0.36,175.00,335.00,71.00,93.00,555.00,942.00,803.00,951.00,,,,,,,,,,,,0,0,0,,-2136,16152,-1164,-76,27,-131
8.889,8.50,-0.82,2.67,-0.91,5.00,-6.51,-1.81,0.11,-1.24,0.30,177.00,335.00,96.00,98.00,539.00,976.00,787.00,967.00,,,,,,,,,,,,0,0,0,,-2096,16204,-1068,-66,105,-104
8.951,8.55,-0.84,0.68,0.51,-7.96,2.65,-1.23,0.26,-0.62,-0.00,170.00,349.00,74.00,128.00,529.00,950.00,791.00,951.00,,,,,,,,,,,,0,0,0,,-2128,16248,-1216,-86,228,-62
9.034,8.61,-0.80,1.63,0.51,-4.07,2.91,0.12,-1.57,-0.08,-0.76,167.00,336.00,68.00,109.00,570.00,946.00,816.00,950.00,,,,,,,,,,,,0,0,0,,-2012,16220,-1256,-11,158,-73
9.053,8.66,-0.84,3.12,-1.67,7.64,-6.82,-1.64,-0.22,-1.49,0.24,183.00,336.00,93.00,89.00,547.00,978.00,793.00,978.00,,,,,,,,,,,,0,0,0,,-1976,16236,-1268,-17,122,-113
9.096,8.72,-0.91,1.44,0.14,-3.45,0.64,-2.27,0.79,-1.31,0.39,171.00,342.00,76.00,113.00,524.00,976.00,784.00,967.00,,,,,,,,,,,,0,0,0,,-1996,16292,-1216,-42,127,-183
9.158,8.77,-0.87,0.95,1.31,-9.63,10.09,-0.19,-0.61,-0.11,-0.36,162.00,338.00,51.00,112.00,544.00,933.00,799.00,941.00,,,,,,,,,,,,0,0,0,,-2088,16080,-1128,-119,81,-171
9.199,8.83,-0.85,3.69,-0.94,9.32,-3.89,-0.42,-0.66,-0.48,-0.05,174.00,322.00,77.00,77.00,548.00,943.00,791.00,947.00,,,,,,,,,,,,0,0,0,,-2076,16292,-1100,-82,121,-111
9.262,8.88,-0.90,1.15,0.13,1.21,-3.84,-1.76,1.08,-1.33,0.73,172.00,346.00,89.00,106.00,511.00,949.00,770.00,959.00,,,,,,,,,,,,0,0,0,,-1972,16244,-1188,-69,198,-148
9.325,8.94,-0.89,1.63,0.19,-7.93,5.32,-0.73,-0.01,-0.52,0.13,170.00,339.00,64.00,119.00,532.00,938.00,784.00,944.00,,,,,,,,,,,,0,0,0,,-1984,16180,-1120,-96,214,-100
9.408,8.99,-0.84,2.02,-0.05,-1.90,2.18,0.02,-1.31,-0.35,-0.56,171.00,336.00,68.00,102.00,563.00,943.00,811.00,955.00,,,,,,,,,,,,0,0,0,,-1988,16248,-1176,-31,237,-86
9.428,9.05,-0.90,3.34,-1.44,7.22,-7.83,-1.96,0.43,-1.48,0.50,180.00,331.00,99.00,93.00,531.00,973.00,782.00,971.00,,,,,,,,,,,,0,0,0,,-2032,16180,-1212,-113,170,-85
9.491,9.10,-0.91,0.30,0.96,-8.63,3.64,-1.15,0.37,-0.55,0.14,167.00,350.00,71.00,128.00,525.00,944.00,784.00,945.00,,,,,,,,,,,,0,0,0,,-2088,16196,-1136,-164,188,-116
9.553,9.16,-0.88,2.11,-0.08,-5.83,5.50,-0.33,-0.32,0.27,-0.76,171.00,335.00,61.00,109.00,537.00,931.00,811.00,937.00,,,,,,,,,,,,0,0,0,,-1972,16296,-1180,-44,160,-200
9.616,9.21,-0.89,3.95,-1.55,10.27,-6.26,-1.06,-0.35,-1.05,0.21,179.00,324.00,86.00,79.00,545.00,959.00,788.00,962.00,,,,,,,,,,,,0,0,0,,-2020,16156,-1248,-44,60,-212
9.676,9.27,-0.93,1.81,-0.41,-1.74,-0.88,-1.77,0.58,-1.20,0.62,175.00,342.00,80.00,110.00,525.00,962.00,773.00,957.00,,,,,,,,,,,,0,0,0,,-2200,16152,-1120,-109,41,-182
9.779,9.32,-0.91,1.14,1.24,-10.21,10.28,-0.47,-0.55,-0.15,-0.42,162.00,336.00,51.00,114.00,545.00,942.00,802.00,944.00,,,,,,,,,,,,0,0,0,,-1960,16180,-1044,-89,119,-179
9.799,9.38,-0.92,2.97,-0.91,6.29,-3.11,-1.06,-0.88,-0.95,-0.22,176.00,331.00,78.00,85.00,561.00,973.00,805.00,969.00,,,,,,,,,,,,0,0,0,,-2044,16056,-1192,-43,85,-166
9.841,9.43,-0.99,1.90,-0.55,-3.57,-3.24,-2.30,0.10,-1.75,0.28,176.00,342.00,94.00,126.00,544.00,995.00,795.00,987.00,,,,,,,,,,,,0,0,0,,-2048,16264,-1208,-64,130,-174
9.881,9.49,-1.00,1.15,-0.29,-8.61,1.90,-1.33,-0.22,-0.77,-0.16,176.00,350.00,78.00,134.00,544.00,966.00,800.00,961.00,,,,,,,,,,,,0,0,0,,-2080,16168,-1160,-109,77,-228
9.942,9.54,-0.95,2.12,0.13,-0.92,1.85,0.09,-1.30,-0.04,-0.82,169.00,333.00,68.00,99.00,562.00,940.00,818.00,950.00,,,,,,,,,,,,0,0,0,,-2092,16220,-1212,-143,51,-185
10.003,9.60,-0.97,4.29,-2.17,6.87,-7.71,-1.34,-0.08,-1.40,0.19,184.00,325.00,99.00,94.00,540.00,963.00,794.00,976.00,,,,,,,,,,,,0,0,0,,-2036,16140,-1324,-283,-33,-241
10.044,9.65,-1.00,1.44,0.04,-3.32,0.12,-1.66,1.04,-0.76,0.21,172.00,343.00,78.00,114.00,511.00,946.00,784.00,951.00,,,,,,,,,,,,0,0,0,,-2116,16116,-1040,-165,-8,-246
10.127,9.71,-0.93,1.73,0.93,-7.51,7.98,0.38,-0.97,0.02,-0.47,163.00,331.00,55.00,109.00,549.00,921.00,802.00,939.00,,,,,,,,,,,,0,0,0,,-2084,16176,-888,-13,89,-147
10.147,9.76,-0.93,3.50,-0.76,10.78,-7.47,-0.92,-0.36,-0.77,-0.09,173.00,323.00,91.00,80.00,544.00,954.00,797.00,959.00,,,,,,,,,,,,0,0,0,,-2116,16128,-1312,75,172,-183
10.209,9.82,-1.01,1.63,0.63,-0.52,-1.29,-2.44,1.31,-1.26,0.64,166.00,335.00,80.00,106.00,511.00,969.00,773.00,959.00,,,,,,,,,,,,0,0,0,,-1980,16156,-1144,-27,125,-135
10.251,9.87,-0.98,1.24,1.21,-7.59,6.10,-0.44,-0.32,-0.21,-0.33,162.00,335.00,61.00,115.00,538.00,935.00,799.00,944.00,,,,,,,,,,,,0,0,0,,-2152,16224,-1280,-116,127,-159
10.314,9.93,-0.95,2.97,-0.91,1.80,-0.63,-0.34,-1.09,-0.57,-0.39,176.00,331.00,74.00,95.00,560.00,951.00,807.00,959.00,,,,,,,,,,,,0,0,0,,-2132,16152,-1260,-231,125,-159
10.356,9.98,-1.00,3.07,-1.04,2.43,-5.65,-1.96,0.02,-1.53,0.30,177.00,331.00,96.00,106.00,543.00,984.00,791.00,978.00,,,,,,,,,,,,0,0,0,,-2020,16144,-1204,-244,123,-154
10.418,10.04,-1.03,1.34,-0.25,-7.74,2.33,-1.53,0.12,-0.91,0.00,175.00,347.00,75.00,128.00,536.00,965.00,795.00,962.00,,,,,,,,,,,,0,0,0,,-1944,16216,-1164,-211,70,-162
10.52,10.09,-1.00,2.21,-0.12,-4.45,4.15,-0.54,-1.16,-0.47,-0.65,171.00,334.00,64.00,107.00,564.00,960.00,817.00,962.00,,,,,,,,,,,,0,0,0,,-2072,16288,-1132,-55,52,-191
10.541,10.15,-1.07,3.21,-1.71,7.93,-8.07,-2.46,0.12,-1.91,0.29,183.00,335.00,99.00,91.00,545.00,1001.00,797.00,993.00,,,,,,,,,,,,0,0,0,,-2148,16100,-1128,9,100,-236
10.582,10.20,-1.13,0.77,0.37,-4.09,0.62,-2.23,0.46,-1.32,0.26,171.00,349.00,77.00,116.00,533.00,983.00,790.00,971.00,,,,,,,,,,,,0,0,0,,-2032,16192,-1188,-68,117,-222
10.644,10.26,-1.08,1.24,1.21,-9.63,10.09,-0.02,-0.90,-0.04,-0.50,162.00,335.00,51.00,112.00,551.00,934.00,804.00,942.00,,,,,,,,,,,,0,0,0,,-2188,16100,-1216,-140,106,-133
10.706,10.31,-1.05,3.29,-0.80,6.68,-3.24,-0.47,-0.98,-0.73,-0.15,174.00,326.00,78.00,84.00,558.00,953.00,799.00,959.00,,,,,,,,,,,,0,0,0,,-2108,16208,-1136,-92,127,-131
10.768,10.37,-1.10,2.30,-0.47,3.50,-5.42,-2.04,1.17,-1.28,0.67,174.00,336.00,93.00,101.00,511.00,957.00,772.00,959.00,,,,,,,,,,,,0,0,0,,-2016,16260,-1320,39,107,-181
10.81,10.42,-1.08,1.04,1.27,-7.93,5.32,-0.88,-0.07,-0.73,0.08,162.00,337.00,64.00,119.00,535.00,945.00,789.00,953.00,,,,,,,,,,,,0,0,0,,-2128,16196,-1224,-17,38,-183
10.893,10.48,-1.03,1.83,0.56,-0.22,0.81,-0.03,-1.36,-0.39,-0.66,166.00,333.00,71.00,99.00,565.00,946.00,816.00,959.00,,,,,,,,,,,,0,0,0,,-2052,16240,-1108,-58,48,-253
10.913,10.53,-1.08,2.87,-0.98,6.01,-7.23,-1.99,0.41,-1.47,0.21,177.00,333.00,98.00,96.00,532.00,975.00,794.00,978.00,,,,,,,,,,,,0,0,0,,-2120,16152,-1216,-130,55,-201
10.975,10.59,-1.09,0.67,0.84,-7.32,1.70,-1.26,0.31,0.49,-0.28,167.00,346.00,77.00,128.00,528.00,950.00,787.00,917.00,,,,,,,,,,,,0,0,0,,-2124,16128,-1236,-103,89,-156
11.017,10.64,-1.01,1.63,0.96,-6.05,6.51,0.42,-1.35,0.10,-0.82,163.00,332.00,58.00,107.00,560.00,929.00,816.00,945.00,,,,,,,,,,,,0,0,0,,-2184,16212,-1212,-42,98,-150
11.077,10.70,-1.02,3.36,-1.24,8.26,-5.58,-1.15,-0.25,-1.24,0.07,178.00,329.00,86.00,84.00,543.00,960.00,797.00,973.00,,,,,,,,,,,,0,0,0,,-2196,16160,-1200,-41,62,-125
11.18,10.75,-1.08,2.39,-0.61,-2.74,-0.08,-2.14,0.71,-1.58,0.53,175.00,336.00,78.00,112.00,525.00,973.00,782.00,974.00,,,,,,,,,,,,0,0,0,,-2112,16260,-1108,-30,199,-104
11.242,10.81,-1.04,1.34,0.95,-9.63,10.09,-0.38,-0.88,-0.36,-0.35,164.00,336.00,51.00,112.00,554.00,947.00,802.00,950.00,,,,,,,,,,,,0,0,0,,-2088,16168,-1300,-125,250,-76
11.263,10.86,-1.05,3.07,-0.94,4.06,-2.36,-1.13,-0.83,-1.15,-0.26,176.00,330.00,78.00,91.00,560.00,974.00,810.00,978.00,,,,,,,,,,,,0,0,0,,-1976,16108,-1012,-148,221,-81
11.304,10.92,-1.12,2.39,-0.61,-1.24,-1.95,-2.58,0.30,-1.65,0.13,175.00,336.00,84.00,111.00,541.00,1001.00,800.00,987.00,,,,,,,,,,,,0,0,0,,-2080,16280,-1064,120,206,-186
11.366,10.97,-1.15,1.15,0.24,-11.56,5.42,-1.58,-0.00,-1.09,-0.01,171.00,345.00,68.00,137.00,540.00,970.00,798.00,969.00,,,,,,,,,,,,0,0,0,,-2084,16288,-1228,254,99,-184
11.428,11.03,-1.08,2.32,0.06,-15.38,20.63,0.10,-1.47,-1.47,0.95,169.00,331.00,32.00,106.00,567.00,944.00,763.00,959.00,,,,,,,,,,,,0,0,0,,-2080,16040,-1148,100,81,-140
11.47,11.08,-1.11,3.62,-1.74,9.30,-9.26,-1.52,-0.06,-1.53,0.30,182.00,330.00,103.00,89.00,541.00,969.00,791.00,978.00,,,,,,,,,,,,0,0,0,,-2092,16056,-1120,-78,158,-122
11.532,11.14,-1.13,1.06,0.38,-6.54,1.44,-1.59,0.59,-1.09,0.34,170.00,345.00,77.00,125.00,523.00,955.00,783.00,960.00,,,,,,,,,,,,0,0,0,,-2000,16176,-1284,-129,176,-184
11.594,11.19,-1.08,1.63,0.51,-8.40,8.28,-0.16,-0.68,-0.36,-0.23,167.00,336.00,55.00,112.00,546.00,934.00,797.00,947.00,,,,,,,,,,,,0,0,0,,-2104,16232,-1256,-74,122,-102
11.635,11.25,-1.08,3.96,-1.45,5.81,-0.15,-0.98,-0.31,-0.86,-0.04,178.00,323.00,67.00,80.00,543.00,955.00,796.00,961.00,,,,,,,,,,,,0,0,0,,-2208,16188,-1188,129,87,-201
11.675,11.30,-1.15,2.48,-0.74,-1.74,-0.88,-2.54,1.34,-1.43,0.70,176.00,336.00,80.00,110.00,511.00,972.00,773.00,964.00,,,,,,,,,,,,0,0,0,,-2152,16124,-1240,174,62,-192
11.777,11.36,-1.11,1.83,0.34,-11.06,10.57,-0.27,-0.68,-0.38,-0.15,168.00,335.00,51.00,117.00,547.00,938.00,794.00,946.00,,,,,,,,,,,,0,0,0,,-2148,16176,-1432,88,91,-205
11.798,11.41,-1.08,3.07,-0.94,2.31,-1.77,-0.49,-1.11,-0.78,-0.23,176.00,330.00,78.00,96.00,562.00,957.00,803.00,963.00,,,,,,,,,,,,0,0,0,,-2136,16136,-1428,15,109,-176
11.86,11.47,-1.13,2.76,-1.15,0.96,-5.54,-2.26,0.16,-1.75,0.28,179.00,336.00,98.00,112.00,542.00,992.00,795.00,987.00,,,,,,,,,,,,0,0,0,,-2124,16168,-1300,-151,110,-119
11.922,11.52,-1.16,1.15,-0.29,-9.64,3.98,-1.68,0.10,-1.07,0.08,176.00,350.00,71.00,132.00,538.00,971.00,794.00,966.00,,,,,,,,,,,,0,0,0,,-2156,16224,-1364,-290,181,-105
11.984,11.58,-1.13,1.63,0.19,-3.20,3.73,-0.57,-1.15,-0.74,-0.67,170.00,339.00,64.00,103.00,564.00,961.00,822.00,973.00,,,,,,,,,,,,0,0,0,,-2088,16256,-1292,-202,121,-120
12.025,11.63,-1.18,3.64,-2.45,9.07,-8.07,-2.15,-0.18,-2.31,0.36,189.00,336.00,97.00,87.00,551.00,997.00,800.00,1007.00,,,,,,,,,,,,0,0,0,,-2116,16268,-1264,28,106,-144
12.088,11.69,-1.24,2.19,-0.64,-3.60,0.21,-2.33,0.46,-1.61,0.49,176.00,339.00,78.00,115.00,534.00,987.00,784.00,976.00,,,,,,,,,,,,0,0,0,,-2188,16180,-1324,-28,145,-137
12.15,11.74,-1.20,1.92,0.31,-9.60,9.72,-0.39,-0.71,-0.34,-0.26,168.00,334.00,52.00,113.00,549.00,943.00,798.00,947.00,,,,,,,,,,,,0,0,0,,-2104,16056,-1412,-136,116,-145
12.213,11.80,-1.17,3.78,-1.18,7.68,-3.81,-0.65,-0.72,-0.86,-0.04,176.00,323.00,79.00,82.00,552.00,953.00,796.00,961.00,,,,,,,,,,,,0,0,0,,-2112,16248,-1308,-105,172,-106
12.234,11.85,-1.21,2.48,-0.74,-0.38,-2.89,-2.04,0.67,-1.63,0.83,176.00,336.00,87.00,110.00,525.00,970.00,770.00,968.00,,,,,,,,,,,,0,0,0,,-2020,16180,-1376,-107,206,-78
12.336,11.91,-1.20,2.02,-0.05,-9.25,7.91,-0.90,-0.26,-0.86,0.08,171.00,336.00,57.00,117.00,541.00,951.00,791.00,958.00,,,,,,,,,,,,0,0,0,,-1944,16320,-1292,-90,149,-95
12.356,11.96,-1.15,2.30,-0.47,-1.88,0.36,-0.32,-1.16,-1.09,-0.30,174.00,336.00,75.00,107.00,562.00,952.00,811.00,977.00,,,,,,,,,,,,0,0,0,,-1992,16228,-1428,25,141,-141
12.397,12.02,-1.19,3.93,-2.54,5.95,-8.66,-1.89,0.00,-1.92,0.39,189.00,333.00,106.00,100.00,543.00,982.00,793.00,991.00,,,,,,,,,,,,0,0,0,,-2068,16172,-1464,12,60,-167
12.458,12.07,-1.20,1.15,-0.29,-8.78,2.44,-1.44,0.36,-1.22,0.27,176.00,350.00,76.00,133.00,528.00,955.00,788.00,967.00,,,,,,,,,,,,0,0,0,,-2048,16248,-1428,-3,72,-191
12.521,12.13,-1.15,2.21,-0.22,-7.54,7.01,-0.07,-1.18,-0.19,-0.74,172.00,335.00,58.00,112.00,560.00,943.00,817.00,954.00,,,,,,,,,,,,0,0,0,,-1956,16188,-1440,-38,139,-155
12.583,12.18,-1.16,3.51,-1.81,9.15,-7.32,-1.33,-0.22,-1.38,0.11,183.00,332.00,93.00,85.00,544.00,966.00,797.00,977.00,,,,,,,,,,,,0,0,0,,-2128,16116,-1344,-87,99,-149
12.644,12.24,-1.21,2.11,-0.30,-2.12,-0.98,-2.17,0.72,-1.55,0.52,173.00,337.00,81.00,112.00,525.00,974.00,782.00,973.00,,,,,,,,,,,,0,0,0,,-2072,16168,-1420,-193,104,-140
12.707,12.29,-1.19,2.22,0.21,-10.71,9.74,-0.93,-0.46,-0.67,-0.24,168.00,331.00,53.00,118.00,547.00,957.00,802.00,959.00,,,,,,,,,,,,0,0,0,,-2100,16220,-1424,-139,163,-116
12.728,12.35,-1.20,3.46,-1.18,5.53,-2.86,-1.39,-0.74,-1.31,-0.09,177.00,327.00,78.00,87.00,560.00,982.00,805.00,980.00,,,,,,,,,,,,0,0,0,,-2000,16256,-1216,-46,155,-160
12.79,12.40,-1.30,3.02,-1.64,-0.06,-4.03,-3.17,0.40,-2.07,0.60,183.00,337.00,92.00,112.00,544.00,1022.00,786.00,991.00,,,,,,,,,,,,0,0,0,,-1972,16288,-1384,-46,110,-200
12.831,12.46,-1.31,2.00,-0.68,-9.85,4.58,-1.40,0.01,-1.05,0.10,177.00,342.00,69.00,131.00,538.00,963.00,793.00,965.00,,,,,,,,,,,,0,0,0,,-2004,16044,-1284,-49,38,-220
12.892,12.51,-1.24,2.59,-0.67,-3.81,1.51,-0.04,-1.26,-0.35,-0.67,175.00,334.00,73.00,112.00,562.00,944.00,816.00,958.00,,,,,,,,,,,,0,0,0,,-2072,16168,-1344,-87,79,-223
12.954,12.57,-1.27,4.06,-2.39,7.28,-9.11,-1.72,-0.02,-1.63,0.29,187.00,330.00,106.00,96.00,542.00,976.00,793.00,982.00,,,,,,,,,,,,0,0,0,,-2112,16172,-1280,-127,134,-189
13.015,12.62,-1.27,1.43,-0.39,-6.44,0.70,-1.33,0.36,-1.07,0.31,176.00,347.00,80.00,127.00,527.00,951.00,784.00,960.00,,,,,,,,,,,,0,0,0,,-1996,16360,-1332,-83,79,-179
13.128,12.68,-1.22,2.41,-0.18,-5.83,5.50,-0.35,-0.72,-0.19,-0.47,171.00,332.00,61.00,109.00,549.00,942.00,805.00,947.00,,,,,,,,,,,,0,0,0,,-2140,16168,-1544,40,61,-213
13.15,12.73,-1.14,3.97,-1.35,7.88,-4.57,0.38,-0.80,-0.89,-0.03,177.00,322.00,82.00,83.00,544.00,917.00,796.00,962.00,,,,,,,,,,,,0,0,0,,-2168,16176,-1492,20,143,-145
13.19,12.79,-1.18,2.75,-1.25,-4.86,0.17,-1.90,0.69,-1.44,0.63,180.00,337.00,80.00,121.00,523.00,964.00,776.00,966.00,,,,,,,,,,,,0,0,0,,-2096,16272,-1388,-3,123,-203
13.232,12.84,-1.15,1.14,1.13,-10.66,9.04,-0.47,-0.55,-0.29,-0.25,163.00,337.00,55.00,120.00,545.00,942.00,797.00,945.00,,,,,,,,,,,,0,0,0,,-2136,16160,-1544,-43,161,-200
13.273,12.90,-1.12,3.16,-1.18,2.99,-0.78,-0.62,-1.03,-1.05,-0.18,178.00,331.00,73.00,91.00,561.00,960.00,805.00,972.00,,,,,,,,,,,,0,0,0,,-2140,16160,-1300,-69,125,-170
13.336,12.95,-1.18,3.04,-1.44,1.74,-4.63,-2.27,0.06,-2.03,0.47,181.00,335.00,92.00,106.00,545.00,995.00,791.00,993.00,,,,,,,,,,,,0,0,0,,-2168,16120,-1436,-178,92,-153
13.397,13.01,-1.20,1.70,-0.79,-9.70,3.24,-1.72,0.01,-1.34,0.05,179.00,347.00,74.00,135.00,541.00,975.00,799.00,977.00,,,,,,,,,,,,0,0,0,,-2044,16340,-1400,-128,160,-128
13.438,13.06,-1.18,2.38,-0.81,-2.46,1.57,-0.79,-1.36,-0.70,-0.84,177.00,338.00,71.00,106.00,573.00,975.00,829.00,976.00,,,,,,,,,,,,0,0,0,,-2044,16224,-1256,-65,186,-156
13.52,13.12,-1.22,4.24,-3.23,7.03,-7.95,-1.88,-0.51,-2.21,0.32,195.00,335.00,100.00,94.00,558.00,995.00,800.00,1004.00,,,,,,,,,,,,0,0,0,,-2088,16216,-1516,-136,142,-202
13.563,13.17,-1.25,1.62,-0.45,-5.54,0.87,-1.83,0.71,-1.33,0.42,176.00,345.00,78.00,122.00,522.00,961.00,783.00,967.00,,,,,,,,,,,,0,0,0,,-1976,16156,-1388,-168,58,-198
13.623,13.23,-1.18,2.22,0.10,-6.97,6.50,0.13,-0.92,-0.29,-0.21,169.00,332.00,59.00,111.00,550.00,929.00,795.00,944.00,,,,,,,,,,,,0,0,0,,-2124,16164,-1396,-118,116,-177
13.686,13.28,-1.17,3.07,-0.94,8.49,-4.09,-0.98,-0.31,-0.99,0.12,176.00,330.00,79.00,80.00,543.00,955.00,791.00,962.00,,,,,,,,,,,,0,0,0,,-2208,16228,-1288,-63,191,-154
13.726,13.34,-1.22,2.38,-0.81,-0.32,-1.59,-2.21,1.23,-1.68,0.71,177.00,338.00,81.00,106.00,511.00,962.00,776.00,973.00,,,,,,,,,,,,0,0,0,,-2180,16204,-1424,-87,129,-159
13.809,13.39,-1.20,1.73,0.05,-7.35,5.42,-0.74,-0.35,-0.62,-0.24,171.00,339.00,63.00,116.00,542.00,947.00,801.00,957.00,,,,,,,,,,,,0,0,0,,-2104,16208,-1408,13,62,-243
13.83,13.45,-1.15,2.86,-1.08,0.34,-2.92,-0.31,-1.10,-0.66,-0.40,178.00,334.00,86.00,107.00,560.00,950.00,809.00,963.00,,,,,,,,,,,,0,0,0,,-2080,16108,-1336,-69,100,-179
13.893,13.50,-1.21,3.76,-2.29,5.33,-7.38,-2.18,0.58,-1.74,0.42,187.00,333.00,100.00,99.00,529.00,978.00,789.00,983.00,,,,,,,,,,,,0,0,0,,-2112,16196,-1376,-103,129,-188
13.954,13.56,-1.21,0.41,-0.46,-9.64,3.98,-1.32,0.08,-1.01,0.15,180.00,362.00,71.00,132.00,535.00,958.00,790.00,962.00,,,,,,,,,,,,0,0,0,,-2192,16252,-1576,-100,171,-215
14.014,13.61,-1.14,2.78,-0.84,-5.91,4.93,0.14,-1.61,-0.75,-0.58,176.00,333.00,63.00,111.00,571.00,946.00,818.00,971.00,,,,,,,,,,,,0,0,0,,-2168,16140,-1536,-99,55,-151
14.055,13.67,-1.17,3.76,-2.29,8.73,-7.57,-1.64,-0.22,-1.81,0.26,187.00,333.00,95.00,87.00,547.00,978.00,797.00,990.00,,,,,,,,,,,,0,0,0,,-2136,16180,-1360,-103,105,-158
14.097,13.72,-1.22,2.39,-0.71,-2.33,-0.68,-2.21,0.69,-1.74,0.54,176.00,337.00,80.00,112.00,526.00,976.00,784.00,980.00,,,,,,,,,,,,0,0,0,,-2152,16112,-1492,-113,194,-127
14.179,13.78,-1.19,1.92,-0.02,-11.30,10.29,-0.70,-0.81,-1.67,0.85,171.00,337.00,52.00,119.00,555.00,957.00,770.00,969.00,,,,,,,,,,,,0,0,0,,-2072,16204,-1420,-205,200,-164
14.221,13.83,-1.21,2.67,-1.01,6.70,-3.72,-1.43,-0.73,-1.50,-0.01,178.00,336.00,80.00,85.00,560.00,983.00,804.00,985.00,,,,,,,,,,,,0,0,0,,-2168,16140,-1324,-223,116,-174
14.282,13.89,-1.25,2.48,-0.74,0.65,-4.06,-2.15,0.60,-1.80,0.70,176.00,336.00,91.00,109.00,528.00,976.00,778.00,978.00,,,,,,,,,,,,0,0,0,,-2196,16216,-1228,-144,72,-173
14.385,13.94,-1.24,2.01,-0.37,-8.27,4.59,-0.97,0.03,-0.89,0.09,174.00,339.00,67.00,123.00,533.00,946.00,791.00,959.00,,,,,,,,,,,,0,0,0,,-2332,16188,-1144,-109,164,-132
14.406,14.00,-1.18,3.07,-1.04,-2.14,2.53,-0.07,-1.21,-2.88,0.18,177.00,331.00,67.00,102.00,561.00,944.00,816.00,1035.00,,,,,,,,,,,,0,0,0,,-2136,16260,-1232,8,229,-117
14.447,14.05,-1.23,4.02,-2.67,6.16,-7.84,-2.09,0.51,-1.76,0.52,190.00,333.00,101.00,97.00,530.00,976.00,785.00,981.00,,,,,,,,,,,,0,0,0,,-2136,16200,-1328,19,139,-99
14.548,14.11,-1.23,1.43,-0.28,-7.82,1.87,-1.39,0.42,-1.10,0.27,175.00,346.00,77.00,130.00,526.00,952.00,786.00,962.00,,,,,,,,,,,,0,0,0,,-2092,16208,-1452,14,111,-188
14.568,14.16,-1.17,3.07,-0.94,-6.70,6.10,0.12,-1.15,-0.11,-0.59,176.00,330.00,60.00,111.00,557.00,935.00,809.00,947.00,,,,,,,,,,,,0,0,0,,-2156,16080,-1380,-97,108,-176
14.609,14.22,-1.17,3.55,-1.41,5.20,-3.21,-1.22,-0.19,-1.36,0.20,179.00,328.00,80.00,89.00,542.00,961.00,793.00,974.00,,,,,,,,,,,,0,0,0,,-2116,16152,-1492,-75,124,-180
14.67,14.27,-1.22,2.78,-0.84,-2.95,0.23,-2.13,1.27,-1.50,0.60,176.00,333.00,77.00,112.00,509.00,958.00,778.00,969.00,,,,,,,,,,,,0,0,0,,-2072,16176,-1460,-56,113,-173
14.712,14.33,-1.18,1.34,0.61,-10.57,11.14,-0.45,-0.42,-0.30,-0.39,167.00,339.00,49.00,113.00,541.00,938.00,803.00,949.00,,,,,,,,,,,,0,0,0,,-2184,16236,-1532,5,74,-197
14.772,14.38,-1.16,3.34,-1.44,2.50,-0.86,-0.71,-0.87,-0.96,-0.24,180.00,331.00,74.00,93.00,557.00,959.00,806.00,970.00,,,,,,,,,,,,0,0,0,,-2184,16092,-1228,-63,96,-129
14.833,14.44,-1.22,2.48,-0.74,-0.23,-2.07,-2.47,0.47,-2.07,0.60,176.00,336.00,83.00,107.00,535.00,992.00,786.00,991.00,,,,,,,,,,,,0,0,0,,-2144,16180,-1380,-107,165,-58
14.915,14.49,-1.29,1.90,-0.55,-8.78,2.44,-2.58,1.35,-1.38,0.11,176.00,342.00,76.00,133.00,511.00,973.00,797.00,977.00,,,,,,,,,,,,0,0,0,,-2124,16200,-1412,-103,222,-70
14.936,14.55,-1.26,2.39,-0.71,-3.22,1.31,-0.78,-1.30,-1.04,-0.46,176.00,337.00,73.00,110.00,571.00,973.00,817.00,979.00,,,,,,,,,,,,0,0,0,,-2012,16152,-1424,-25,100,-151
14.997,14.60,-1.32,3.80,-2.79,4.20,-7.18,-2.37,0.37,-2.04,0.40,192.00,337.00,101.00,103.00,537.00,991.00,794.00,995.00,,,,,,,,,,,,0,0,0,,-2116,16192,-1416,-75,-18,-195
15.061,14.66,-1.31,1.81,-0.51,-7.49,2.25,-1.09,0.25,-1.20,0.36,176.00,343.00,75.00,127.00,528.00,945.00,784.00,964.00,,,,,,,,,,,,0,0,0,,-2144,16200,-1400,-93,96,-149
15.101,14.71,-1.25,2.79,-0.53,-4.16,5.87,-0.15,-0.59,-0.46,-0.20,173.00,330.00,58.00,101.00,543.00,931.00,797.00,950.00,,,,,,,,,,,,0,0,0,,-2192,16148,-1416,-12,174,-68
15.163,14.77,-1.24,4.54,-1.95,8.28,-4.71,-1.02,-0.02,-1.32,0.26,181.00,320.00,82.00,82.00,535.00,949.00,790.00,971.00,,,,,,,,,,,,0,0,0,,-2096,16148,-1328,-105,164,-89
15.204,14.82,-1.29,2.48,-0.74,-2.15,-0.27,-2.30,1.40,-1.65,0.62,176.00,336.00,78.00,110.00,507.00,961.00,779.00,974.00,,,,,,,,,,,,0,0,0,,-2180,16172,-1504,-31,247,1
15.286,14.88,-1.23,2.30,-0.47,-8.97,7.81,-0.14,-0.52,-0.60,0.01,174.00,336.00,57.00,116.00,541.00,929.00,790.00,950.00,,,,,,,,,,,,0,0,0,,-2056,16156,-1468,-94,267,-30
15.307,14.93,-1.19,3.96,-1.45,3.07,-1.30,-0.34,-1.06,-1.02,-0.03,178.00,323.00,75.00,92.00,559.00,950.00,798.00,967.00,,,,,,,,,,,,0,0,0,,-2088,16224,-1472,-100,194,-51
15.369,14.99,-1.22,4.01,-1.97,3.65,-5.27,-1.90,0.31,-1.64,0.39,183.00,327.00,92.00,100.00,534.00,974.00,789.00,980.00,,,,,,,,,,,,0,0,0,,-1964,16080,-1540,-50,161,-53
15.431,15.04,-1.24,1.62,-0.55,-8.04,2.19,-1.55,0.33,-1.45,0.30,177.00,346.00,76.00,130.00,530.00,960.00,790.00,975.00,,,,,,,,,,,,0,0,0,,-1992,16160,-1480,-107,79,-123
15.493,15.10,-1.19,2.76,-1.15,-2.38,1.80,-0.14,-1.39,-0.56,-0.71,179.00,336.00,70.00,105.00,567.00,951.00,821.00,967.00,,,,,,,,,,,,0,0,0,,-2100,16168,-1392,-128,90,-131
15.532,15.15,-1.21,3.93,-2.54,6.35,-7.35,-1.76,-0.04,-2.08,0.40,189.00,333.00,98.00,95.00,543.00,978.00,795.00,997.00,,,,,,,,,,,,0,0,0,,-2104,16172,-1380,-151,195,-77
15.595,15.21,-1.26,1.51,-0.83,-5.39,0.35,-2.18,0.65,-1.60,0.26,180.00,350.00,80.00,123.00,527.00,976.00,794.00,982.00,,,,,,,,,,,,0,0,0,,-2016,16232,-1340,-33,199,-77
15.696,15.26,-1.22,2.49,-0.64,-10.57,11.14,-0.45,-1.06,-0.97,-0.25,175.00,335.00,49.00,113.00,560.00,954.00,807.00,971.00,,,,,,,,,,,,0,0,0,,-2036,16292,-1548,16,192,-60
15.716,15.32,-1.22,6.92,-3.55,8.28,-4.25,-1.25,-0.69,-1.38,-0.07,189.00,304.00,80.00,81.00,557.00,975.00,805.00,982.00,,,,,,,,,,,,0,0,0,,-1940,16160,-1576,-76,171,-127
15.758,15.37,-1.27,3.28,-0.90,-2.33,-0.68,-2.21,1.23,-1.40,0.56,175.00,327.00,80.00,112.00,511.00,962.00,778.00,966.00,,,,,,,,,,,,0,0,0,,-1864,16176,-1388,-114,104,-100
15.819,15.43,-1.25,1.92,0.09,-11.80,10.11,-0.77,-0.10,-0.55,-0.09,170.00,336.00,53.00,122.00,535.00,942.00,794.00,951.00,,,,,,,,,,,,0,0,0,,-1924,16236,-1420,-100,160,-131
15.881,15.48,-1.20,3.28,-0.90,-2.46,1.57,-0.28,-0.91,-0.77,-0.32,175.00,327.00,71.00,106.00,554.00,944.00,807.00,965.00,,,,,,,,,,,,0,0,0,,-1944,16312,-1448,-75,127,-218
15.943,15.54,-1.24,4.11,-2.01,4.51,-6.54,-2.00,0.38,-2.12,0.64,183.00,326.00,97.00,100.00,533.00,976.00,785.00,992.00,,,,,,,,,,,,0,0,0,,-1972,16204,-1512,-7,93,-139
16.023,15.59,-1.24,1.80,-0.82,-9.14,3.81,-1.37,0.34,-1.45,0.37,179.00,346.00,71.00,130.00,528.00,953.00,787.00,973.00,,,,,,,,,,,,0,0,0,,-2020,16180,-1396,-9,83,-221
16.044,15.65,-1.17,2.61,-0.25,-3.20,3.73,0.19,-1.37,0.65,-1.71,171.00,330.00,64.00,103.00,563.00,938.00,848.00,947.00,,,,,,,,,,,,0,0,0,,-1876,16180,-1576,-128,88,-192
16.084,15.70,-1.19,5.88,-3.59,10.05,-8.21,-1.57,0.10,-1.59,0.28,193.00,317.00,96.00,84.00,537.00,967.00,793.00,981.00,,,,,,,,,,,,0,0,0,,-1968,16236,-1596,-31,140,-188
16.147,15.76,-1.24,2.10,-0.61,-3.74,0.74,-2.21,1.23,-1.57,0.62,176.00,340.00,76.00,114.00,511.00,962.00,778.00,971.00,,,,,,,,,,,,0,0,0,,-1996,16204,-1540,-85,111,-237
16.207,15.81,-1.21,2.58,-0.77,-9.98,10.95,-0.48,-0.61,-0.85,0.03,176.00,335.00,49.00,111.00,547.00,944.00,793.00,959.00,,,,,,,,,,,,0,0,0,,-2124,16136,-1504,-27,97,-192
16.287,15.87,-1.21,4.66,-2.59,6.47,-2.94,-1.26,-0.52,-1.31,-0.14,187.00,324.00,77.00,84.00,552.00,971.00,807.00,981.00,,,,,,,,,,,,0,0,0,,-2008,16052,-1452,-95,66,-211
16.307,15.92,-1.28,3.35,-2.35,-0.24,-3.76,-2.56,0.64,-2.23,0.92,189.00,339.00,91.00,112.00,531.00,991.00,775.00,989.00,,,,,,,,,,,,0,0,0,,-1960,16160,-1516,-119,76,-211
16.368,15.98,-1.29,1.44,0.14,-10.57,6.80,-1.56,-0.14,-1.30,0.04,171.00,342.00,62.00,127.00,544.00,973.00,799.00,976.00,,,,,,,,,,,,0,0,0,,-2044,16188,-1568,-134,127,-247
16.43,16.03,-1.26,1.61,-0.76,-1.36,-0.06,-0.68,-1.34,-1.06,-0.43,179.00,348.00,76.00,106.00,571.00,970.00,816.00,979.00,,,,,,,,,,,,0,0,0,,-1964,16208,-1492,-212,11,-281
16.511,16.09,-1.30,4.78,-3.12,6.73,-9.44,-2.05,0.19,-2.05,0.50,192.00,327.00,109.00,99.00,539.00,983.00,790.00,993.00,,,,,,,,,,,,0,0,0,,-2180,16192,-1412,-129,47,-202
16.531,16.14,-1.30,1.62,-0.45,-9.91,3.81,-1.30,0.32,-1.03,0.25,176.00,345.00,72.00,134.00,528.00,951.00,786.00,960.00,,,,,,,,,,,,0,0,0,,-2124,16148,-1284,-102,166,-183
16.592,16.20,-1.22,3.27,-1.01,-6.13,5.61,0.33,-1.25,-0.42,-0.64,176.00,328.00,61.00,110.00,558.00,930.00,816.00,960.00,,,,,,,,,,,,0,0,0,,-2060,16220,-1596,-38,229,-145
16.652,16.25,-1.20,4.78,-3.12,10.78,-7.47,-0.92,-0.39,-1.45,0.37,192.00,327.00,91.00,80.00,545.00,955.00,787.00,973.00,,,,,,,,,,,,0,0,0,,-1988,16152,-1404,-102,136,-172
16.754,16.31,-1.25,2.48,-0.74,-2.33,-0.68,-2.10,1.19,-1.52,0.63,176.00,336.00,80.00,112.00,511.00,959.00,777.00,969.00,,,,,,,,,,,,0,0,0,,-2128,16104,-1532,-94,46,-203
16.774,16.36,-1.20,2.71,-0.28,-10.15,9.55,-0.31,-0.46,-0.34,-0.21,171.00,329.00,53.00,116.00,541.00,934.00,796.00,946.00,,,,,,,,,,,,0,0,0,,-2136,16180,-1508,-210,37,-229
16.815,16.42,-1.17,3.87,-1.31,4.95,-2.42,-0.52,-0.86,-1.18,-0.02,177.00,323.00,77.00,88.00,555.00,952.00,800.00,973.00,,,,,,,,,,,,0,0,0,,-2120,16248,-1388,-119,90,-240
16.876,16.47,-1.22,2.75,-1.25,0.77,-3.90,-2.15,0.60,-1.75,0.59,180.00,337.00,90.00,108.00,528.00,976.00,782.00,979.00,,,,,,,,,,,,0,0,0,,-2084,16236,-1500,-23,73,-265
16.917,16.53,-1.23,2.48,-0.84,-8.25,2.50,-1.56,-0.08,-1.13,0.17,177.00,337.00,75.00,130.00,542.00,971.00,791.00,966.00,,,,,,,,,,,,0,0,0,,-2168,16156,-1592,-94,8,-199
16.958,16.58,-1.19,2.29,-0.68,-1.90,2.18,-0.34,-1.45,-0.77,-0.55,176.00,338.00,68.00,102.00,571.00,960.00,817.00,971.00,,,,,,,,,,,,0,0,0,,-2164,16096,-1536,-194,72,-188
17.019,16.64,-1.25,4.91,-4.10,5.64,-8.21,-2.34,0.01,-2.26,0.48,202.00,334.00,104.00,100.00,547.00,999.00,794.00,1002.00,,,,,,,,,,,,0,0,0,,-2088,16164,-1312,-284,197,-103
17.12,16.69,-1.29,1.32,-0.97,-7.62,1.56,-2.19,0.55,-1.98,0.62,182.00,354.00,78.00,130.00,530.00,979.00,784.00,987.00,,,,,,,,,,,,0,0,0,,-2048,16212,-1404,-324,281,-114
17.142,16.75,-1.26,2.59,-0.57,-6.99,6.20,-0.69,-0.97,-0.71,-0.68,174.00,333.00,60.00,112.00,560.00,961.00,822.00,972.00,,,,,,,,,,,,0,0,0,,-1992,16232,-1408,-117,154,-193
17.182,16.80,-1.26,4.13,-2.61,7.48,-3.98,-1.17,-0.41,-1.42,0.10,189.00,331.00,80.00,83.00,548.00,965.00,798.00,979.00,,,,,,,,,,,,0,0,0,,-2040,16224,-1396,-47,-97,-262
17.244,16.86,-1.31,2.78,-0.84,-1.93,-1.27,-2.30,1.33,-1.63,0.91,176.00,333.00,82.00,112.00,509.00,963.00,767.00,966.00,,,,,,,,,,,,0,0,0,,-2152,16096,-1224,1,-49,-265
17.304,16.91,-1.26,2.11,-0.08,-13.34,12.08,-0.30,-0.37,-0.40,-0.12,171.00,335.00,49.00,123.00,538.00,931.00,793.00,946.00,,,,,,,,,,,,0,0,0,,-2124,16072,-1280,-62,83,-200
17.346,16.97,-1.22,3.20,-0.56,3.94,-1.35,-0.52,-0.86,-0.97,-0.07,172.00,325.00,74.00,89.00,555.00,952.00,799.00,966.00,,,,,,,,,,,,0,0,0,,-2220,16012,-1380,-165,183,-161
17.409,17.02,-1.26,3.71,-1.87,-1.34,-2.13,-2.06,0.47,-1.59,0.46,183.00,330.00,85.00,112.00,531.00,976.00,785.00,976.00,,,,,,,,,,,,0,0,0,,-2260,16240,-1596,-139,130,-177
17.512,17.08,-1.26,2.47,-0.95,-10.60,4.83,-1.08,0.00,-1.10,0.27,178.00,338.00,69.00,134.00,535.00,951.00,786.00,962.00,,,,,,,,,,,,0,0,0,,-2172,16204,-1348,-32,95,-155
17.554,17.13,-1.19,2.87,-0.98,-3.83,3.94,0.08,-1.36,-0.45,-0.52,177.00,333.00,64.00,105.00,564.00,942.00,811.00,958.00,,,,,,,,,,,,0,0,0,,-2180,16164,-1376,-22,122,-159
17.575,17.19,-1.22,4.61,-2.87,5.68,-6.74,-1.77,0.17,-1.77,0.50,190.00,327.00,96.00,96.00,537.00,973.00,786.00,982.00,,,,,,,,,,,,0,0,0,,-2008,16264,-1484,31,157,-203
17.617,17.24,-1.24,1.71,-0.59,-4.93,0.90,-1.57,0.41,-1.23,0.51,177.00,345.00,77.00,119.00,528.00,959.00,778.00,961.00,,,,,,,,,,,,0,0,0,,-2156,15976,-1560,-132,31,-186
17.679,17.30,-1.20,2.40,-0.50,-6.93,7.13,-0.53,-0.66,-0.73,-0.15,174.00,335.00,57.00,109.00,549.00,947.00,799.00,959.00,,,,,,,,,,,,0,0,0,,-2216,16156,-1320,-113,94,-154
17.741,17.35,-1.20,4.46,-2.52,7.88,-4.12,-1.18,-0.71,-1.68,0.26,187.00,326.00,80.00,82.00,557.00,973.00,795.00,985.00,,,,,,,,,,,,0,0,0,,-2184,16072,-1428,-154,215,-100
17.864,17.41,-1.26,2.83,-1.48,-2.27,0.25,-2.48,0.72,-2.12,0.83,182.00,338.00,76.00,109.00,528.00,986.00,777.00,987.00,,,,,,,,,,,,0,0,0,,-2140,16232,-1448,-110,124,-73
17.885,17.46,-1.26,1.90,-0.55,-11.40,8.31,-1.13,-0.33,-0.91,0.00,176.00,342.00,58.00,126.00,545.00,961.00,795.00,962.00,,,,,,,,,,,,0,0,0,,-2172,16212,-1496,-74,86,-122
17.906,17.52,-1.25,3.56,-1.31,0.22,0.93,-1.06,-0.88,-1.14,-0.08,178.00,327.00,70.00,97.00,561.00,973.00,802.00,973.00,,,,,,,,,,,,0,0,0,,-2136,16200,-1520,-104,138,-150
17.947,17.57,-1.28,3.89,-2.82,2.79,-4.37,-1.89,0.03,-1.52,0.26,192.00,336.00,89.00,101.00,542.00,981.00,793.00,979.00,,,,,,,,,,,,0,0,0,,-2216,16064,-1204,-130,125,-116
18.009,17.63,-1.28,1.71,-0.69,-9.57,5.03,-1.25,0.13,-1.12,0.30,178.00,346.00,67.00,128.00,533.00,954.00,785.00,962.00,,,,,,,,,,,,0,0,0,,-2024,16188,-1260,-71,234,-94
18.069,17.68,-1.21,3.84,-1.61,-4.09,4.32,0.08,-1.40,-0.37,-0.64,180.00,326.00,63.00,105.00,565.00,943.00,815.00,958.00,,,,,,,,,,,,0,0,0,,-2088,16180,-1376,-48,195,-96
18.109,17.74,-1.18,4.97,-3.28,9.72,-9.04,-0.56,-0.14,-1.72,0.39,193.00,326.00,101.00,87.00,534.00,935.00,790.00,983.00,,,,,,,,,,,,0,0,0,,-1976,16184,-1624,-30,144,-120
18.274,17.79,-1.23,1.71,-0.59,-7.96,2.65,-2.21,1.23,-1.11,0.37,177.00,345.00,74.00,128.00,511.00,962.00,782.00,960.00,,,,,,,,,,,,0,0,0,,-2108,16060,-1532,-47,71,-142
18.294,17.85,-1.18,5.70,-1.51,-9.33,9.99,-0.19,-0.64,-0.44,-0.11,173.00,302.00,51.00,111.00,545.00,934.00,793.00,947.00,,,,,,,,,,,,0,0,0,,-2048,16212,-1440,-41,32,-152
18.315,17.90,-1.17,4.62,-2.08,7.86,-3.16,-0.98,-0.31,-1.23,0.20,182.00,320.00,76.00,80.00,543.00,955.00,791.00,969.00,,,,,,,,,,,,0,0,0,,-2016,16244,-1496,-5,93,-163
18.356,17.96,-1.24,2.48,-0.74,-2.33,-0.68,-2.65,1.37,-1.71,0.84,176.00,336.00,80.00,112.00,511.00,975.00,771.00,971.00,,,,,,,,,,,,0,0,0,,-2100,16192,-1556,16,102,-191
18.398,18.01,-1.21,1.73,0.05,-10.43,9.65,-0.62,-0.53,-0.89,0.09,171.00,339.00,53.00,117.00,546.00,947.00,791.00,959.00,,,,,,,,,,,,0,0,0,,-2000,16060,-1744,-43,57,-184
18.46,18.07,-1.19,3.53,-1.61,0.01,-0.28,-0.74,-1.06,-1.26,-0.02,181.00,330.00,75.00,101.00,563.00,965.00,801.00,976.00,,,,,,,,,,,,0,0,0,,-2188,16208,-1484,-175,116,-145
18.522,18.12,-1.25,3.83,-2.51,3.54,-6.21,-2.42,0.18,-2.04,0.34,189.00,334.00,97.00,103.00,543.00,998.00,797.00,997.00,,,,,,,,,,,,0,0,0,,-2024,16152,-1464,-176,190,-131
18.583,18.18,-1.28,0.96,-0.33,-10.38,4.23,-1.94,0.22,-1.36,0.13,177.00,353.00,71.00,135.00,537.00,978.00,796.00,976.00,,,,,,,,,,,,0,0,0,,-2080,16204,-1260,-184,176,-95
18.623,18.23,-1.25,3.03,-1.54,-4.91,3.46,-0.60,-1.30,-0.81,-0.65,182.00,336.00,67.00,111.00,569.00,966.00,822.00,975.00,,,,,,,,,,,,0,0,0,,-2036,16356,-1404,-206,166,-170
18.664,18.29,-1.27,5.00,-3.67,7.76,-7.82,-1.65,-0.32,-1.75,0.28,197.00,329.00,98.00,91.00,550.00,981.00,795.00,987.00,,,,,,,,,,,,0,0,0,,-2092,16172,-1460,-172,39,-208
18.726,18.34,-1.28,2.58,-0.88,-3.16,0.54,-1.57,0.44,-1.52,0.75,177.00,336.00,76.00,112.00,527.00,958.00,772.00,966.00,,,,,,,,,,,,0,0,0,,-2124,16196,-1288,-99,79,-162
18.788,18.40,-1.22,3.19,-0.77,-9.00,9.17,-0.06,-0.51,-0.29,-0.21,174.00,327.00,53.00,112.00,540.00,926.00,795.00,944.00,,,,,,,,,,,,0,0,0,,-2052,16204,-1212,-59,133,-188
18.85,18.45,-1.21,5.32,-3.11,7.07,-3.38,-0.96,-0.42,-1.07,0.13,190.00,320.00,78.00,83.00,546.00,957.00,792.00,965.00,,,,,,,,,,,,0,0,0,,-2100,16196,-1552,-80,40,-192
18.913,18.51,-1.26,3.03,-1.54,-1.34,-1.47,-2.24,0.71,-1.53,0.49,182.00,336.00,82.00,110.00,526.00,977.00,783.00,973.00,,,,,,,,,,,,0,0,0,,-2160,16260,-1520,30,7,-256
18.953,18.56,-1.24,2.39,-0.71,-9.54,5.86,-0.89,-0.13,-0.97,0.16,176.00,337.00,64.00,125.00,537.00,947.00,789.00,960.00,,,,,,,,,,,,0,0,0,,-2076,16084,-1492,41,36,-197
19.015,18.62,-1.20,2.48,-0.74,-0.97,0.81,-0.41,-1.07,-0.72,-0.36,176.00,336.00,72.00,102.00,560.00,953.00,808.00,964.00,,,,,,,,,,,,0,0,0,,-2264,16332,-1500,-19,127,-169
19.076,18.67,-1.26,3.81,-2.70,5.49,-7.62,-2.30,0.45,-1.85,0.50,191.00,336.00,101.00,99.00,534.00,986.00,787.00,985.00,,,,,,,,,,,,0,0,0,,-2156,16160,-1648,13,203,-153
19.118,18.73,-1.27,2.35,-1.32,-8.75,2.67,-1.50,0.14,-1.18,0.21,182.00,343.00,75.00,132.00,535.00,963.00,790.00,967.00,,,,,,,,,,,,0,0,0,,-2064,16076,-1620,-49,128,-149
19.199,18.78,-1.23,2.48,-0.74,-3.72,4.49,-0.48,-1.04,-0.56,-0.44,176.00,336.00,62.00,103.00,560.00,955.00,809.00,960.00,,,,,,,,,,,,0,0,0,,-2188,16140,-1512,-200,136,-136
19.22,18.84,-1.26,4.27,-3.05,17.59,-17.98,-1.92,-0.20,-1.88,0.28,193.00,333.00,142.00,81.00,549.00,988.00,797.00,992.00,,,,,,,,,,,,0,0,0,,-2124,16188,-1508,-176,146,-160
19.282,18.89,-1.34,1.52,-0.73,-3.11,-0.19,-2.78,0.85,-2.01,0.75,179.00,349.00,79.00,114.00,527.00,994.00,779.00,985.00,,,,,,,,,,,,0,0,0,,-2116,16056,-1516,-190,137,-164
19.323,18.95,-1.33,2.49,-0.64,-10.43,9.65,-1.09,-0.54,-0.80,-0.20,175.00,335.00,53.00,117.00,551.00,965.00,802.00,963.00,,,,,,,,,,,,0,0,0,,-1964,16200,-1460,-47,120,-201
19.385,19.00,-1.33,3.71,-1.87,6.70,-3.72,-1.33,-0.79,-1.29,-0.06,183.00,330.00,80.00,85.00,561.00,981.00,803.00,978.00,,,,,,,,,,,,0,0,0,,-2092,16124,-1556,-88,6,-277
19.446,19.06,-1.36,3.03,-1.54,0.34,-2.92,-2.08,0.55,-1.63,0.52,182.00,336.00,86.00,107.00,529.00,975.00,783.00,976.00,,,,,,,,,,,,0,0,0,,-2152,16192,-1480,-73,37,-216
19.486,19.11,-1.36,2.47,-1.05,-8.00,4.50,-1.19,0.04,-0.88,0.04,179.00,339.00,67.00,122.00,535.00,954.00,793.00,960.00,,,,,,,,,,,,0,0,0,,-2144,16168,-1436,-43,170,-141
19.568,19.17,-1.29,3.33,-1.54,-0.88,1.03,-0.11,-1.40,-0.60,-0.38,181.00,332.00,71.00,101.00,567.00,950.00,807.00,960.00,,,,,,,,,,,,0,0,0,,-2196,16068,-1420,-24,175,-106
19.609,19.22,-1.34,4.49,-3.59,7.51,-8.66,-2.27,0.40,-2.07,0.60,198.00,335.00,103.00,94.00,535.00,986.00,786.00,991.00,,,,,,,,,,,,0,0,0,,-2240,16232,-1556,-9,224,-18
19.69,19.28,-1.36,1.70,-0.99,-9.68,3.48,-1.78,0.44,-1.24,0.37,181.00,349.00,73.00,134.00,529.00,966.00,784.00,965.00,,,,,,,,,,,,0,0,0,,-2116,16092,-1764,14,136,-191
19.71,19.33,-1.30,3.16,-1.18,-6.67,6.40,-0.18,-0.98,-0.21,-0.71,178.00,331.00,59.00,110.00,555.00,942.00,816.00,954.00,,,,,,,,,,,,0,0,0,,-2132,16116,-1616,-58,47,-180
19.772,19.39,-1.30,4.88,-3.16,7.88,-4.12,-1.13,-0.36,-1.38,0.16,192.00,326.00,80.00,82.00,546.00,962.00,795.00,976.00,,,,,,,,,,,,0,0,0,,-2156,16176,-1552,-106,81,-184
19.834,19.44,-1.37,2.84,-1.38,-2.82,-0.28,-2.81,1.57,-1.85,0.88,181.00,337.00,79.00,113.00,507.00,976.00,771.00,975.00,,,,,,,,,,,,0,0,0,,-2088,16188,-1688,-91,144,-196
19.876,19.50,-1.33,3.07,-0.94,-7.55,6.70,-0.58,-0.54,-0.67,-0.08,176.00,330.00,59.00,113.00,546.00,946.00,795.00,955.00,,,,,,,,,,,,0,0,0,,-2128,16176,-1536,-72,53,-171
19.939,19.55,-1.26,4.81,-2.94,5.74,-3.16,0.11,-1.21,0.08,-0.56,190.00,325.00,79.00,87.00,559.00,937.00,805.00,939.00,,,,,,,,,,,,0,0,0,,-2224,16176,-1400,-93,75,-171
20.002,19.61,-1.33,3.38,-2.06,2.10,-3.72,-2.76,0.63,-2.09,0.63,186.00,336.00,87.00,102.00,533.00,999.00,785.00,991.00,,,,,,,,,,,,0,0,0,,-2192,16168,-1500,-101,117,-146
20.063,19.66,-1.37,2.33,-1.61,-9.14,3.81,-2.00,-0.03,-1.55,0.03,185.00,346.00,71.00,130.00,545.00,987.00,803.00,986.00,,,,,,,,,,,,0,0,0,,-2192,16156,-1324,-102,165,-147
20.145,19.72,-1.34,3.02,-1.64,-4.20,3.78,-0.88,-1.46,-1.17,-0.41,183.00,337.00,65.00,107.00,577.00,981.00,817.00,983.00,,,,,,,,,,,,0,0,0,,-2120,16236,-1480,-110,174,-205
20.166,19.77,-1.40,4.06,-3.07,9.64,-11.41,-2.52,0.28,-2.11,0.59,194.00,336.00,115.00,93.00,541.00,999.00,787.00,993.00,,,,,,,,,,,,0,0,0,,-2228,16124,-1488,-169,20,-199
20.228,19.83,-1.41,1.81,-0.51,-7.62,1.56,-1.61,0.42,-1.43,0.58,176.00,343.00,78.00,130.00,528.00,960.00,778.00,967.00,,,,,,,,,,,,0,0,0,,-2092,16200,-1276,-100,52,-159
20.288,19.88,-1.35,3.07,-0.94,-5.23,5.30,-0.08,-0.85,-0.42,-0.26,176.00,330.00,61.00,107.00,550.00,935.00,799.00,950.00,,,,,,,,,,,,0,0,0,,-2144,16168,-1524,4,179,-166
20.329,19.94,-1.33,5.35,-3.51,8.08,-4.86,-1.03,-0.42,-1.26,0.33,194.00,323.00,83.00,83.00,547.00,960.00,786.00,967.00,,,,,,,,,,,,0,0,0,,-2156,16112,-1572,20,117,-118
20.431,19.99,-1.39,2.66,-1.11,-1.64,-0.68,-2.58,1.35,-1.68,0.83,179.00,337.00,79.00,109.00,511.00,973.00,771.00,970.00,,,,,,,,,,,,0,0,0,,-2140,16220,-1560,47,90,-182
20.451,20.05,-1.36,2.48,-0.74,-10.24,10.66,-0.84,-0.05,-0.47,-0.15,176.00,336.00,50.00,113.00,534.00,943.00,795.00,949.00,,,,,,,,,,,,0,0,0,,-2128,16164,-1540,-67,134,-158
20.512,20.10,-1.34,4.28,-2.27,2.07,0.57,-0.80,-0.77,-1.11,0.02,185.00,326.00,69.00,91.00,555.00,960.00,797.00,969.00,,,,,,,,,,,,0,0,0,,-2176,16152,-1404,-32,196,-125
20.532,20.16,-1.37,4.04,-2.48,4.49,-5.75,-2.09,0.48,-2.03,0.54,188.00,331.00,93.00,98.00,531.00,977.00,788.00,991.00,,,,,,,,,,,,0,0,0,,-2148,16196,-1752,8,177,-133
20.594,20.21,-1.38,2.16,-1.25,-8.94,3.23,-1.42,0.15,-1.09,0.16,182.00,345.00,73.00,131.00,534.00,960.00,791.00,965.00,,,,,,,,,,,,0,0,0,,-2220,16116,-1760,-10,83,-113
20.655,20.27,-1.33,2.86,-1.08,-3.58,3.57,-0.35,-1.54,-0.66,-0.56,178.00,334.00,65.00,105.00,574.00,963.00,816.00,967.00,,,,,,,,,,,,0,0,0,,-2200,16116,-1524,-129,90,-122
20.695,20.32,-1.39,4.79,-3.69,7.38,-8.07,-2.62,0.21,-2.34,0.48,198.00,332.00,100.00,93.00,544.00,1005.00,795.00,1005.00,,,,,,,,,,,,0,0,0,,-2092,16216,-1480,-62,207,-21
20.818,20.38,-1.45,1.42,-0.70,-7.74,2.33,-2.52,0.59,-1.87,0.53,179.00,350.00,75.00,128.00,532.00,991.00,786.00,985.00,,,,,,,,,,,,0,0,0,,-2016,16152,-1568,-55,251,-25
20.84,20.43,-1.43,3.03,-1.54,-6.97,6.50,-1.12,-0.80,-0.94,-0.38,182.00,336.00,59.00,111.00,559.00,973.00,812.00,973.00,,,,,,,,,,,,0,0,0,,-2036,16132,-1680,-15,170,-122
20.881,20.49,-1.43,4.04,-2.48,8.08,-4.41,-1.51,-0.53,-1.74,0.24,188.00,331.00,81.00,82.00,555.00,981.00,797.00,988.00,,,,,,,,,,,,0,0,0,,-2092,16224,-1704,-102,12,-157
20.921,20.54,-1.47,2.94,-1.41,-1.44,-0.98,-2.17,0.82,-1.71,0.72,181.00,336.00,80.00,109.00,522.00,971.00,776.00,974.00,,,,,,,,,,,,0,0,0,,-2148,16136,-1412,-108,87,-122
20.983,20.60,-1.42,2.40,-0.50,-10.49,10.38,-0.55,-0.32,-0.64,0.03,174.00,335.00,51.00,115.00,539.00,939.00,790.00,951.00,,,,,,,,,,,,0,0,0,,-2096,16164,-1576,-26,230,-104
21.044,20.65,-1.39,3.72,-1.78,0.43,1.39,-0.71,-0.90,-1.08,-0.06,182.00,329.00,68.00,95.00,558.00,960.00,800.00,970.00,,,,,,,,,,,,0,0,0,,-2172,16260,-1612,-6,188,-127
21.106,20.71,-1.43,4.07,-2.30,2.51,-4.69,-2.24,0.32,-1.92,0.58,186.00,329.00,91.00,103.00,537.00,987.00,785.00,986.00,,,,,,,,,,,,0,0,0,,-2044,16236,-1616,52,131,-96
21.147,20.76,-1.43,1.61,-0.76,-12.04,5.86,-1.46,0.13,-0.02,-0.09,179.00,348.00,67.00,138.00,535.00,962.00,786.00,931.00,,,,,,,,,,,,0,0,0,,-2136,16168,-1548,-31,78,-149
21.208,20.82,-1.36,3.05,-1.24,-3.27,3.47,-0.04,-1.26,-0.52,-0.61,179.00,333.00,65.00,104.00,562.00,944.00,816.00,963.00,,,,,,,,,,,,0,0,0,,-2100,16188,-1552,-162,61,-149
21.269,20.87,-1.39,5.28,-3.86,9.40,-8.56,-1.82,0.01,-1.87,0.42,198.00,327.00,99.00,87.00,542.00,979.00,791.00,988.00,,,,,,,,,,,,0,0,0,,-2112,16104,-1472,-56,150,-149
21.329,20.93,-1.43,2.45,-1.35,-6.79,3.02,-2.20,0.83,-1.51,0.46,182.00,342.00,71.00,121.00,522.00,972.00,784.00,973.00,,,,,,,,,,,,0,0,0,,-2140,16096,-1844,-99,93,-156
21.412,20.98,-1.38,3.25,-1.31,-7.26,6.60,-0.56,-0.65,-0.60,-0.22,179.00,331.00,59.00,112.00,549.00,948.00,800.00,956.00,,,,,,,,,,,,0,0,0,,-2056,16084,-1600,-148,55,-107
21.432,21.04,-1.39,4.40,-2.90,8.49,-4.09,-1.51,-0.60,-1.01,-0.01,191.00,330.00,79.00,80.00,557.00,983.00,797.00,966.00,,,,,,,,,,,,0,0,0,,-2044,16276,-1560,-111,109,-118
21.474,21.09,-1.47,3.64,-2.45,-1.53,-1.85,-3.01,0.93,-2.08,0.77,189.00,336.00,84.00,112.00,527.00,1001.00,779.00,987.00,,,,,,,,,,,,0,0,0,,-2024,16200,-1580,-33,124,-92
21.535,21.15,-1.47,2.85,-1.28,-10.35,8.28,-1.51,-0.30,-1.29,0.06,180.00,336.00,57.00,121.00,548.00,975.00,798.00,975.00,,,,,,,,,,,,0,0,0,,-2040,16312,-1652,-64,124,-187
21.596,21.20,-1.44,3.12,-1.67,0.12,-0.07,-0.88,-1.07,-1.19,-0.32,183.00,336.00,74.00,100.00,565.00,971.00,813.00,981.00,,,,,,,,,,,,0,0,0,,-2068,16200,-1740,-148,90,-168
21.637,21.26,-1.48,3.98,-2.95,2.91,-6.00,-2.11,0.28,-1.88,0.52,193.00,336.00,97.00,105.00,537.00,983.00,787.00,986.00,,,,,,,,,,,,0,0,0,,-2044,16112,-1424,-102,131,-155
21.7,21.31,-1.48,1.97,-1.19,-7.53,2.02,-1.44,0.36,-1.03,0.30,182.00,347.00,76.00,128.00,528.00,955.00,784.00,959.00,,,,,,,,,,,,0,0,0,,-2092,16260,-1688,-96,165,-141
21.761,21.37,-1.40,3.07,-1.04,-4.70,4.53,-0.03,-1.19,-0.36,-0.57,177.00,331.00,63.00,107.00,560.00,942.00,812.00,956.00,,,,,,,,,,,,0,0,0,,-1964,16076,-1488,-120,148,-132
21.821,21.42,-1.43,4.61,-3.54,9.83,-8.33,-1.91,0.18,-1.96,0.59,197.00,333.00,97.00,85.00,538.00,978.00,785.00,987.00,,,,,,,,,,,,0,0,0,,-2140,16276,-1628,-23,134,-159
21.903,21.48,-1.46,2.98,-2.03,-2.95,0.23,-2.01,0.59,-1.64,0.57,187.00,341.00,77.00,112.00,527.00,971.00,781.00,975.00,,,,,,,,,,,,0,0,0,,-2084,16184,-1680,48,58,-140
21.923,21.53,-1.41,2.48,-0.74,-10.95,12.04,-0.44,-0.56,-0.36,-0.30,176.00,336.00,47.00,112.00,545.00,941.00,800.00,949.00,,,,,,,,,,,,0,0,0,,-2008,16140,-1584,33,31,-162
21.964,21.59,-1.39,5.12,-3.04,46.56,-16.90,-1.13,-0.59,-1.34,0.05,190.00,322.00,79.00,25.00,553.00,968.00,799.00,977.00,,,,,,,,,,,,0,0,0,,-2116,16116,-1740,-92,140,-207
22.048,21.64,-1.45,3.72,-2.57,2.23,-3.55,-2.60,0.93,-2.06,0.93,190.00,336.00,86.00,101.00,523.00,985.00,772.00,982.00,,,,,,,,,,,,0,0,0,,-2240,16072,-1612,-152,166,-149
22.089,21.70,-1.45,2.66,-1.11,-8.98,6.87,-1.33,-0.26,-0.97,-0.02,179.00,337.00,60.00,119.00,545.00,967.00,797.00,965.00,,,,,,,,,,,,0,0,0,,-2200,16104,-1540,-178,149,-136
22.193,21.75,-1.43,3.26,-2.22,-0.42,-0.38,-1.08,-1.01,-1.06,-0.43,188.00,339.00,76.00,103.00,565.00,977.00,816.00,979.00,,,,,,,,,,,,0,0,0,,-1976,16264,-1532,-129,165,-130
22.213,21.81,-1.50,4.06,-3.07,4.51,-7.65,-2.88,0.30,-2.60,0.76,194.00,336.00,103.00,103.00,544.00,1013.00,787.00,1008.00,,,,,,,,,,,,0,0,0,,-2152,16252,-1604,-46,177,-127
22.254,21.86,-1.54,1.04,-0.88,-10.12,4.40,-2.27,0.37,-1.65,0.13,182.00,357.00,70.00,133.00,536.00,987.00,800.00,987.00,,,,,,,,,,,,0,0,0,,-2008,16216,-1784,-69,163,-193
22.316,21.92,-1.49,3.12,-1.67,-0.40,2.22,-0.46,-1.12,-0.49,-0.62,183.00,336.00,66.00,96.00,562.00,956.00,816.00,962.00,,,,,,,,,,,,0,0,0,,-2072,16144,-1592,-124,21,-282
22.378,21.97,-1.49,4.88,-3.72,9.32,-7.58,-1.62,-0.06,-1.83,0.47,198.00,331.00,94.00,85.00,542.00,973.00,788.00,985.00,,,,,,,,,,,,0,0,0,,-2116,16140,-1592,-167,25,-239
22.419,22.03,-1.52,3.19,-2.00,-3.67,1.97,-2.14,1.20,-1.49,0.74,186.00,338.00,71.00,110.00,511.00,960.00,772.00,965.00,,,,,,,,,,,,0,0,0,,-2112,16216,-1676,-144,159,-176
22.459,22.08,-1.46,2.48,-0.74,-9.11,11.03,-0.32,-0.50,-0.04,-0.82,176.00,336.00,48.00,107.00,542.00,935.00,818.00,950.00,,,,,,,,,,,,0,0,0,,-2108,16216,-1516,-90,169,-178
22.522,22.14,-1.46,4.23,-2.64,8.28,-3.78,-1.37,-0.28,-1.30,0.04,189.00,330.00,78.00,80.00,546.00,969.00,799.00,976.00,,,,,,,,,,,,0,0,0,,-2120,16260,-1880,66,66,-214
22.584,22.19,-1.50,3.98,-2.95,-0.54,-1.96,-2.27,0.75,-1.99,0.98,193.00,336.00,83.00,108.00,525.00,977.00,769.00,978.00,,,,,,,,,,,,0,0,0,,-2008,16164,-1616,-83,13,-197
22.625,22.25,-1.48,3.02,-1.64,-11.20,9.22,-1.10,-0.13,-1.09,0.16,183.00,337.00,55.00,122.00,539.00,955.00,791.00,965.00,,,,,,,,,,,,0,0,0,,-2144,16184,-1740,-126,135,-210
22.686,22.30,-1.43,4.12,-2.70,-2.06,2.78,-0.45,-1.09,-0.91,-0.28,190.00,332.00,66.00,101.00,561.00,955.00,807.00,969.00,,,,,,,,,,,,0,0,0,,-2156,16176,-1512,-67,156,-225
22.748,22.36,-1.48,5.23,-4.57,6.50,-7.96,-2.46,0.53,-2.16,0.52,206.00,334.00,101.00,96.00,533.00,990.00,791.00,997.00,,,,,,,,,,,,0,0,0,,-2136,16096,-1768,-22,82,-198
22.809,22.41,-1.51,0.86,-0.81,-8.89,3.73,-1.99,0.45,-1.75,0.59,182.00,359.00,71.00,129.00,531.00,974.00,782.00,979.00,,,,,,,,,,,,0,0,0,,-2160,16076,-1792,-98,41,-183
22.851,22.47,-1.46,7.69,-8.75,-5.87,5.22,-0.52,-1.29,-0.89,-0.53,247.00,339.00,62.00,110.00,568.00,963.00,818.00,975.00,,,,,,,,,,,,0,0,0,,-2156,16192,-1448,-114,157,-126
22.913,22.52,-1.49,4.24,-3.23,43.82,-18.38,-2.05,-0.22,-1.98,0.36,195.00,335.00,90.00,29.00,551.00,994.00,795.00,994.00,,,,,,,,,,,,0,0,0,,-2240,16172,-1684,-146,265,-92
22.995,22.58,-1.54,2.69,-2.03,-2.74,-0.08,-2.55,0.74,-1.94,0.68,188.00,345.00,78.00,112.00,528.00,988.00,781.00,984.00,,,,,,,,,,,,0,0,0,,-2092,16200,-1868,-132,243,-150
23.016,22.63,-1.49,2.48,-0.84,-10.21,10.28,-0.57,-0.48,-0.59,0.03,177.00,337.00,51.00,114.00,544.00,944.00,789.00,949.00,,,,,,,,,,,,0,0,0,,-2076,16140,-1592,-77,98,-163
23.078,22.69,-1.46,4.10,-2.80,8.07,-3.47,-0.95,-0.59,-1.42,0.29,191.00,333.00,77.00,80.00,551.00,961.00,790.00,974.00,,,,,,,,,,,,0,0,0,,-2100,16240,-1620,-91,104,-146
23.139,22.74,-1.50,3.89,-2.82,0.84,-3.29,-2.10,0.76,-1.87,0.84,192.00,336.00,87.00,106.00,523.00,970.00,773.00,977.00,,,,,,,,,,,,0,0,0,,-1980,16140,-1520,-63,180,-174
23.2,22.80,-1.49,2.84,-1.38,-10.57,6.50,-1.34,0.23,-1.05,0.28,181.00,337.00,63.00,128.00,531.00,955.00,785.00,960.00,,,,,,,,,,,,0,0,0,,-2084,16260,-1748,-85,140,-132
23.24,22.85,-1.43,2.94,-1.41,-0.69,1.50,-0.39,-1.14,-0.72,-0.48,181.00,336.00,69.00,99.00,562.00,954.00,813.00,967.00,,,,,,,,,,,,0,0,0,,-2076,16152,-1728,-72,90,-186
23.364,22.91,-1.47,4.15,-3.19,7.54,-8.31,-2.13,0.36,-2.17,0.68,195.00,336.00,101.00,93.00,535.00,982.00,784.00,993.00,,,,,,,,,,,,0,0,0,,-2152,16164,-1476,-48,73,-187
23.384,22.96,-1.48,1.60,-1.06,-7.74,2.33,-1.64,0.47,-1.13,0.40,182.00,351.00,75.00,128.00,527.00,960.00,781.00,960.00,,,,,,,,,,,,0,0,0,,-2044,16052,-1584,-61,20,-169
23.404,23.02,-1.40,3.12,-1.67,-5.83,5.50,0.00,-1.21,-0.94,-0.27,183.00,336.00,61.00,109.00,560.00,941.00,807.00,970.00,,,,,,,,,,,,0,0,0,,-2140,16216,-1676,-10,117,-198
23.445,23.07,-1.40,4.34,-3.26,6.74,-5.07,-1.40,-0.27,-1.59,0.35,195.00,334.00,86.00,88.00,546.00,970.00,790.00,979.00,,,,,,,,,,,,0,0,0,,-2168,16112,-1644,-77,119,-178
23.506,23.13,-1.45,1.98,-1.09,-2.62,-0.58,-2.40,0.86,-2.03,0.78,181.00,346.00,80.00,113.00,523.00,979.00,778.00,985.00,,,,,,,,,,,,0,0,0,,-2188,16156,-1584,-128,111,-170
23.568,23.18,-1.42,2.43,-1.64,-10.57,11.14,-0.79,-0.51,-0.79,-0.18,185.00,345.00,49.00,113.00,547.00,953.00,801.00,962.00,,,,,,,,,,,,0,0,0,,-2192,16168,-1640,-38,149,-142
23.629,23.24,-1.42,3.89,-2.82,4.63,-2.79,-1.42,-0.66,-1.51,-0.03,192.00,336.00,79.00,90.00,558.00,981.00,805.00,986.00,,,,,,,,,,,,0,0,0,,-2176,16236,-1536,14,193,-197
23.67,23.29,-1.48,3.22,-2.60,-0.30,-3.33,-2.57,0.43,-2.20,0.65,192.00,343.00,89.00,111.00,537.00,997.00,786.00,995.00,,,,,,,,,,,,0,0,0,,-2136,16144,-1704,78,110,-210
23.732,23.35,-1.47,2.76,-2.34,-8.86,3.98,-1.31,-0.06,-1.14,0.03,191.00,347.00,70.00,128.00,539.00,961.00,797.00,970.00,,,,,,,,,,,,0,0,0,,-2184,16140,-1716,-11,4,-170
23.792,23.40,-1.39,2.55,-1.28,-1.75,1.59,0.02,-1.51,-0.70,-0.51,181.00,340.00,70.00,103.00,569.00,948.00,814.00,967.00,,,,,,,,,,,,0,0,0,,-2076,16056,-1552,-73,84,-187
23.854,23.46,-1.41,5.25,-4.93,6.01,-7.23,-1.68,0.03,-2.03,0.54,210.00,337.00,98.00,96.00,540.00,973.00,788.00,991.00,,,,,,,,,,,,0,0,0,,-2184,16168,-1592,-54,173,-131
23.895,23.51,-1.41,1.59,-1.26,-9.82,5.39,-1.40,0.35,-1.21,0.41,184.00,353.00,66.00,128.00,528.00,954.00,782.00,963.00,,,,,,,,,,,,0,0,0,,-2184,16152,-1700,24,160,-104
23.957,23.57,-1.33,2.19,-0.75,-7.26,6.60,0.19,-1.17,-0.60,-0.38,177.00,340.00,59.00,112.00,557.00,933.00,807.00,960.00,,,,,,,,,,,,0,0,0,,-2072,16292,-1788,89,102,-159
24.019,23.62,-1.33,4.16,-3.10,7.09,-3.85,-1.33,0.02,-1.51,0.34,194.00,335.00,80.00,84.00,537.00,960.00,789.00,976.00,,,,,,,,,,,,0,0,0,,-2216,16180,-1776,62,29,-144
24.122,23.68,-1.38,2.12,-1.93,-1.97,0.14,-2.27,1.29,-1.62,0.85,189.00,352.00,76.00,108.00,510.00,963.00,769.00,967.00,,,,,,,,,,,,0,0,0,,-2256,16152,-1628,-23,79,-114
24.143,23.73,-1.34,2.26,-1.18,-10.27,11.04,-0.72,-0.26,-1.11,0.14,181.00,343.00,49.00,112.00,539.00,944.00,792.00,966.00,,,,,,,,,,,,0,0,0,,-2120,16188,-1816,-8,168,-156
24.185,23.79,-1.32,1.44,0.80,6.00,-1.79,-0.83,-0.73,-1.30,0.04,165.00,336.00,73.00,83.00,554.00,960.00,799.00,976.00,,,,,,,,,,,,0,0,0,,-2088,16108,-1828,-57,145,-64
24.247,23.84,-1.36,3.68,-2.94,2.23,-3.55,-2.26,0.54,-1.94,0.56,194.00,340.00,86.00,101.00,531.00,982.00,786.00,987.00,,,,,,,,,,,,0,0,0,,-2204,16108,-1804,-92,138,-105
24.287,23.90,-1.39,2.37,-2.31,-8.63,3.64,-1.83,0.25,-1.39,0.09,192.00,352.00,71.00,128.00,535.00,973.00,798.00,978.00,,,,,,,,,,,,0,0,0,,-2060,16224,-1780,-147,109,-85
24.348,23.95,-1.36,2.56,-2.37,1.76,-1.35,-0.75,-1.12,-0.74,-0.99,192.00,350.00,77.00,97.00,565.00,967.00,836.00,981.00,,,,,,,,,,,,0,0,0,,-2096,16144,-1704,-171,127,-89
24.472,24.01,-1.42,4.23,-3.87,14.74,-10.91,-2.66,0.12,-2.46,0.55,202.00,341.00,102.00,75.00,547.00,1009.00,794.00,1008.00,,,,,,,,,,,,0,0,0,,-2172,16208,-1828,-56,171,-138
24.492,24.06,-1.46,1.45,-2.00,-7.32,1.70,-2.15,0.60,-1.62,0.48,192.00,362.00,77.00,128.00,528.00,976.00,785.00,977.00,,,,,,,,,,,,0,0,0,,-2128,16164,-1828,39,128,-192
24.512,24.12,-1.39,2.96,-2.22,-5.94,4.66,-0.15,-0.59,-0.50,-0.30,189.00,343.00,64.00,112.00,543.00,931.00,802.00,954.00,,,,,,,,,,,,0,0,0,,-2100,16068,-1720,28,66,-106
24.573,24.17,-1.39,4.29,-2.95,7.88,-4.12,-1.31,-0.13,-1.51,0.34,192.00,332.00,80.00,82.00,541.00,963.00,789.00,976.00,,,,,,,,,,,,0,0,0,,-2096,16112,-1820,-15,172,-115
24.614,24.23,-1.44,1.86,-1.55,-2.33,-0.68,-2.34,1.38,-1.86,0.86,186.00,352.00,80.00,112.00,508.00,963.00,772.00,976.00,,,,,,,,,,,,0,0,0,,-2080,16144,-1840,-133,189,-176
24.655,24.28,-1.40,2.07,-1.22,-12.07,10.20,-0.65,-0.28,-0.74,0.06,182.00,346.00,53.00,123.00,539.00,942.00,790.00,954.00,,,,,,,,,,,,0,0,0,,-2084,16152,-1768,-144,103,-119
24.718,24.34,-1.37,4.09,-2.89,5.74,-3.16,-0.94,-0.56,-1.34,0.10,192.00,334.00,79.00,87.00,550.00,960.00,797.00,976.00,,,,,,,,,,,,0,0,0,,-1984,16208,-1684,-58,51,-173
24.843,24.39,-1.40,3.55,-3.09,3.52,-5.82,-1.81,0.11,-1.94,0.61,196.00,343.00,95.00,102.00,539.00,976.00,784.00,986.00,,,,,,,,,,,,0,0,0,,-2060,16188,-1708,-43,60,-190
24.865,24.45,-1.39,1.92,-1.97,-7.70,2.57,-1.36,0.13,-1.26,0.33,190.00,355.00,74.00,127.00,534.00,958.00,786.00,967.00,,,,,,,,,,,,0,0,0,,-2076,16204,-2052,74,110,-168
24.885,24.50,-1.32,3.32,-2.63,-1.48,0.47,0.05,-1.52,-0.66,-0.56,192.00,342.00,74.00,105.00,569.00,947.00,816.00,967.00,,,,,,,,,,,,0,0,0,,-2096,16140,-1992,28,90,-189
24.927,24.56,-1.36,4.33,-4.45,6.34,-7.72,-2.19,0.13,-2.31,0.66,208.00,345.00,100.00,96.00,542.00,990.00,787.00,999.00,,,,,,,,,,,,0,0,0,,-2188,16180,-1964,-96,71,-134
24.989,24.61,-1.41,1.18,-1.91,-6.95,0.87,-2.21,0.69,-1.89,0.68,192.00,365.00,80.00,129.00,526.00,976.00,780.00,982.00,,,,,,,,,,,,0,0,0,,-2048,16184,-1772,-157,156,-123
25.052,24.67,-1.38,3.03,-2.53,-6.95,6.81,-0.80,-0.77,-1.11,-0.16,192.00,345.00,58.00,110.00,555.00,960.00,805.00,974.00,,,,,,,,,,,,0,0,0,,-2120,16136,-1836,-156,172,-102
25.114,24.72,-1.38,3.99,-3.52,5.20,-3.21,-1.54,-0.52,-1.90,0.31,199.00,341.00,80.00,89.00,555.00,982.00,796.00,992.00,,,,,,,,,,,,0,0,0,,-2052,16108,-1956,-97,178,-116
25.217,24.78,-1.46,1.73,-2.09,-1.93,-1.27,-2.80,1.03,-2.20,0.72,192.00,359.00,82.00,112.00,522.00,990.00,783.00,993.00,,,,,,,,,,,,0,0,0,,-2056,16260,-1880,-57,81,-192
25.239,24.83,-1.42,2.80,-1.87,-10.99,9.83,-0.67,-0.38,-0.68,-0.03,186.00,342.00,53.00,119.00,542.00,945.00,793.00,954.00,,,,,,,,,,,,0,0,0,,-2092,16128,-1720,-89,49,-183
25.26,24.89,-1.38,4.23,-3.32,2.10,-1.47,-0.69,-0.97,-1.16,-0.05,196.00,336.00,77.00,96.00,560.00,961.00,801.00,973.00,,,,,,,,,,,,0,0,0,,-2108,16232,-1808,-25,142,-201
25.322,24.94,-1.42,3.61,-3.39,6.19,-9.76,-2.09,0.48,-1.97,0.57,199.00,345.00,112.00,102.00,531.00,977.00,786.00,988.00,,,,,,,,,,,,0,0,0,,-2160,16128,-1920,-22,140,-199
25.383,25.00,-1.37,-0.39,-1.57,-9.70,3.24,-0.43,-1.19,-1.53,0.42,194.00,385.00,74.00,135.00,564.00,957.00,786.00,975.00,,,,,,,,,,,,0,0,0,,-2112,16172,-1860,10,119,-170
25.446,25.05,-1.31,2.47,-2.25,-2.38,1.80,-0.33,-1.19,-0.68,-0.65,191.00,350.00,70.00,105.00,563.00,953.00,820.00,970.00,,,,,,,,,,,,0,0,0,,-2032,16156,-1976,-1,77,-195
25.508,25.11,-1.35,3.76,-3.71,7.93,-8.07,-2.02,0.08,-2.07,0.35,202.00,346.00,99.00,91.00,542.00,985.00,797.00,998.00,,,,,,,,,,,,0,0,0,,-2156,16144,-1888,-53,113,-164
25.571,25.16,-1.38,0.94,-1.14,-6.39,2.12,-1.87,0.58,-1.59,0.46,185.00,361.00,74.00,122.00,526.00,966.00,785.00,976.00,,,,,,,,,,,,0,0,0,,-2164,16168,-1936,-62,120,-191
25.591,25.22,-1.33,2.76,-2.25,-6.65,6.71,-0.45,-0.65,-0.84,-0.30,190.00,346.00,58.00,109.00,548.00,944.00,807.00,967.00,,,,,,,,,,,,0,0,0,,-2160,16124,-1956,6,90,-213
25.653,25.27,-1.34,3.43,-3.24,8.89,-4.68,-1.54,-0.25,-1.64,0.27,198.00,346.00,81.00,80.00,547.00,975.00,794.00,983.00,,,,,,,,,,,,0,0,0,,-2132,16080,-2000,-13,17,-205
25.714,25.33,-1.41,2.72,-2.71,25.14,-10.38,-2.64,0.94,-1.91,0.60,195.00,351.00,82.00,49.00,523.00,986.00,784.00,985.00,,,,,,,,,,,,0,0,0,,-2216,16192,-1792,-143,45,-207
25.775,25.38,-1.41,1.93,-1.87,-8.97,7.49,-1.50,-0.17,-1.21,-0.06,189.00,354.00,58.00,117.00,544.00,971.00,802.00,975.00,,,,,,,,,,,,0,0,0,,-2200,16104,-1872,-168,169,-190
25.857,25.44,-1.39,2.36,-2.40,2.38,-2.27,-1.01,-0.97,-1.58,-0.23,193.00,353.00,80.00,97.00,563.00,973.00,815.00,994.00,,,,,,,,,,,,0,0,0,,-2064,16136,-1828,-107,155,-135
25.877,25.49,-1.45,3.51,-3.99,1.72,-5.98,-2.63,0.08,-2.53,0.43,206.00,352.00,99.00,110.00,548.00,1009.00,800.00,1014.00,,,,,,,,,,,,0,0,0,,-2136,16220,-1976,-89,132,-199
25.939,25.55,-1.48,0.92,-1.82,-9.16,1.62,-2.04,0.22,-1.66,0.23,192.00,368.00,80.00,138.00,538.00,982.00,796.00,985.00,,,,,,,,,,,,0,0,0,,-2176,16112,-1916,-123,10,-240
26.001,25.60,-1.42,2.06,-1.32,-1.82,2.42,-0.21,-1.36,-0.74,-0.56,183.00,347.00,67.00,101.00,567.00,953.00,817.00,970.00,,,,,,,,,,,,0,0,0,,-2208,16224,-1768,-121,28,-223
26.062,25.66,-1.44,4.71,-4.57,-10.43,-1.32,-1.85,0.12,-2.02,0.49,208.00,341.00,96.00,157.00,539.00,977.00,790.00,992.00,,,,,,,,,,,,0,0,0,,-2136,16152,-1952,-73,131,-189
26.083,25.71,-1.48,0.30,-1.61,-7.78,2.10,-2.21,1.23,-1.41,0.55,192.00,375.00,76.00,129.00,511.00,962.00,779.00,967.00,,,,,,,,,,,,0,0,0,,-2200,16160,-1956,-35,185,-188
26.145,25.77,-1.41,2.93,-2.50,-7.54,7.01,-0.19,-0.64,-0.71,-0.07,192.00,346.00,58.00,112.00,545.00,934.00,795.00,956.00,,,,,,,,,,,,0,0,0,,-2124,16108,-1976,-10,155,-134
26.206,25.82,-1.40,2.80,-1.87,7.02,-2.39,-1.18,-0.48,-1.49,0.13,186.00,342.00,74.00,81.00,550.00,967.00,798.00,981.00,,,,,,,,,,,,0,0,0,,-2200,16092,-2056,-64,99,-197
26.31,25.88,-1.45,2.53,-2.65,-0.97,-2.69,-2.30,0.87,-1.78,0.74,195.00,353.00,87.00,112.00,522.00,975.00,776.00,976.00,,,,,,,,,,,,0,0,0,,-2108,16192,-2036,-24,78,-158
26.33,25.93,-1.41,1.96,-1.39,-8.97,7.49,-0.73,-0.32,-0.42,-0.21,184.00,349.00,58.00,117.00,541.00,946.00,797.00,949.00,,,,,,,,,,,,0,0,0,,-2172,16192,-1984,-23,134,-162
26.372,25.99,-1.38,2.65,-2.40,-0.42,-1.09,-0.81,-0.87,-0.97,-0.25,192.00,349.00,79.00,105.00,558.00,963.00,807.00,971.00,,,,,,,,,,,,0,0,0,,-2248,16112,-2048,-24,126,-172
26.435,26.04,-1.44,3.48,-3.62,4.51,-7.65,-2.58,0.27,-2.16,0.52,202.00,349.00,103.00,103.00,542.00,1002.00,791.00,997.00,,,,,,,,,,,,0,0,0,,-2208,16192,-1756,-30,111,-135
26.476,26.10,-1.46,1.01,-1.85,-9.00,2.75,-1.81,0.11,-1.67,0.35,192.00,367.00,75.00,133.00,539.00,976.00,791.00,982.00,,,,,,,,,,,,0,0,0,,-2036,16064,-2004,-166,159,-141
26.538,26.15,-1.44,2.29,-2.19,-5.65,4.56,-1.01,-0.97,-0.90,-0.60,191.00,352.00,64.00,111.00,563.00,973.00,821.00,977.00,,,,,,,,,,,,0,0,0,,-2240,16152,-1876,-129,171,-160
26.599,26.21,-1.49,3.84,-4.37,8.25,-8.54,-2.45,-0.15,-2.35,0.42,209.00,351.00,101.00,91.00,553.00,1008.00,798.00,1007.00,,,,,,,,,,,,0,0,0,,-2172,16212,-1836,-144,97,-150
26.68,26.26,-1.56,3.33,-4.98,-4.44,0.50,-2.88,0.85,-2.15,0.65,218.00,364.00,78.00,118.00,528.00,998.00,785.00,993.00,,,,,,,,,,,,0,0,0,,-2204,16260,-1972,-47,82,-210
26.7,26.32,-1.53,2.57,-2.28,-11.14,11.33,-1.02,-0.83,-1.10,-0.26,191.00,349.00,49.00,115.00,559.00,970.00,809.00,976.00,,,,,,,,,,,,0,0,0,,-2056,16128,-1948,-169,54,-225
26.783,26.37,-1.52,3.27,-2.99,8.48,-4.55,-1.23,-0.53,-1.42,0.10,196.00,346.00,81.00,81.00,552.00,970.00,798.00,979.00,,,,,,,,,,,,0,0,0,,-2248,16112,-1848,-51,23,-162
26.823,26.43,-1.57,2.74,-2.53,0.74,-1.71,-2.65,1.37,-2.00,0.96,193.00,349.00,80.00,102.00,511.00,975.00,770.00,979.00,,,,,,,,,,,,0,0,0,,-2196,16108,-1696,-46,199,-148
26.865,26.48,-1.55,2.28,-2.28,-8.42,6.68,-1.08,0.07,-0.96,0.11,192.00,353.00,60.00,117.00,533.00,949.00,791.00,961.00,,,,,,,,,,,,0,0,0,,-2200,16096,-1956,-78,210,-124
26.927,26.54,-1.49,2.56,-2.37,-1.01,1.61,-0.50,-1.14,-0.84,-0.37,192.00,350.00,69.00,100.00,563.00,958.00,810.00,969.00,,,,,,,,,,,,0,0,0,,-2176,16248,-1964,-82,159,-132
26.969,26.59,-1.55,2.65,-2.40,3.57,-7.33,-2.68,0.71,-2.00,0.46,192.00,349.00,103.00,106.00,530.00,994.00,791.00,992.00,,,,,,,,,,,,0,0,0,,-2180,16264,-1924,21,117,-192
27.053,26.65,-1.56,0.83,-1.79,-7.62,1.56,-1.58,0.34,-1.25,0.23,192.00,369.00,78.00,130.00,530.00,961.00,790.00,969.00,,,,,,,,,,,,0,0,0,,-2284,16112,-1996,6,25,-158
27.074,26.70,-1.50,2.48,-2.15,-3.40,4.39,-0.41,-1.07,-0.51,-0.59,190.00,349.00,62.00,102.00,560.00,953.00,815.00,962.00,,,,,,,,,,,,0,0,0,,-2188,16108,-1908,-35,48,-191
27.157,26.76,-1.51,3.81,-4.00,9.93,-7.58,-1.79,-0.00,-1.92,0.46,205.00,348.00,93.00,83.00,542.00,978.00,790.00,989.00,,,,,,,,,,,,0,0,0,,-2256,16148,-2096,-85,119,-146
27.199,26.81,-1.57,1.45,-2.00,-2.48,0.56,-2.68,1.39,-1.78,0.67,192.00,362.00,75.00,109.00,511.00,976.00,779.00,978.00,,,,,,,,,,,,0,0,0,,-2324,16144,-1944,-160,163,-66
27.241,26.87,-1.54,1.93,-1.87,-9.00,9.17,-1.00,-0.47,-1.00,-0.06,189.00,354.00,53.00,112.00,548.00,960.00,799.00,967.00,,,,,,,,,,,,0,0,0,,-2176,16124,-1948,-161,187,-31
27.302,26.92,-1.59,3.64,-3.21,5.20,-3.21,-2.40,-0.23,-1.72,0.16,197.00,343.00,80.00,89.00,555.00,1008.00,800.00,989.00,,,,,,,,,,,,0,0,0,,-2256,16264,-1876,-106,209,-24
27.429,26.98,-1.65,2.19,-2.25,-2.33,-0.68,-2.88,0.75,-2.24,0.64,192.00,354.00,80.00,112.00,531.00,1001.00,787.00,997.00,,,,,,,,,,,,0,0,0,,-2108,16188,-2032,-37,166,-55
27.449,27.03,-1.66,1.39,-1.59,-7.65,5.23,-1.85,-0.25,-1.52,0.09,188.00,359.00,64.00,118.00,550.00,987.00,800.00,983.00,,,,,,,,,,,,0,0,0,,-2104,16264,-1868,-22,151,-112
27.49,27.09,-1.66,1.73,-2.09,-2.23,1.23,-1.58,-0.84,-1.60,-0.32,192.00,359.00,72.00,106.00,565.00,992.00,819.00,997.00,,,,,,,,,,,,0,0,0,,-2124,16120,-2088,-89,97,-188
27.553,27.14,-1.70,3.76,-4.26,5.83,-7.73,-2.60,0.13,-2.24,0.27,208.00,351.00,101.00,98.00,546.00,1006.00,803.00,1007.00,,,,,,,,,,,,0,0,0,,-2288,16104,-1892,-177,15,-138
27.573,27.20,-1.70,1.45,-2.00,-7.57,1.79,-1.69,0.28,-1.61,0.49,192.00,362.00,77.00,129.00,533.00,967.00,784.00,976.00,,,,,,,,,,,,0,0,0,,-2168,16168,-1988,-71,121,-90
27.638,27.25,-1.62,2.19,-2.15,-0.02,4.48,-0.04,-1.26,-0.56,-0.60,191.00,353.00,58.00,89.00,562.00,944.00,816.00,964.00,,,,,,,,,,,,0,0,0,,-2184,16224,-1932,-46,219,-102
27.694,27.31,-1.62,4.04,-3.81,9.67,-5.84,-1.56,-0.14,-0.97,-0.48,202.00,343.00,85.00,80.00,544.00,973.00,817.00,977.00,,,,,,,,,,,,0,0,0,,-2080,16208,-2048,1,159,-53
27.817,27.36,-1.65,2.56,-2.37,-2.86,0.45,-2.30,0.83,-1.67,0.59,192.00,350.00,76.00,111.00,523.00,976.00,781.00,976.00,,,,,,,,,,,,0,0,0,,-2092,16188,-2016,15,122,-137
27.838,27.42,-1.60,2.13,-1.74,-7.52,7.65,-0.60,-0.67,-0.55,-0.26,187.00,350.00,56.00,110.00,550.00,950.00,801.00,955.00,,,,,,,,,,,,0,0,0,,-2048,16192,-2144,-92,72,-148
27.859,27.47,-1.59,3.90,-3.48,6.70,-3.72,-1.45,-0.38,-1.30,0.04,199.00,342.00,80.00,85.00,550.00,975.00,799.00,976.00,,,,,,,,,,,,0,0,0,,-2212,16236,-2076,-110,76,-210
27.921,27.53,-1.63,2.71,-2.80,1.18,-1.63,-2.32,0.63,-1.68,0.52,196.00,352.00,79.00,100.00,529.00,982.00,784.00,978.00,,,,,,,,,,,,0,0,0,,-2012,16096,-2172,-115,56,-236
27.984,27.58,-1.64,2.19,-2.15,-6.31,4.21,-1.82,0.35,-1.39,0.21,191.00,353.00,66.00,115.00,532.00,970.00,793.00,975.00,,,,,,,,,,,,0,0,0,,-2160,16120,-2084,-208,-16,-235
28.067,27.64,-1.60,2.02,-1.90,0.22,0.93,-0.87,-1.24,-1.14,-0.42,189.00,353.00,70.00,97.00,570.00,975.00,817.00,982.00,,,,,,,,,,,,0,0,0,,-2100,16224,-1852,-227,56,-176
28.088,27.69,-1.66,3.58,-4.19,4.84,-7.40,-2.75,0.29,-2.24,0.45,208.00,353.00,101.00,101.00,543.00,1008.00,795.00,1002.00,,,,,,,,,,,,0,0,0,,-2164,16196,-1952,-149,196,-161
28.151,27.75,-1.71,1.18,-1.91,-8.69,3.15,-2.66,0.64,-1.88,0.40,192.00,365.00,73.00,130.00,532.00,995.00,792.00,989.00,,,,,,,,,,,,0,0,0,,-2092,16240,-1920,-147,183,-132
28.215,27.80,-1.67,2.20,-2.06,-5.10,4.09,-1.01,-1.19,-0.88,-0.69,190.00,352.00,65.00,110.00,570.00,979.00,825.00,979.00,,,,,,,,,,,,0,0,0,,-2128,16216,-2100,-72,116,-187
28.235,27.86,-1.70,3.93,-4.40,6.56,-6.05,-2.31,-0.09,-2.15,0.35,209.00,350.00,91.00,91.00,550.00,1001.00,798.00,1001.00,,,,,,,,,,,,0,0,0,,-2148,16232,-2056,-130,7,-308
28.296,27.91,-1.73,2.07,-2.50,-10.76,2.39,-2.30,0.80,-1.80,0.58,195.00,358.00,79.00,144.00,524.00,977.00,783.00,981.00,,,,,,,,,,,,0,0,0,,-2188,16076,-1804,-183,-20,-241
28.358,27.97,-1.68,3.15,-2.38,-8.11,8.87,-0.65,-0.49,-0.50,-0.14,190.00,342.00,53.00,109.00,545.00,947.00,795.00,950.00,,,,,,,,,,,,0,0,0,,-2104,16160,-1736,-133,37,-206
28.399,28.02,-1.65,3.76,-3.06,7.66,-3.34,-1.18,-0.48,-0.94,-0.10,195.00,340.00,77.00,81.00,550.00,967.00,800.00,966.00,,,,,,,,,,,,0,0,0,,-2152,16272,-1784,3,206,-182
28.523,28.08,-1.69,3.24,-3.17,0.04,-2.81,-2.35,0.67,-1.67,0.59,198.00,348.00,86.00,108.00,528.00,982.00,781.00,976.00,,,,,,,,,,,,0,0,0,,-2184,16260,-2028,14,163,-165
28.543,28.13,-1.69,2.00,-2.19,-10.41,3.73,-1.78,0.41,-1.13,0.17,192.00,356.00,73.00,137.00,530.00,967.00,791.00,966.00,,,,,,,,,,,,0,0,0,,-2048,16160,-1956,66,27,-171
28.584,28.19,-1.64,2.15,-1.45,-2.46,2.64,-0.53,-1.13,-0.77,-0.55,184.00,347.00,67.00,103.00,563.00,959.00,817.00,971.00,,,,,,,,,,,,0,0,0,,-2156,16164,-1920,-42,83,-131
28.645,28.24,-1.68,4.22,-3.96,6.87,-7.71,-2.51,0.73,-2.12,0.52,203.00,342.00,99.00,94.00,528.00,987.00,790.00,995.00,,,,,,,,,,,,0,0,0,,-2124,16068,-2176,-188,177,-142
28.706,28.30,-1.70,1.09,-1.88,-7.96,2.65,-2.08,0.55,-1.25,0.23,192.00,366.00,74.00,128.00,529.00,975.00,790.00,969.00,,,,,,,,,,,,0,0,0,,-2148,16148,-1972,-277,141,-229
28.727,28.35,-1.65,2.56,-2.37,-6.05,6.51,-0.72,-0.96,-0.59,-0.59,192.00,350.00,58.00,107.00,560.00,962.00,816.00,965.00,,,,,,,,,,,,0,0,0,,-2176,16168,-1988,-266,-24,-188
28.789,28.41,-1.66,3.80,-3.45,5.53,-2.86,-1.86,-0.31,-1.49,0.13,199.00,343.00,78.00,87.00,552.00,989.00,798.00,981.00,,,,,,,,,,,,0,0,0,,-2216,16228,-1924,-235,25,-181
28.891,28.46,-1.72,2.38,-2.22,-2.33,-0.68,-2.78,0.85,-1.88,0.63,191.00,351.00,80.00,112.00,527.00,994.00,782.00,983.00,,,,,,,,,,,,0,0,0,,-2176,16148,-1836,-322,63,-141
28.913,28.52,-1.71,2.29,-2.19,-8.69,8.38,-1.54,-0.25,0.39,-0.62,191.00,352.00,55.00,113.00,547.00,975.00,803.00,929.00,,,,,,,,,,,,0,0,0,,-2076,16032,-1900,-432,64,-127
28.954,28.57,-1.72,3.01,-2.72,5.00,-2.91,-1.97,-0.64,-1.57,-0.17,194.00,347.00,79.00,89.00,563.00,1002.00,812.00,992.00,,,,,,,,,,,,0,0,0,,-2136,16120,-1964,-735,99,-173
29.015,28.63,-1.77,2.52,-2.74,-4.43,2.76,-2.63,0.11,-1.90,0.24,196.00,354.00,69.00,111.00,547.00,1008.00,799.00,994.00,,,,,,,,,,,,0,0,0,,-2192,16068,-1876,-987,-17,-200
29.076,28.68,-1.76,2.35,-2.59,-6.28,1.35,-1.71,0.11,-1.43,0.27,195.00,355.00,77.00,124.00,538.00,972.00,791.00,975.00,,,,,,,,,,,,0,0,0,,-2236,16096,-1512,-854,45,-158
29.138,28.74,-1.70,2.51,-1.87,-0.25,1.62,-0.48,-1.24,-0.46,-0.59,187.00,346.00,68.00,97.00,566.00,960.00,814.00,960.00,,,,,,,,,,,,0,0,0,,-2112,16236,-1400,-668,103,-75
29.2,28.79,-1.72,4.76,-4.32,-3.83,-2.55,-2.16,0.06,-1.49,0.31,205.00,338.00,91.00,125.00,544.00,991.00,790.00,976.00,,,,,,,,,,,,0,0,0,,-2224,16292,-1644,-378,98,12
29.241,28.85,-1.72,0.75,-1.57,-5.36,1.53,-1.74,0.50,-1.08,0.41,190.00,368.00,75.00,119.00,527.00,963.00,780.00,958.00,,,,,,,,,,,,0,0,0,,-2244,16104,-1420,-337,9,-113
29.301,28.90,-1.66,1.81,-0.51,-8.81,10.93,-0.49,-0.67,-0.40,-0.40,176.00,343.00,48.00,106.00,549.00,946.00,805.00,953.00,,,,,,,,,,,,0,0,0,,-2084,16100,-1568,-409,-57,-71
29.383,28.96,-1.64,3.98,-2.95,8.28,-3.78,-1.18,-0.48,-1.09,0.16,193.00,336.00,78.00,80.00,550.00,967.00,791.00,965.00,,,,,,,,,,,,0,0,0,,-2128,16104,-1216,-583,-32,231
29.404,29.01,-1.68,0.95,1.19,-1.20,1.14,-2.47,1.35,-1.38,0.65,163.00,339.00,71.00,102.00,510.00,969.00,774.00,963.00,,,,,,,,,,,,0,0,0,,-2168,16320,-1112,-550,227,46
29.445,29.07,-1.64,1.97,-1.19,-7.23,7.23,-0.90,-0.20,-0.39,-0.22,182.00,347.00,57.00,110.00,539.00,949.00,797.00,948.00,,,,,,,,,,,,0,0,0,,-2024,16228,-1316,-376,249,-97
29.506,29.12,-1.61,3.89,-2.82,5.87,-2.49,-1.12,-0.76,-0.93,-0.08,192.00,336.00,76.00,85.00,558.00,972.00,799.00,965.00,,,,,,,,,,,,0,0,0,,-2000,16128,-1416,-180,-116,-77
29.547,29.18,-1.65,3.69,-2.85,2.64,-3.03,-2.29,0.17,-1.84,0.45,193.00,339.00,83.00,98.00,542.00,993.00,789.00,986.00,,,,,,,,,,,,0,0,0,,-2084,16248,-1196,-145,-156,-3
29.609,29.23,-1.66,2.26,-2.46,-9.03,5.41,-1.97,0.30,-1.46,0.35,194.00,355.00,65.00,124.00,535.00,977.00,788.00,974.00,,,,,,,,,,,,0,0,0,,-2068,16260,-1172,-225,-80,64
29.671,29.29,-1.62,2.79,-1.96,-0.69,1.50,-0.80,-1.46,-0.81,-0.65,187.00,343.00,69.00,99.00,576.00,978.00,822.00,975.00,,,,,,,,,,,,0,0,0,,-1852,16124,-1260,-271,-185,224
29.732,29.34,-1.69,4.74,-4.41,7.96,-7.70,-2.89,0.17,-2.38,0.43,206.00,339.00,97.00,90.00,548.00,1017.00,798.00,1008.00,,,,,,,,,,,,0,0,0,,-1972,16300,-1352,-170,-424,321
29.794,29.40,-1.72,2.12,-1.84,-9.10,4.33,-2.30,0.41,-1.64,0.51,188.00,351.00,69.00,128.00,535.00,987.00,784.00,977.00,,,,,,,,,,,,0,0,0,,-1788,16248,-928,-137,-377,215
29.835,29.45,-1.66,2.29,-0.68,-7.21,10.01,-0.68,-0.44,-0.37,-0.09,176.00,338.00,49.00,102.00,544.00,947.00,791.00,944.00,,,,,,,,,,,,0,0,0,,-1756,16264,-1032,-49,-105,157
29.897,29.51,-1.65,4.87,-3.25,10.87,-3.68,-1.34,-0.08,-1.01,0.22,193.00,327.00,74.00,72.00,540.00,963.00,787.00,960.00,,,,,,,,,,,,0,0,0,,-1744,16100,-1088,-60,156,52
29.999,29.56,-1.69,3.35,-2.35,2.44,-1.58,-2.51,1.37,-1.11,0.37,189.00,339.00,77.00,95.00,510.00,970.00,782.00,960.00,,,,,,,,,,,,0,0,0,,-1740,16060,-1140,-192,177,-21
30.019,29.62,-1.64,2.48,-0.74,-7.82,9.48,-0.76,-0.25,-0.31,-0.06,176.00,336.00,51.00,106.00,539.00,945.00,789.00,941.00,,,,,,,,,,,,0,0,0,,-1668,16240,-1204,-198,172,5
30.062,29.67,-1.63,3.38,-2.06,4.36,0.62,-1.40,0.35,-0.81,-0.03,186.00,336.00,66.00,83.00,528.00,954.00,795.00,959.00,,,,,,,,,,,,1,1,0,,-1632,16224,-1104,-262,54,-66
30.121,29.73,-1.65,3.80,-2.79,3.61,-2.91,-2.00,0.38,-1.59,0.46,192.00,337.00,81.00,94.00,533.00,976.00,785.00,976.00,,,,,,,,,,,,1,1,0,,-1712,16156,-1016,-242,107,-103
30.183,29.78,-1.65,2.22,-1.87,-7.63,5.51,-1.64,0.40,-1.01,0.27,188.00,350.00,63.00,117.00,529.00,962.00,785.00,959.00,,,,,,,,,,,,1,1,0,,-1720,16232,-1248,-101,181,-141
30.223,29.84,-1.60,3.59,-2.03,-1.68,4.11,-0.58,-0.98,-0.53,-0.45,185.00,333.00,61.00,96.00,559.00,957.00,809.00,959.00,,,,,,,,,,,,1,1,0,,-1628,16268,-1084,-174,114,-103
30.285,29.89,-1.63,4.23,-3.32,8.84,-5.99,-2.18,0.20,-1.70,0.36,196.00,336.00,87.00,83.00,540.00,988.00,791.00,983.00,,,,,,,,,,,,1,1,0,,-1748,16236,-1152,-242,141,-105
30.366,29.95,-1.65,1.70,-0.99,-2.85,2.49,-2.15,0.60,-1.48,0.45,181.00,349.00,68.00,105.00,528.00,976.00,784.00,972.00,,,,,,,,,,,,1,1,0,,-1664,16208,-1132,-352,139,-82
30.387,30.00,-1.61,3.20,-1.90,-4.33,7.25,-0.88,-0.37,-0.41,-0.30,185.00,337.00,54.00,98.00,544.00,953.00,801.00,951.00,,,,,,,,,,,,1,1,0,,-1632,16364,-1040,-358,191,-37
30.429,30.06,-1.62,3.89,-2.82,11.11,-3.51,-1.76,-0.38,-1.25,-0.00,192.00,336.00,73.00,71.00,553.00,987.00,800.00,975.00,,,,,,,,,,,,1,1,0,,-1652,16340,-1012,-339,180,-121
30.491,30.11,-1.66,2.89,-2.00,-1.14,-0.37,-2.34,0.84,-1.68,0.64,187.00,342.00,77.00,106.00,523.00,977.00,779.00,975.00,,,,,,,,,,,,1,1,0,,-1572,16160,-1088,-372,109,-144
30.553,30.17,-1.62,3.02,-1.64,-7.87,10.61,-1.00,0.15,-0.42,-0.02,183.00,337.00,48.00,103.00,530.00,944.00,789.00,944.00,,,,,,,,,,,,1,1,0,,-1688,16128,-1016,-471,-117,-87
30.594,30.22,-1.57,4.13,-3.28,3.59,0.88,-0.56,-0.65,-0.68,-0.15,196.00,337.00,66.00,85.00,549.00,948.00,798.00,957.00,,,,,,,,,,,,1,1,0,,-1620,16276,-840,-506,-68,-74
30.719,30.28,-1.59,3.98,-2.95,4.55,-3.90,-1.99,0.48,-1.60,0.51,193.00,336.00,84.00,93.00,530.00,973.00,783.00,975.00,,,,,,,,,,,,1,1,0,,-1744,16308,-680,-615,27,-53
30.739,30.33,-1.58,2.51,-1.77,-7.91,5.61,-1.30,0.32,-1.00,0.29,186.00,345.00,63.00,118.00,528.00,951.00,784.00,958.00,,,,,,,,,,,,1,1,0,,-1628,16320,-736,-545,180,15
30.78,30.39,-1.50,2.94,-1.41,-2.51,7.34,-0.07,-1.18,0.09,-0.77,181.00,336.00,52.00,91.00,560.00,943.00,814.00,944.00,,,,,,,,,,,,1,1,0,,-1732,16180,-692,-517,182,105
30.84,30.44,-1.50,5.29,-4.77,11.79,-6.55,-1.47,0.10,-1.42,0.29,208.00,335.00,85.00,75.00,536.00,963.00,790.00,974.00,,,,,,,,,,,,1,1,0,,-1716,16304,-700,-673,75,221
30.902,30.50,-1.53,2.25,-1.38,-1.66,1.83,-2.17,1.22,-0.97,0.28,183.00,345.00,69.00,102.00,511.00,961.00,784.00,957.00,,,,,,,,,,,,1,1,0,,-1516,16084,-840,-601,-191,515
30.944,30.55,-1.48,3.21,-1.71,-4.24,8.27,-0.53,-0.18,-0.29,-0.21,183.00,335.00,51.00,95.00,535.00,935.00,795.00,944.00,,,,,,,,,,,,1,1,0,,-1408,16104,-652,-791,-244,610
31.005,30.61,-1.47,4.78,-3.12,9.72,-1.46,-1.24,-0.12,-1.07,-0.04,192.00,327.00,67.00,71.00,540.00,960.00,799.00,969.00,,,,,,,,,,,,1,1,0,,-1484,16096,-768,-1116,-358,828
31.088,30.66,-1.53,3.60,-2.72,4.27,-2.67,-2.58,1.35,-1.51,0.39,192.00,339.00,79.00,91.00,511.00,973.00,787.00,975.00,,,,,,,,,,,,1,1,0,,-1256,16140,-488,-1262,-193,966
31.13,30.72,-1.51,2.37,-1.02,-10.90,11.63,-1.25,0.09,-0.73,-0.15,179.00,340.00,48.00,113.00,534.00,955.00,799.00,959.00,,,,,,,,,,,,1,1,0,,-996,15948,-336,-1341,20,1054
31.171,30.77,-1.48,3.89,-2.82,0.88,1.51,-0.96,-0.65,-0.93,-0.31,192.00,336.00,67.00,93.00,553.00,963.00,809.00,971.00,,,,,,,,,,,,1,1,0,,-976,16152,-88,-1695,21,1103
31.232,30.83,-1.41,4.47,-3.11,10.05,-6.39,0.02,-0.26,-1.40,0.19,193.00,331.00,87.00,80.00,532.00,917.00,794.00,976.00,,,,,,,,,,,,1,1,0,,-800,16372,288,-1228,205,1307
31.293,30.88,-1.41,2.61,-1.80,-6.24,4.75,-1.40,1.14,-0.55,0.14,186.00,344.00,64.00,113.00,506.00,934.00,784.00,945.00,,,,,,,,,,,,1,1,0,,-700,16248,772,-1627,194,1241
31.314,30.94,-1.31,3.65,-1.44,-1.60,5.99,0.53,-0.81,-0.76,-0.37,179.00,327.00,55.00,91.00,543.00,912.00,809.00,966.00,,,,,,,,,,,,1,1,0,,-412,16492,832,-1502,475,1074
31.375,30.99,-1.30,4.67,-3.75,11.64,-5.84,-1.12,0.29,-0.97,0.28,199.00,334.00,82.00,74.00,527.00,945.00,784.00,957.00,,,,,,,,,,,,1,1,0,,-188,16864,884,-606,551,621
31.437,31.05,-1.33,3.55,-2.32,0.85,2.37,-1.83,1.61,-0.75,0.35,188.00,336.00,64.00,91.00,497.00,938.00,778.00,947.00,,,,,,,,,,,,1,1,0,,-20,16460,784,-257,490,209
31.499,31.10,-1.24,3.71,-1.87,-5.22,9.72,0.37,-0.17,0.17,-0.24,183.00,330.00,48.00,95.00,526.00,902.00,790.00,928.00,,,,,,,,,,,,1,1,0,,-168,16284,1028,107,317,182
31.562,31.16,-1.21,4.19,-2.92,13.83,-3.65,-0.59,-0.06,0.65,-0.31,192.00,333.00,70.00,64.00,532.00,934.00,786.00,912.00,,,,,,,,,,,,1,1,0,,-100,16224,1072,-93,253,222
31.603,31.21,-1.09,3.64,-2.45,1.97,-1.66,1.25,0.17,-1.23,0.75,189.00,336.00,78.00,97.00,508.00,863.00,768.00,955.00,,,,,,,,,,,,1,1,0,,72,16360,832,-184,350,91
31.644,31.27,-1.08,3.43,-2.47,-4.99,7.47,-0.92,0.16,-0.52,0.01,190.00,339.00,54.00,100.00,529.00,941.00,789.00,947.00,,,,,,,,,,,,1,1,0,,-96,16376,960,-470,325,-84
31.705,31.32,-1.04,3.89,-2.82,0.83,4.52,-0.28,-0.95,-0.54,-0.35,192.00,336.00,57.00,86.00,555.00,945.00,805.00,957.00,,,,,,,,,,,,1,1,0,,-44,16168,888,-463,213,-78
31.768,31.38,-1.19,4.57,-4.26,9.64,-6.26,-4.10,1.12,-1.87,0.47,205.00,340.00,87.00,81.00,532.00,1040.00,789.00,987.00,,,,,,,,,,,,1,1,0,,-28,16356,940,-190,39,15
31.809,31.43,-1.21,2.77,-3.10,-4.49,2.51,-1.61,0.42,-0.98,0.14,199.00,354.00,70.00,112.00,528.00,960.00,790.00,961.00,,,,,,,,,,,,1,1,0,,88,16368,1088,-33,35,-34
31.872,31.49,-1.17,3.52,-2.60,-2.67,6.35,-0.43,-0.76,-0.27,-0.67,191.00,339.00,55.00,94.00,551.00,946.00,815.00,955.00,,,,,,,,,,,,1,1,0,,-40,16392,876,-113,187,-78
31.933,31.54,-1.16,0.42,2.30,11.24,-5.25,-0.86,0.10,-0.70,0.12,155.00,336.00,80.00,74.00,530.00,940.00,787.00,951.00,,,,,,,,,,,,1,1,0,,0,16276,968,85,199,86
31.995,31.60,-1.19,3.03,-1.54,-0.46,3.10,-1.70,1.39,-0.85,0.74,182.00,336.00,63.00,94.00,502.00,939.00,763.00,941.00,,,,,,,,,,,,1,1,0,,-16,16280,928,46,304,-1
32.035,31.65,-1.13,2.86,-1.18,-6.63,11.81,-0.11,-0.08,0.50,-0.22,179.00,335.00,44.00,95.00,528.00,917.00,784.00,915.00,,,,,,,,,,,,1,1,0,,84,16420,756,88,277,-37
32.097,31.71,-1.09,4.13,-2.61,11.87,-1.34,-0.20,-0.43,-0.43,0.07,189.00,331.00,64.00,65.00,539.00,929.00,785.00,942.00,,,,,,,,,,,,1,1,0,,32,16212,720,157,116,46
32.179,31.76,-1.12,5.84,-3.28,6.12,-1.06,-1.69,1.05,-0.89,0.63,190.00,315.00,70.00,81.00,511.00,947.00,768.00,945.00,,,,,,,,,,,,1,1,0,,160,16364,532,23,79,10
32.2,31.82,-1.09,2.76,-2.34,-8.13,9.58,-0.59,0.18,-0.26,0.06,191.00,347.00,51.00,107.00,525.00,928.00,783.00,936.00,,,,,,,,,,,,1,1,0,,128,16188,496,-192,48,-124
32.282,31.87,-1.03,3.47,-2.19,4.01,1.60,0.11,-0.81,0.05,-0.44,187.00,336.00,63.00,82.00,547.00,927.00,800.00,937.00,,,,,,,,,,,,1,1,0,,172,16268,684,-402,77,-64
32.302,31.93,-1.06,2.69,-3.72,11.43,-7.48,-1.61,0.42,-1.26,0.40,206.00,361.00,90.00,78.00,528.00,960.00,783.00,965.00,,,,,,,,,,,,1,1,0,,200,16420,648,-262,126,-195
32.364,31.98,-1.05,1.85,-1.65,-5.06,4.36,-0.84,0.27,-0.52,0.13,187.00,353.00,64.00,109.00,525.00,935.00,784.00,944.00,,,,,,,,,,,,1,1,0,,264,16416,884,-257,23,-225
32.425,32.04,-1.00,3.48,-2.10,-1.36,7.31,-0.09,-0.67,0.04,-0.46,186.00,335.00,51.00,87.00,545.00,931.00,801.00,938.00,,,,,,,,,,,,1,1,0,,100,16416,1016,-174,-239,-147
32.467,32.09,-1.01,4.51,-3.50,12.23,-4.63,-1.20,-0.09,-1.07,0.31,197.00,334.00,76.00,70.00,539.00,958.00,784.00,960.00,,,,,,,,,,,,1,1,0,,204,16224,824,227,-41,-320
32.569,32.15,-1.09,3.22,-2.60,3.57,-1.23,-2.61,1.43,-1.44,0.82,192.00,343.00,74.00,90.00,509.00,972.00,768.00,961.00,,,,,,,,,,,,1,1,0,,124,16436,260,177,208,-275
32.59,32.20,-1.05,3.20,-1.80,-5.56,10.63,-0.22,-0.56,0.39,-0.30,184.00,336.00,46.00,94.00,543.00,933.00,789.00,921.00,,,,,,,,,,,,1,1,0,,124,16172,572,-446,-20,-295
32.631,32.26,-1.02,3.85,-2.42,7.62,0.09,-0.60,-0.40,-0.45,0.10,188.00,333.00,64.00,74.00,542.00,943.00,784.00,942.00,,,,,,,,,,,,1,1,0,,28,16224,828,-631,-114,-346
32.693,32.31,-1.04,4.17,-3.01,8.07,-3.47,-1.45,0.55,-0.85,0.62,193.00,334.00,77.00,80.00,523.00,951.00,768.00,944.00,,,,,,,,,,,,1,1,0,,104,16112,972,-426,-160,-328
32.754,32.37,-1.02,2.92,-1.61,-4.52,5.68,-0.56,0.11,-0.10,0.15,183.00,338.00,59.00,103.00,527.00,929.00,777.00,928.00,,,,,,,,,,,,1,1,0,,180,16420,844,-280,-204,-386
32.815,32.42,-0.97,3.38,-2.06,3.22,2.77,0.09,-0.94,0.21,-0.47,186.00,336.00,60.00,82.00,551.00,931.00,799.00,932.00,,,,,,,,,,,,1,1,0,,136,16148,720,-795,-233,-649
32.875,32.48,-0.98,4.39,-3.56,10.57,-5.25,-1.25,0.09,-1.04,0.47,198.00,336.00,81.00,76.00,534.00,955.00,777.00,955.00,,,,,,,,,,,,1,1,0,,-156,16296,908,-765,-194,-616
32.957,32.53,-0.99,2.54,-1.38,-10.91,15.47,-1.13,0.87,-0.06,0.33,182.00,341.00,39.00,102.00,511.00,931.00,769.00,922.00,,,,,,,,,,,,1,1,0,,-84,16056,1092,-794,-280,-600
32.978,32.59,-0.93,3.81,-1.91,-0.00,7.97,0.22,-0.64,0.64,-0.38,183.00,329.00,48.00,81.00,541.00,919.00,789.00,914.00,,,,,,,,,,,,1,1,0,,-164,16188,1572,-461,-330,-352
33.019,32.64,-0.91,4.39,-2.99,14.87,-5.76,-0.53,-0.42,-0.26,0.18,192.00,331.00,77.00,65.00,542.00,941.00,778.00,933.00,,,,,,,,,,,,1,1,0,,-352,16364,1900,-176,218,-380
33.081,32.70,-0.94,3.29,-1.93,4.54,-0.53,-1.52,1.00,-0.72,0.82,185.00,336.00,70.00,85.00,511.00,942.00,758.00,934.00,,,,,,,,,,,,1,1,0,,-324,16260,1616,59,400,-293
33.142,32.75,-0.91,2.58,-0.88,-6.58,10.57,-0.41,-0.15,0.57,-0.19,177.00,336.00,47.00,98.00,533.00,930.00,782.00,912.00,,,,,,,,,,,,1,1,0,,-144,16288,1352,134,358,-401
33.203,32.81,-0.90,4.01,-1.97,11.87,-1.34,-0.62,-0.53,-0.34,0.07,183.00,327.00,64.00,65.00,546.00,947.00,784.00,939.00,,,,,,,,,,,,1,1,0,,-360,16180,1256,-182,312,-452
33.305,32.86,-0.94,3.92,-2.64,8.49,-4.09,-1.72,0.39,-0.81,0.32,190.00,334.00,79.00,80.00,530.00,965.00,780.00,950.00,,,,,,,,,,,,1,1,0,,-396,16208,1228,-67,307,-253
33.326,32.92,-0.91,2.91,-1.71,-5.65,4.56,-0.47,0.00,-0.14,0.33,184.00,339.00,64.00,111.00,529.00,928.00,770.00,925.00,,,,,,,,,,,,1,1,0,,-276,16340,1132,128,149,-162
33.367,32.97,-0.83,3.07,-0.94,0.33,7.48,0.70,-1.28,0.80,-0.57,176.00,330.00,49.00,81.00,555.00,917.00,795.00,913.00,,,,,,,,,,,,1,1,0,,-296,16224,1136,347,-353,-25
33.427,33.03,-0.84,5.37,-3.42,14.70,-6.64,-1.02,0.22,-0.73,0.43,193.00,322.00,81.00,67.00,528.00,943.00,774.00,944.00,,,,,,,,,,,,1,1,0,,-336,16104,1364,613,-357,256
33.49,33.08,-0.84,2.94,-1.41,0.38,-2.27,-0.89,0.78,0.03,0.57,181.00,336.00,83.00,105.00,511.00,924.00,758.00,913.00,,,,,,,,,,,,1,1,0,,-340,16336,928,365,57,112
33.572,33.14,-0.79,3.94,-1.65,14.57,1.59,0.34,-0.37,0.61,-0.14,180.00,325.00,52.00,54.00,532.00,908.00,779.00,909.00,,,,,,,,,,,,1,1,1,,-108,16072,748,167,20,100
33.592,33.19,-0.76,4.03,-1.78,12.88,-2.24,-0.20,-0.19,0.17,0.16,181.00,325.00,66.00,64.00,532.00,923.00,773.00,918.00,,,,,,,,,,,,1,1,1,,-236,16332,844,-64,45,106
33.654,33.25,-0.80,3.12,-1.67,3.09,1.62,-1.56,1.37,-0.32,0.83,183.00,336.00,64.00,85.00,501.00,934.00,752.00,919.00,,,,,,,,,,,,1,1,1,,-196,16472,1000,-302,-193,-165
33.675,33.30,-0.75,2.97,-0.91,-5.22,9.72,0.14,-0.17,0.69,0.01,176.00,331.00,48.00,95.00,528.00,910.00,772.00,903.00,,,,,,,,,,,,1,1,1,,-168,16572,1020,268,-380,-80
33.756,33.36,-0.71,4.62,-2.08,9.44,-0.52,-0.01,-0.63,0.38,-0.15,182.00,320.00,64.00,70.00,543.00,927.00,783.00,918.00,,,,,,,,,,,,1,1,1,,-272,16212,916,306,-32,-146
33.798,33.41,-0.75,3.52,-1.71,8.69,-4.39,-1.44,0.36,-0.48,0.42,182.00,331.00,80.00,80.00,528.00,955.00,771.00,935.00,,,,,,,,,,,,1,1,1,,-204,16176,868,284,262,-74
33.859,33.47,-0.75,2.18,-0.95,-13.38,8.66,-0.84,0.27,-0.22,0.36,179.00,342.00,59.00,135.00,525.00,935.00,770.00,927.00,,,,,,,,,,,,1,1,1,,-100,16120,772,17,405,12
33.9,33.52,-0.71,3.31,-1.74,3.75,2.90,0.11,-1.24,0.31,-0.50,183.00,334.00,59.00,80.00,560.00,938.00,799.00,929.00,,,,,,,,,,,,1,1,1,,96,16388,620,3,507,-13
33.961,33.58,-0.74,5.00,-3.67,11.11,-6.54,-1.30,-0.03,-0.77,0.38,197.00,329.00,86.00,77.00,538.00,960.00,777.00,947.00,,,,,,,,,,,,1,1,1,,100,16516,512,-227,162,-95
34.022,33.63,-0.76,2.74,-1.45,-1.57,3.18,-1.10,0.85,0.02,0.62,182.00,339.00,64.00,98.00,511.00,930.00,756.00,912.00,,,,,,,,,,,,1,1,1,,48,16376,748,483,-380,-111
34.084,33.69,-0.71,3.57,-1.11,-2.96,11.87,0.28,-0.25,0.87,-0.10,176.00,325.00,41.00,82.00,529.00,907.00,774.00,899.00,,,,,,,,,,,,1,1,1,,-96,16220,1012,339,-211,-179
34.126,33.74,-0.68,4.71,-2.21,12.12,-1.13,-0.25,-0.07,0.30,0.21,183.00,320.00,63.00,64.00,529.00,922.00,769.00,912.00,,,,,,,,,,,,1,1,1,,-76,16188,780,408,37,-233
34.21,33.80,-0.71,3.22,-1.61,5.81,-0.15,-1.32,1.22,-0.14,0.77,182.00,334.00,67.00,80.00,503.00,929.00,752.00,914.00,,,,,,,,,,,,1,1,1,,-228,16216,656,137,146,-192
34.231,33.85,-0.69,2.78,-0.84,-3.39,10.30,-0.14,-0.04,0.95,-0.13,176.00,333.00,45.00,87.00,527.00,917.00,774.00,897.00,,,,,,,,,,,,1,1,1,,-80,16324,560,5,299,-229
34.293,33.91,-0.61,4.54,-2.65,5.43,2.33,0.82,-1.78,0.61,-0.25,188.00,326.00,59.00,76.00,569.00,925.00,784.00,912.00,,,,,,,,,,,,1,1,1,,-88,16284,668,-226,378,-257
34.395,33.96,-0.65,4.81,-2.94,8.89,-4.68,-1.33,0.33,5.08,-1.45,190.00,325.00,81.00,80.00,528.00,952.00,771.00,789.00,,,,,,,,,,,,1,1,1,,-68,16340,736,-211,239,-195
34.416,34.02,-0.64,2.65,-1.31,-11.66,8.39,-0.50,0.05,0.27,0.29,181.00,339.00,58.00,127.00,528.00,928.00,766.00,911.00,,,,,,,,,,,,1,1,1,,-176,16368,616,-439,159,-356
34.458,34.07,-0.56,4.29,-2.17,3.19,3.72,1.02,-1.25,0.85,-0.57,184.00,325.00,57.00,80.00,551.00,905.00,794.00,911.00,,,,,,,,,,,,1,1,1,,-132,16224,596,-403,-34,-358
34.5,34.13,-0.60,9.20,-5.55,15.49,-6.67,-1.39,0.17,-0.75,0.47,202.00,293.00,80.00,65.00,533.00,958.00,773.00,944.00,,,,,,,,,,,,1,1,1,,-312,16296,836,-255,72,-225
34.561,34.18,-0.63,3.29,-1.93,-0.30,2.47,-1.30,0.32,-0.43,0.60,185.00,336.00,65.00,95.00,528.00,951.00,763.00,929.00,,,,,,,,,,,,1,1,1,,-252,16284,876,-264,288,-72
34.624,34.24,-0.63,3.37,-1.04,-1.19,8.37,-0.55,-0.35,0.51,-0.10,176.00,327.00,48.00,84.00,540.00,940.00,779.00,912.00,,,,,,,,,,,,1,1,1,,24,16292,676,0,451,-248
34.664,34.29,-0.62,3.92,-1.84,12.88,-2.24,-0.51,-0.57,0.03,0.04,182.00,327.00,66.00,64.00,546.00,944.00,780.00,926.00,,,,,,,,,,,,1,1,1,,-244,16236,752,-8,286,-206
34.747,34.35,-0.66,3.74,-2.48,6.05,-2.31,-1.45,0.97,-0.09,0.70,189.00,335.00,75.00,84.00,511.00,940.00,754.00,914.00,,,,,,,,,,,,1,1,1,,-420,16304,824,151,54,-116
34.789,34.40,-0.63,3.17,-1.08,-3.15,8.27,-0.04,-0.11,0.83,0.01,177.00,330.00,50.00,91.00,528.00,915.00,770.00,898.00,,,,,,,,,,,,1,1,1,,-188,16388,828,-19,130,-191
34.851,34.46,-0.51,3.83,-1.71,5.90,0.67,1.87,-2.95,0.95,-0.29,181.00,327.00,64.00,78.00,595.00,916.00,781.00,901.00,,,,,,,,,,,,1,1,1,,-76,16296,752,65,109,-113
34.892,34.51,-0.54,4.98,-3.19,11.69,-5.40,-1.12,0.33,-0.14,0.40,192.00,325.00,80.00,73.00,526.00,944.00,767.00,923.00,,,,,,,,,,,,1,1,1,,-212,16296,648,-115,34,-217
34.954,34.57,-0.54,2.67,-1.01,-2.42,4.06,-0.51,0.26,0.51,0.31,178.00,336.00,62.00,99.00,522.00,923.00,762.00,902.00,,,,,,,,,,,,1,1,1,,-120,16432,592,-74,35,-243
35.015,34.62,-0.48,3.45,-1.38,1.48,6.72,0.66,-0.93,1.12,-0.42,179.00,329.00,50.00,79.00,545.00,910.00,784.00,898.00,,,,,,,,,,,,1,1,1,,-240,16348,596,88,-51,-166
35.078,34.68,-0.47,5.52,-3.75,14.95,-5.30,-0.41,-0.09,0.04,0.34,196.00,323.00,75.00,64.00,531.00,928.00,767.00,918.00,,,,,,,,,,,,1,1,1,,-264,16356,744,203,56,-175
35.119,34.73,-0.51,2.78,-0.84,3.75,2.90,-1.20,0.89,0.36,0.29,176.00,333.00,59.00,80.00,511.00,933.00,765.00,908.00,,,,,,,,,,,,1,1,1,,-148,16200,452,126,19,-126
35.181,34.79,-0.48,3.40,-0.63,-4.56,13.34,0.15,-0.34,1.15,-0.27,172.00,323.00,39.00,84.00,533.00,914.00,777.00,893.00,,,,,,,,,,,,1,1,1,,-148,16244,472,159,-219,-69
35.221,34.84,-0.47,5.06,-2.73,15.29,-2.77,-0.25,-0.55,0.35,0.05,187.00,320.00,65.00,59.00,543.00,934.00,775.00,914.00,,,,,,,,,,,,1,1,1,,-68,16344,412,56,-87,-165
35.282,34.90,-0.52,4.04,-2.48,6.29,-0.85,-1.49,0.52,-0.47,0.73,188.00,331.00,69.00,80.00,524.00,953.00,758.00,927.00,,,,,,,,,,,,1,1,1,,-144,16284,632,-139,-3,-317
35.344,34.95,-0.52,3.05,-1.24,-5.56,10.63,-0.59,-0.34,0.44,0.04,179.00,333.00,46.00,94.00,540.00,941.00,774.00,911.00,,,,,,,,,,,,1,1,1,,-196,16228,696,-153,-27,-207
35.405,35.01,-0.50,3.56,-1.31,4.02,2.49,-0.17,-1.12,0.27,-0.28,178.00,327.00,60.00,80.00,559.00,945.00,790.00,925.00,,,,,,,,,,,,1,1,1,,-252,16504,720,59,-77,-136
35.508,35.06,-0.55,4.93,-2.88,9.50,-5.12,-1.42,-0.09,-0.42,0.26,189.00,323.00,82.00,79.00,541.00,966.00,777.00,937.00,,,,,,,,,,,,1,1,1,,-252,16440,604,109,43,-212
35.529,35.12,-0.55,2.76,-1.15,-1.75,3.83,-0.53,0.06,0.64,0.12,179.00,336.00,62.00,97.00,528.00,929.00,768.00,902.00,,,,,,,,,,,,1,1,1,,-176,16244,540,145,45,-185
35.55,35.17,-0.49,4.25,-1.65,3.82,5.21,0.55,-0.89,1.10,-0.44,179.00,321.00,52.00,75.00,545.00,913.00,785.00,899.00,,,,,,,,,,,,1,1,1,,-188,16268,416,84,8,-112
35.611,35.23,-0.49,5.65,-3.12,15.77,-5.33,-0.48,-0.06,0.33,0.25,189.00,316.00,74.00,62.00,531.00,930.00,767.00,910.00,,,,,,,,,,,,1,1,1,,-280,16272,492,-144,146,-161
35.673,35.28,-0.53,3.87,-1.31,5.07,0.95,-1.17,0.91,0.24,0.49,177.00,323.00,64.00,80.00,510.00,931.00,758.00,907.00,,,,,,,,,,,,1,1,1,,-316,16248,300,-66,144,-172
35.715,35.34,-0.48,4.39,-1.38,-3.37,12.94,0.39,-0.49,1.31,-0.20,176.00,317.00,39.00,81.00,535.00,909.00,772.00,886.00,,,,,,,,,,,,1,1,1,,-232,16288,380,6,129,-134
35.777,35.39,-0.48,4.64,-1.98,14.49,-2.22,-0.40,-0.30,0.40,0.05,181.00,319.00,64.00,60.00,537.00,933.00,774.00,912.00,,,,,,,,,,,,1,1,1,,-348,16388,440,4,128,-161
35.859,35.45,-0.52,4.79,-2.44,27.43,-9.74,-1.34,0.65,-0.23,0.82,185.00,321.00,76.00,44.00,519.00,944.00,751.00,916.00,,,,,,,,,,,,1,1,1,,-216,16216,472,-93,33,-186
35.88,35.50,-0.54,3.67,-1.14,-2.47,7.68,-0.85,0.13,0.35,0.17,176.00,324.00,51.00,90.00,529.00,939.00,770.00,911.00,,,,,,,,,,,,1,1,1,,-324,16300,536,-87,-16,-188
35.961,35.56,-0.51,4.08,-1.28,7.62,0.09,-0.09,-1.08,0.82,-0.60,176.00,320.00,64.00,74.00,557.00,941.00,796.00,913.00,,,,,,,,,,,,1,1,1,,-200,16236,480,-56,-10,-134
36.004,35.61,-0.56,4.95,-2.79,12.54,-6.14,-1.42,-0.12,-0.73,0.43,188.00,322.00,82.00,72.00,542.00,967.00,774.00,944.00,,,,,,,,,,,,1,1,1,,-364,16240,560,-89,109,-58
36.066,35.67,-0.60,1.61,-0.66,-2.23,3.41,-1.31,0.25,0.36,0.12,178.00,347.00,64.00,100.00,530.00,953.00,772.00,912.00,,,,,,,,,,,,1,1,1,,-176,16224,596,-216,145,-110
36.126,35.72,-0.58,3.26,-1.11,4.30,3.03,-0.24,-1.12,0.71,-0.68,177.00,329.00,58.00,78.00,560.00,948.00,801.00,919.00,,,,,,,,,,,,1,1,1,,-224,16376,444,-137,157,-87
36.168,35.78,-0.60,5.54,-3.66,17.83,-6.51,-1.09,-0.34,-0.24,0.15,195.00,322.00,76.00,59.00,545.00,960.00,779.00,933.00,,,,,,,,,,,,1,1,1,,-284,16320,452,43,92,-94
36.229,35.83,-0.66,2.06,-1.32,5.48,0.81,-1.79,1.09,2.16,-0.13,183.00,347.00,64.00,79.00,511.00,950.00,757.00,855.00,,,,,,,,,,,,1,1,1,,-216,16236,412,6,110,-71
36.29,35.89,-0.64,3.03,0.27,-2.14,12.05,-0.15,-0.10,1.20,-0.33,165.00,320.00,40.00,79.00,529.00,919.00,779.00,893.00,,,,,,,,,,,,1,1,1,,-156,16276,476,-6,156,-68
36.332,35.94,-0.63,5.15,-2.86,20.96,-4.96,-0.51,-0.33,0.30,0.09,188.00,320.00,66.00,50.00,539.00,938.00,774.00,915.00,,,,,,,,,,,,1,1,1,,-60,16212,504,-80,107,-70
36.372,36.00,-0.69,4.08,-1.28,7.93,-0.86,-1.79,1.09,-0.35,0.60,176.00,320.00,67.00,75.00,511.00,950.00,762.00,926.00,,,,,,,,,,,,1,1,1,,-192,16224,476,-83,127,-116
36.434,36.05,-0.69,3.74,-1.58,-2.79,8.15,-0.71,-0.19,0.36,-0.05,180.00,327.00,50.00,90.00,537.00,942.00,779.00,916.00,,,,,,,,,,,,1,1,1,,-60,16312,580,-99,140,-158
36.495,36.11,-0.65,4.28,-1.45,-42.87,73.59,0.21,-1.28,0.77,-0.56,177.00,319.00,3.00,76.00,560.00,935.00,795.00,914.00,,,,,,,,,,,,1,1,1,,-92,16392,352,-178,79,-165
36.537,36.16,-0.69,5.47,-3.45,13.53,-6.02,-1.50,0.07,-0.66,0.34,193.00,321.00,80.00,69.00,537.00,965.00,777.00,944.00,,,,,,,,,,,,1,1,1,,-16,16392,292,-99,69,-166
36.599,36.22,-0.72,2.76,-1.15,-2.78,5.73,-1.30,0.32,0.04,0.34,179.00,336.00,57.00,96.00,528.00,951.00,767.00,918.00,,,,,,,,,,,,1,1,1,,-76,16208,360,-91,4,-245
36.66,36.27,-0.69,3.96,-1.45,1.66,7.41,-0.07,-1.02,-0.92,0.05,178.00,323.00,48.00,77.00,555.00,939.00,793.00,961.00,,,,,,,,,,,,1,1,1,,-228,16264,348,-177,70,-232
36.702,36.33,-0.71,5.68,-3.52,13.83,-3.65,-1.19,-0.27,-0.28,0.09,193.00,319.00,70.00,64.00,544.00,962.00,782.00,936.00,,,,,,,,,,,,1,1,1,,-228,16340,176,-452,120,-211
36.762,36.38,-0.80,3.32,-1.64,4.41,1.46,-2.51,1.33,-0.50,0.50,182.00,333.00,63.00,81.00,511.00,971.00,768.00,934.00,,,,,,,,,,,,1,1,1,,-104,16236,652,-457,239,-210
36.823,36.44,-0.79,3.47,-1.07,-1.09,9.12,-0.61,-0.50,0.61,-0.37,176.00,326.00,46.00,82.00,545.00,946.00,789.00,915.00,,,,,,,,,,,,1,1,1,,-56,16412,420,-82,137,-183
36.866,36.49,-0.81,4.89,-2.47,12.63,-1.88,-1.23,-0.59,-0.39,0.06,185.00,320.00,65.00,64.00,554.00,972.00,785.00,941.00,,,,,,,,,,,,1,1,1,,-292,16484,504,85,9,-350
36.971,36.55,-0.86,4.24,-2.55,8.87,-2.24,-1.81,0.46,-0.60,0.61,188.00,329.00,71.00,75.00,529.00,967.00,765.00,935.00,,,,,,,,,,,,1,1,1,,-176,16240,560,-25,142,-293
36.992,36.60,-0.85,3.31,-1.74,-2.15,5.20,-0.66,-0.07,0.56,-0.14,183.00,334.00,58.00,95.00,533.00,937.00,780.00,911.00,,,,,,,,,,,,1,1,1,,-236,16124,672,-505,416,-458
37.033,36.66,-0.81,4.54,-1.95,7.35,-1.47,-0.04,-1.03,0.68,-0.39,181.00,320.00,70.00,78.00,555.00,938.00,789.00,913.00,,,,,,,,,,,,1,1,1,,-60,16312,456,-246,519,-367
37.096,36.71,-0.85,4.42,-3.38,14.22,-4.81,-1.53,0.19,-0.69,0.54,196.00,334.00,74.00,65.00,534.00,963.00,769.00,940.00,,,,,,,,,,,,1,1,1,,-292,16452,512,-93,107,-291
37.157,36.77,-0.86,2.76,-1.15,-0.90,2.96,-1.09,0.25,0.18,0.23,179.00,336.00,64.00,96.00,528.00,945.00,770.00,916.00,,,,,,,,,,,,1,1,1,,-488,16372,640,-148,1,-313
37.198,36.82,-0.81,5.24,-2.98,2.52,7.12,0.25,-1.09,1.10,-0.56,189.00,320.00,48.00,75.00,554.00,929.00,790.00,902.00,,,,,,,,,,,,1,1,1,,-408,16472,520,-50,-128,-269
37.26,36.88,-0.81,4.02,-2.67,15.60,-2.59,-0.89,-0.13,0.13,0.05,190.00,333.00,64.00,58.00,537.00,947.00,778.00,922.00,,,,,,,,,,,,1,1,1,,-408,16232,760,24,58,-300
37.322,36.93,-0.86,4.02,-1.88,7.44,-0.13,-1.79,1.09,-0.16,0.56,182.00,326.00,65.00,75.00,511.00,950.00,761.00,920.00,,,,,,,,,,,,1,1,1,,-420,16192,476,330,406,-323
37.404,36.99,-0.84,3.18,-0.87,-2.58,10.87,-0.51,-0.29,0.78,-0.22,175.00,328.00,43.00,83.00,538.00,937.00,780.00,905.00,,,,,,,,,,,,1,1,1,,-356,16296,296,24,439,-323
37.425,37.04,-0.83,4.71,-2.21,17.63,-8.08,-0.69,-0.74,-0.10,0.10,183.00,320.00,83.00,62.00,553.00,955.00,779.00,929.00,,,,,,,,,,,,1,1,1,,-364,16316,636,-246,441,-389
37.486,37.10,-0.89,4.24,-2.55,10.20,-3.21,-1.90,0.31,-0.71,0.45,188.00,329.00,73.00,73.00,534.00,974.00,773.00,943.00,,,,,,,,,,,,1,1,1,,-464,16388,704,-171,621,-682
37.526,37.15,-0.92,2.67,-1.01,-0.99,3.87,-1.63,0.19,-0.38,0.20,178.00,336.00,61.00,94.00,535.00,967.00,779.00,937.00,,,,,,,,,,,,1,1,1,,-540,16272,372,-159,481,-691
37.609,37.21,-0.91,4.46,-2.52,5.12,1.82,-0.57,-1.15,0.14,-0.44,187.00,326.00,61.00,78.00,564.00,961.00,799.00,934.00,,,,,,,,,,,,1,1,1,,-300,16160,56,13,198,-382
37.691,37.26,-0.95,6.01,-3.53,16.98,-8.30,-1.77,0.23,-0.82,0.49,192.00,315.00,85.00,64.00,535.00,971.00,773.00,946.00,,,,,,,,,,,,1,1,1,,-800,16344,568,-19,-99,-194
37.711,37.32,-0.98,2.76,-1.15,-1.75,3.83,-1.59,0.59,0.13,0.41,179.00,336.00,62.00,97.00,523.00,955.00,763.00,913.00,,,,,,,,,,,,1,1,1,,-640,16340,508,-64,-99,-187
37.773,37.37,-0.91,4.32,-1.04,5.01,4.45,0.52,-0.85,1.15,-0.44,173.00,315.00,53.00,73.00,544.00,913.00,784.00,897.00,,,,,,,,,,,,1,1,1,,-608,16264,396,-18,52,-232
37.814,37.43,-0.89,4.83,-2.15,19.81,-4.01,-0.53,-0.18,0.26,0.27,182.00,318.00,64.00,51.00,535.00,935.00,767.00,912.00,,,,,,,,,,,,1,1,1,,-552,16320,468,-175,57,-180
37.855,37.48,-0.92,3.88,-1.21,3.82,5.21,-1.58,1.05,-0.09,0.65,176.00,322.00,52.00,75.00,510.00,943.00,756.00,915.00,,,,,,,,,,,,1,1,1,,-628,16324,480,-88,111,-123
37.917,37.54,-0.87,3.98,-1.24,-0.85,12.09,0.10,-0.43,0.92,-0.05,176.00,321.00,39.00,75.00,536.00,918.00,771.00,896.00,,,,,,,,,,,,1,1,2,,-576,16080,476,-328,198,-195
37.977,37.59,-0.83,5.30,-1.90,14.82,-1.44,-0.05,-0.69,0.59,-0.22,178.00,310.00,61.00,58.00,545.00,930.00,783.00,912.00,,,,,,,,,,,,1,1,2,,-524,16352,476,-125,113,-200
38.101,37.65,-0.85,4.80,-2.34,4.90,-1.92,-1.26,0.31,-0.20,0.38,184.00,320.00,75.00,87.00,528.00,950.00,769.00,926.00,,,,,,,,,,,,1,1,2,,-624,16400,460,-74,3,-291
38.121,37.70,-0.86,3.84,-1.61,0.35,4.35,-0.96,0.13,0.12,0.22,180.00,326.00,58.00,88.00,530.00,943.00,771.00,918.00,,,,,,,,,,,,1,1,2,,-620,16108,504,-57,31,-233
38.162,37.76,-0.82,4.39,-1.38,7.51,3.96,-0.03,-1.19,0.94,-0.74,176.00,317.00,52.00,67.00,560.00,942.00,800.00,912.00,,,,,,,,,,,,1,1,2,,-612,16164,600,-118,65,-193
38.203,37.81,-0.87,5.19,-3.26,16.62,-6.59,-1.85,0.06,-0.93,0.45,192.00,323.00,78.00,62.00,541.00,979.00,776.00,951.00,,,,,,,,,,,,1,1,2,,-580,16320,612,-134,162,-137
38.264,37.87,-0.91,2.67,-1.01,-1.10,4.84,-1.67,0.44,-0.45,0.39,178.00,336.00,58.00,92.00,528.00,962.00,772.00,935.00,,,,,,,,,,,,1,1,2,,-612,16284,432,-257,92,-135
38.325,37.92,-0.89,3.99,-1.14,1.66,7.41,-0.50,-0.71,0.34,-0.30,175.00,320.00,48.00,77.00,550.00,947.00,790.00,923.00,,,,,,,,,,,,1,1,2,,-612,16396,668,-139,44,-188
38.387,37.98,-0.88,3.36,-1.24,22.78,-6.13,-0.70,-0.33,0.19,0.01,178.00,329.00,68.00,48.00,541.00,945.00,779.00,921.00,,,,,,,,,,,,1,1,2,,-700,16396,772,-177,89,-206
38.427,38.03,-0.95,4.29,-1.35,10.82,0.21,-2.36,1.50,-0.00,0.65,176.00,318.00,60.00,65.00,505.00,961.00,755.00,912.00,,,,,,,,,,,,1,1,2,,-812,16200,600,-44,62,-217
38.488,38.09,-0.90,4.55,-0.90,-2.13,12.52,0.10,-0.19,1.42,-0.29,171.00,311.00,39.00,78.00,529.00,912.00,774.00,884.00,,,,,,,,,,,,1,1,2,,-712,16312,676,-91,19,-218
38.528,38.14,-0.86,5.44,-1.74,16.62,-1.43,-0.19,-0.61,0.49,-0.07,176.00,307.00,59.00,54.00,544.00,933.00,778.00,912.00,,,,,,,,,,,,1,1,2,,-724,16340,612,18,59,-155
38.569,38.20,-0.89,5.56,-2.39,13.60,-3.31,-1.37,0.34,-0.03,0.25,182.00,311.00,69.00,64.00,528.00,953.00,772.00,923.00,,,,,,,,,,,,1,1,2,,-632,16284,568,-146,67,-139
38.631,38.25,-0.90,3.67,-1.14,-1.03,5.14,-1.01,0.29,0.21,0.21,176.00,324.00,57.00,91.00,526.00,941.00,770.00,915.00,,,,,,,,,,,,1,1,2,,-600,16288,672,-87,18,-144
38.692,38.31,-0.83,3.90,-0.90,6.52,3.26,0.36,-1.09,0.85,-0.57,173.00,319.00,55.00,71.00,553.00,925.00,794.00,911.00,,,,,,,,,,,,1,1,2,,-648,16284,648,3,74,-127
38.754,38.36,-0.87,6.53,-3.71,22.79,-9.13,-1.55,0.33,-0.75,0.52,192.00,310.00,80.00,52.00,530.00,960.00,771.00,943.00,,,,,,,,,,,,1,1,2,,-600,16280,432,41,155,-158
38.796,38.42,-0.88,3.68,-1.04,-0.95,5.44,-1.18,0.38,-0.04,0.30,175.00,323.00,56.00,90.00,525.00,945.00,770.00,922.00,,,,,,,,,,,,1,1,2,,-720,16244,668,-42,107,-127
38.857,38.47,-0.86,5.41,-1.93,0.99,11.95,-0.46,-0.45,0.54,-0.11,178.00,309.00,38.00,70.00,542.00,939.00,779.00,911.00,,,,,,,,,,,,1,1,2,,-756,16272,472,-45,86,-156
38.919,38.53,-0.88,5.88,-2.50,21.28,-3.92,-1.29,0.07,-0.29,0.38,182.00,308.00,62.00,48.00,535.00,957.00,770.00,929.00,,,,,,,,,,,,1,1,2,,-696,16204,340,-23,133,-42
38.961,38.58,-0.94,4.17,-1.41,6.98,3.10,-2.04,0.67,-0.54,0.39,177.00,320.00,55.00,70.00,525.00,970.00,773.00,938.00,,,,,,,,,,,,1,1,2,,-620,16240,536,-177,200,-88
39.022,38.64,-0.94,4.29,-1.35,-1.00,9.91,-0.81,-0.33,0.50,-0.22,176.00,318.00,44.00,80.00,542.00,949.00,784.00,915.00,,,,,,,,,,,,1,1,2,,-568,16320,392,-222,227,-114
39.084,38.69,-0.92,5.27,-1.36,15.14,2.87,-0.60,-0.43,0.23,-0.10,173.00,306.00,48.00,51.00,543.00,944.00,783.00,922.00,,,,,,,,,,,,1,1,2,,-556,16232,428,-277,183,-130
39.186,38.75,-0.94,6.95,-4.32,13.32,-3.48,-1.40,0.35,-0.35,0.48,197.00,310.00,70.00,65.00,528.00,954.00,767.00,929.00,,,,,,,,,,,,1,1,2,,-508,16252,556,-356,158,-107
39.205,38.80,-0.93,4.55,-1.85,-1.30,7.65,-0.74,0.16,0.38,0.25,180.00,319.00,50.00,86.00,527.00,934.00,766.00,908.00,,,,,,,,,,,,1,1,2,,-596,16276,672,-152,216,-149
39.246,38.86,-0.86,5.12,-1.63,8.56,4.71,0.45,-1.19,1.03,-0.63,176.00,310.00,49.00,63.00,555.00,924.00,794.00,906.00,,,,,,,,,,,,1,1,2,,-608,16300,632,-116,238,-76
39.328,38.91,-0.85,6.92,-3.55,17.95,-6.06,-0.62,-1.03,-2.36,1.03,189.00,304.00,74.00,58.00,561.00,960.00,772.00,991.00,,,,,,,,,,,,1,1,2,,-500,16204,768,-18,194,-90
39.349,38.97,-0.88,3.78,-1.18,2.32,5.01,-1.52,1.00,1.15,0.12,176.00,323.00,54.00,80.00,511.00,942.00,761.00,884.00,,,,,,,,,,,,1,1,2,,-484,16204,340,2,91,-54
39.411,39.02,-0.85,4.98,-0.94,4.05,9.07,-0.11,-0.33,0.84,-0.26,170.00,306.00,42.00,67.00,535.00,923.00,781.00,904.00,,,,,,,,,,,,1,1,2,,-300,16268,416,-71,95,-55
39.453,39.08,-0.84,5.84,-2.08,20.48,-2.73,-0.70,-0.37,0.17,0.11,178.00,305.00,59.00,48.00,542.00,946.00,775.00,919.00,,,,,,,,,,,,1,1,2,,-344,16240,480,-49,194,-220
39.535,39.13,-0.90,4.74,-2.02,11.87,-1.90,-2.10,1.23,-0.36,0.70,181.00,318.00,66.00,66.00,510.00,958.00,758.00,924.00,,,,,,,,,,,,1,1,2,,-724,16332,616,-86,142,-196
39.575,39.19,-0.89,4.53,-1.11,1.11,9.20,-0.66,-0.10,0.55,-0.16,173.00,313.00,44.00,75.00,534.00,938.00,781.00,912.00,,,,,,,,,,,,1,1,2,,-620,16184,452,-117,25,-178
39.616,39.24,-0.89,6.12,-2.99,15.70,-1.43,-0.83,-0.73,0.36,-0.28,186.00,309.00,60.00,56.00,554.00,960.00,789.00,922.00,,,,,,,,,,,,1,1,2,,-464,16256,584,1,148,-184
39.677,39.30,-0.94,4.87,-1.86,13.05,-3.65,-2.05,0.12,-0.97,0.40,179.00,315.00,71.00,66.00,541.00,985.00,779.00,954.00,,,,,,,,,,,,1,1,2,,-628,16340,452,-88,153,-192
39.739,39.35,-0.97,3.43,-1.58,-2.47,7.68,-1.42,0.15,-0.22,0.24,181.00,331.00,51.00,90.00,534.00,960.00,775.00,930.00,,,,,,,,,,,,1,1,2,,-416,16320,396,-41,115,-241
39.801,39.41,-0.93,4.60,-1.45,6.38,3.99,-0.10,-0.94,0.86,-0.62,176.00,315.00,53.00,70.00,553.00,938.00,796.00,912.00,,,,,,,,,,,,1,1,2,,-572,16184,616,-29,193,-154
39.842,39.46,-0.95,6.96,-3.85,17.16,-6.77,-1.51,0.29,-0.83,0.59,192.00,306.00,78.00,61.00,531.00,960.00,769.00,944.00,,,,,,,,,,,,1,1,2,,-584,16236,556,-80,90,-149
39.903,39.52,-0.98,4.32,-1.98,1.11,5.42,-1.48,0.98,0.09,0.52,182.00,323.00,54.00,83.00,511.00,941.00,759.00,912.00,,,,,,,,,,,,1,1,2,,-580,16244,456,25,9,-139
39.966,39.57,-0.95,5.44,-1.74,4.65,9.32,-0.33,-0.11,0.52,-0.20,176.00,307.00,41.00,65.00,531.00,926.00,783.00,914.00,,,,,,,,,,,,1,1,2,,-484,16388,520,128,-38,-124
40.029,39.63,-0.94,5.80,-2.27,21.28,-3.92,-0.86,-0.21,0.38,-0.15,180.00,307.00,62.00,48.00,539.00,948.00,783.00,918.00,,,,,,,,,,,,1,1,2,,-600,16148,524,-24,-10,-264
40.07,39.68,-0.98,4.60,-1.45,6.38,3.99,-1.69,1.05,-0.53,0.83,176.00,315.00,53.00,70.00,511.00,947.00,755.00,927.00,,,,,,,,,,,,1,1,2,,-624,16328,444,82,74,-201
40.132,39.74,-0.94,3.75,-0.20,-2.60,14.68,-0.14,-0.52,0.50,-0.00,167.00,315.00,35.00,75.00,541.00,929.00,775.00,910.00,,,,,,,,,,,,1,1,2,,-612,16304,460,-10,-54,-171
40.193,39.79,-0.91,5.41,-1.93,12.28,1.66,-0.42,-0.70,0.11,-0.04,178.00,309.00,54.00,59.00,549.00,944.00,782.00,925.00,,,,,,,,,,,,1,1,2,,-616,16312,588,81,-8,-183
40.276,39.85,-0.96,4.87,-1.86,12.35,-2.62,-1.85,0.43,-0.59,0.27,179.00,315.00,68.00,66.00,530.00,969.00,779.00,943.00,,,,,,,,,,,,1,1,2,,-620,16208,432,-48,108,-156
40.296,39.90,-0.98,3.63,-1.64,-1.60,5.99,-1.39,0.14,-0.11,0.04,181.00,329.00,55.00,91.00,534.00,959.00,782.00,931.00,,,,,,,,,,,,1,1,2,,-556,16248,416,-148,120,-136
40.358,39.96,-0.96,4.70,-1.49,8.52,-0.21,-0.53,-1.13,0.34,-0.63,176.00,314.00,64.00,72.00,563.00,959.00,804.00,931.00,,,,,,,,,,,,1,1,2,,-492,16248,364,-208,129,-171
40.4,40.01,-1.02,6.01,-3.53,16.79,-8.01,-2.19,0.10,-1.49,0.55,192.00,315.00,84.00,64.00,543.00,991.00,780.00,970.00,,,,,,,,,,,,1,1,2,,-592,16312,500,-134,130,-227
40.441,40.07,-1.04,3.17,-0.97,1.07,2.88,-1.43,0.40,-0.41,0.52,176.00,329.00,62.00,89.00,527.00,954.00,766.00,930.00,,,,,,,,,,,,1,1,2,,-580,16300,572,25,42,-216
40.502,40.12,-1.00,4.71,-1.39,3.27,8.06,-0.11,-0.57,0.55,-0.16,175.00,313.00,45.00,71.00,542.00,929.00,781.00,912.00,,,,,,,,,,,,1,1,2,,-632,16268,628,-85,46,-201
40.563,40.18,-0.98,5.89,-2.41,21.44,-5.68,-0.67,-0.38,-0.24,0.27,181.00,307.00,68.00,50.00,542.00,945.00,774.00,930.00,,,,,,,,,,,,1,1,2,,-576,16260,416,-83,93,-175
40.645,40.23,-1.01,4.60,-1.45,7.62,0.09,-1.66,1.04,-0.40,0.83,176.00,315.00,64.00,74.00,511.00,946.00,753.00,922.00,,,,,,,,,,,,1,1,2,,-556,16272,380,-69,100,-175
40.666,40.29,-0.97,4.62,-1.25,-3.40,13.92,-0.09,-0.44,0.75,-0.30,174.00,313.00,37.00,79.00,538.00,925.00,784.00,908.00,,,,,,,,,,,,1,1,2,,-692,16368,400,-167,150,-115
40.728,40.34,-0.94,6.09,-2.57,16.17,-2.78,-0.43,-0.76,1.12,-0.42,182.00,306.00,64.00,57.00,551.00,946.00,784.00,898.00,,,,,,,,,,,,1,1,2,,-612,16372,508,-98,211,-156
40.769,40.40,-0.97,5.23,-2.39,10.90,-2.66,-1.45,0.20,-0.55,0.38,183.00,315.00,70.00,70.00,533.00,960.00,774.00,939.00,,,,,,,,,,,,1,1,2,,-696,16332,284,24,136,-130
