Time_Host,Time_Arduino,easingdata,CH1_Oxy,CH1_Deoxy,CH2_Oxy,CH2_Deoxy,CH3_Oxy,CH3_Deoxy,CH4_Oxy,CH4_Deoxy,CH1_PD730,CH1_PD850,CH2_PD730,CH2_PD850,CH3_PD730,CH3_PD850,CH4_PD730,CH4_PD850,Answers,airplane_playstate,trail_times,frameRate,Airplane X,Airplane Y,Correct,Wrong,Slow,AnswerRate,CorrectRate,VFTstates,VFTchoose,VFTCount,Culfstates,ax,ay,az,gx,gy,gz
1.277,0.04,0.00,0.00,0.00,0.00,0.00,0.00,0.00,0.00,0.00,879.00,2122.00,673.00,1038.00,1171.00,2945.00,438.00,638.00,,,,,,,,,,,,0,0,0,,372,15924,1612,748,-269,-239
1.298,0.10,0.00,0.00,0.00,0.00,0.00,0.00,0.00,0.00,0.00,1005.00,2043.00,752.00,976.00,1157.00,3008.00,405.00,745.00,,,,,,,,,,,,0,0,0,,308,16128,2236,487,-56,-269
1.319,0.16,0.00,0.00,0.00,0.00,0.00,0.00,0.00,0.00,0.00,963.00,2131.00,735.00,1036.00,1151.00,3018.00,386.00,739.00,,,,,,,,,,,,0,0,0,,188,16408,2268,331,595,-339
1.339,0.21,0.00,0.00,0.00,0.00,0.00,0.00,0.00,0.00,0.00,934.00,2187.00,713.00,1057.00,1126.00,3002.00,370.00,721.00,,,,,,,,,,,,0,0,0,,304,16164,2084,161,656,-710
1.359,0.27,0.00,0.00,0.00,0.00,0.00,0.00,0.00,0.00,0.00,917.00,2123.00,688.00,1021.00,1202.00,2957.00,465.00,686.00,,,,,,,,,,,,0,0,0,,0,15968,2268,-619,175,-888
1.381,0.32,0.00,0.00,0.00,0.00,0.00,0.00,0.00,0.00,0.00,1040.00,2036.00,778.00,973.00,1142.00,3055.00,389.00,807.00,,,,,,,,,,,,0,0,0,,-36,15644,2676,-591,13,-353
1.401,1.06,0.00,0.00,0.00,0.00,0.00,0.00,0.00,0.00,0.00,855.00,2077.00,656.00,997.00,1207.00,2912.00,474.00,627.00,,,,,,,,,,,,0,0,0,,292,15968,3344,-472,564,215
1.442,1.12,0.00,0.00,0.00,0.00,0.00,0.00,0.00,0.00,0.00,1050.00,1968.00,774.00,926.00,1138.00,3061.00,399.00,832.00,,,,,,,,,,,,0,0,0,,332,15908,3184,-482,436,-12
1.463,1.17,0.00,0.00,0.00,0.00,0.00,0.00,0.00,0.00,0.00,932.00,2225.00,709.00,1106.00,1066.00,2977.00,283.00,731.00,,,,,,,,,,,,0,0,0,,260,15896,3312,-328,152,-74
1.526,1.23,0.00,0.00,0.00,0.00,0.00,0.00,0.00,0.00,0.00,819.00,2082.00,629.00,1005.00,1213.00,2902.00,493.00,650.00,,,,,,,,,,,,0,0,0,,316,15908,3540,-165,-48,-295
1.587,1.28,-0.02,3.02,-2.93,3.22,-2.49,-0.42,0.11,-2.74,0.89,1042.00,2015.00,767.00,954.00,1159.00,3024.00,411.00,781.00,,,,,,,,,,,,0,0,0,,180,15736,3420,-293,-133,-320
1.628,1.34,-0.07,-0.90,0.49,-1.19,0.66,-1.03,1.43,-3.79,4.79,930.00,2147.00,701.00,1044.00,1091.00,2990.00,339.00,733.00,,,,,,,,,,,,0,0,0,,156,15988,3468,-383,-54,-223
1.69,1.39,-0.11,-1.22,1.68,-1.35,1.93,-0.76,1.40,0.03,0.41,877.00,2106.00,656.00,1015.00,1088.00,2962.00,401.00,709.00,,,,,,,,,,,,0,0,0,,180,15768,3404,-230,103,-224
1.812,1.45,-0.09,0.43,-0.23,0.12,0.21,0.24,0.00,0.86,-0.77,944.00,2077.00,701.00,1003.00,1152.00,2955.00,421.00,708.00,,,,,,,,,,,,0,0,0,,88,15664,3388,-861,144,-266
1.833,1.50,-0.12,1.32,-0.81,2.68,-1.27,-0.78,0.64,-4.01,2.47,958.00,2036.00,725.00,943.00,1134.00,3025.00,386.00,787.00,,,,,,,,,,,,0,0,0,,-20,15656,3712,-750,107,8
1.874,1.56,-0.14,-0.82,0.48,-1.66,0.92,-0.51,1.19,-2.55,4.00,929.00,2141.00,697.00,1056.00,1095.00,2949.00,346.00,713.00,,,,,,,,,,,,0,0,0,,184,15888,4004,-387,208,13
1.937,1.61,-0.06,-0.62,2.08,-0.61,2.08,1.60,-1.19,6.06,-4.67,849.00,2035.00,642.00,982.00,1199.00,2892.00,473.00,640.00,,,,,,,,,,,,0,0,0,,356,15672,3900,-35,385,53
1.98,1.67,-0.09,4.02,-3.23,4.80,-3.14,-0.84,0.66,-4.98,2.56,1040.00,1953.00,772.00,912.00,1134.00,3031.00,391.00,816.00,,,,,,,,,,,,0,0,0,,308,15988,3576,-180,296,-113
2.041,1.72,-0.16,-1.77,0.82,-2.64,1.22,-1.34,2.30,-6.50,9.11,928.00,2203.00,698.00,1089.00,1047.00,2958.00,282.00,727.00,,,,,,,,,,,,0,0,0,,240,15740,3360,-202,-130,-281
2.063,1.78,-0.05,-1.77,3.24,-1.52,3.12,2.01,-1.60,6.48,-5.46,814.00,2064.00,617.00,990.00,1217.00,2877.00,490.00,643.00,,,,,,,,,,,,0,0,0,,200,15672,3788,-187,-332,-275
2.147,1.83,-0.06,3.46,-3.27,3.74,-2.72,-0.26,0.17,-2.42,0.51,1053.00,1999.00,769.00,940.00,1152.00,3001.00,417.00,779.00,,,,,,,,,,,,0,0,0,,192,15736,3724,-154,-95,-246
2.189,1.89,-0.09,-0.65,0.19,-0.31,0.15,-0.62,1.04,-3.84,5.03,941.00,2143.00,709.00,1022.00,1106.00,2973.00,335.00,730.00,,,,,,,,,,,,0,0,0,,140,15600,3892,-246,141,-247
2.23,1.94,-0.07,-1.26,2.01,-0.98,1.84,0.25,0.21,1.84,-1.14,862.00,2091.00,655.00,1003.00,1139.00,2938.00,422.00,688.00,,,,,,,,,,,,0,0,0,,56,15980,3824,-206,178,-145
2.313,2.00,-0.04,0.46,-0.25,0.90,0.00,0.45,-0.23,0.40,-0.35,944.00,2075.00,699.00,978.00,1162.00,2949.00,415.00,713.00,,,,,,,,,,,,0,0,0,,184,15684,3684,119,258,-203
2.352,2.05,-0.06,1.24,-1.07,1.86,-0.92,-0.42,0.53,-3.00,1.94,973.00,2057.00,722.00,965.00,1133.00,2991.00,390.00,767.00,,,,,,,,,,,,0,0,0,,56,15652,3500,-473,98,-322
2.393,2.11,-0.07,-0.97,0.59,-1.67,1.11,-0.14,1.02,-2.50,3.93,926.00,2147.00,690.00,1051.00,1098.00,2919.00,347.00,713.00,,,,,,,,,,,,0,0,0,,68,15552,3828,-331,-5,-10
2.454,2.16,0.02,-0.43,1.65,-0.06,1.50,1.77,-1.26,6.18,-5.02,866.00,2043.00,656.00,976.00,1200.00,2878.00,481.00,643.00,,,,,,,,,,,,0,0,0,,196,15788,3980,-333,243,31
2.536,2.22,-0.01,3.79,-2.67,4.80,-2.78,-0.64,0.61,-4.25,1.94,1013.00,1941.00,757.00,903.00,1133.00,3011.00,399.00,806.00,,,,,,,,,,,,0,0,0,,240,15688,3808,-315,467,112
2.577,2.27,-0.06,-2.03,0.95,-2.61,1.21,-1.03,2.09,-5.68,8.25,926.00,2218.00,698.00,1088.00,1053.00,2938.00,291.00,720.00,,,,,,,,,,,,0,0,0,,288,15936,3808,-398,244,-80
2.658,2.33,0.05,-2.10,3.67,-1.11,2.92,2.18,-1.69,7.66,-6.08,800.00,2067.00,619.00,979.00,1219.00,2864.00,496.00,624.00,,,,,,,,,,,,0,0,0,,224,15580,3980,-196,-21,-149
2.699,2.38,0.04,3.55,-3.37,3.79,-2.95,-0.19,0.08,-2.98,1.24,1057.00,1997.00,778.00,944.00,1156.00,2999.00,405.00,781.00,,,,,,,,,,,,0,0,0,,296,15636,3816,-43,1,-187
2.74,2.44,0.00,-0.61,0.16,-0.46,0.33,-0.75,1.43,-3.44,5.01,942.00,2142.00,704.00,1023.00,1086.00,2958.00,333.00,719.00,,,,,,,,,,,,0,0,0,,140,15688,3868,-106,126,-150
2.782,2.49,0.04,-1.18,2.05,-0.73,1.84,0.72,-0.24,1.99,-1.15,859.00,2082.00,652.00,993.00,1157.00,2918.00,421.00,684.00,,,,,,,,,,,,0,0,0,,228,15692,4088,-233,125,-112
2.883,2.55,0.05,0.65,-0.58,1.11,0.04,0.32,0.04,0.89,-0.87,958.00,2078.00,695.00,969.00,1148.00,2943.00,423.00,709.00,,,,,,,,,,,,0,0,0,,252,15824,4060,-236,155,-36
2.904,2.60,0.03,0.93,-0.85,1.70,-0.76,-0.37,0.47,-2.82,2.07,967.00,2070.00,718.00,967.00,1136.00,2990.00,386.00,759.00,,,,,,,,,,,,0,0,0,,396,15876,3792,-32,202,-167
2.946,2.66,0.01,-1.17,0.48,-1.69,1.14,-0.43,1.16,-2.09,3.53,935.00,2171.00,689.00,1051.00,1095.00,2941.00,352.00,709.00,,,,,,,,,,,,0,0,0,,200,15588,3944,-570,133,-369
3.009,2.71,0.09,-0.50,1.38,-0.06,1.50,1.72,-1.25,5.58,-4.55,880.00,2064.00,656.00,976.00,1200.00,2882.00,474.00,650.00,,,,,,,,,,,,0,0,0,,140,15568,4172,-289,96,-83
3.071,2.77,0.06,3.78,-3.17,4.67,-2.95,-0.61,0.63,-4.58,2.24,1041.00,1968.00,766.00,912.00,1131.00,3005.00,395.00,810.00,,,,,,,,,,,,0,0,0,,176,15492,4144,-241,410,-24
3.134,2.82,0.00,-1.87,0.75,-2.41,1.36,-1.04,2.23,-5.40,8.16,933.00,2215.00,690.00,1075.00,1045.00,2928.00,291.00,714.00,,,,,,,,,,,,0,0,0,,248,15608,4016,-131,767,194
3.175,2.88,0.11,-1.94,3.48,-1.27,3.28,2.18,-1.65,7.60,-6.17,806.00,2065.00,609.00,976.00,1216.00,2861.00,499.00,627.00,,,,,,,,,,,,0,0,0,,468,15964,3796,-353,596,66
3.257,2.93,0.09,3.70,-3.68,3.97,-2.82,-0.31,0.35,-3.27,1.43,1072.00,2002.00,770.00,934.00,1142.00,2992.00,403.00,786.00,,,,,,,,,,,,0,0,0,,460,15696,3896,-353,343,-192
3.278,2.99,0.06,-0.83,0.25,-0.26,0.18,-0.52,1.31,-3.53,4.87,941.00,2155.00,707.00,1019.00,1088.00,2940.00,336.00,724.00,,,,,,,,,,,,0,0,0,,212,15712,3932,-142,46,-294
3.34,3.04,0.10,-1.21,1.97,-0.64,2.01,0.86,-0.36,3.00,-2.09,863.00,2089.00,645.00,985.00,1162.00,2912.00,435.00,674.00,,,,,,,,,,,,0,0,0,,176,15636,4060,-218,-48,-371
3.401,3.10,0.12,0.47,-0.42,0.83,0.19,0.49,-0.14,0.23,-0.20,953.00,2084.00,693.00,976.00,1156.00,2938.00,413.00,715.00,,,,,,,,,,,,0,0,0,,116,15616,4056,-242,-67,-320
3.442,3.15,0.10,0.82,-0.87,1.78,-0.61,-0.34,0.51,-2.65,1.87,970.00,2080.00,711.00,960.00,1133.00,2983.00,389.00,758.00,,,,,,,,,,,,0,0,0,,208,15636,4168,-327,50,-180
3.503,3.21,0.07,-1.35,0.60,-1.65,1.16,-0.39,1.02,-2.36,3.36,932.00,2179.00,688.00,1049.00,1103.00,2948.00,357.00,720.00,,,,,,,,,,,,0,0,0,,56,15728,4112,-14,276,-210
3.566,3.26,0.15,-1.13,1.44,-0.04,1.35,1.66,-1.26,5.26,-4.24,887.00,2112.00,661.00,979.00,1202.00,2890.00,469.00,653.00,,,,,,,,,,,,0,0,0,,208,15708,4032,-184,189,-312
3.648,3.32,0.11,3.38,-3.17,4.79,-3.21,-0.67,0.55,-4.66,2.50,1049.00,2000.00,775.00,914.00,1137.00,3019.00,390.00,807.00,,,,,,,,,,,,0,0,0,,124,15436,4168,-186,16,-72
3.668,3.37,0.05,-2.27,0.95,-2.51,1.36,-1.21,2.29,-5.32,7.88,930.00,2239.00,691.00,1079.00,1045.00,2943.00,295.00,717.00,,,,,,,,,,,,0,0,0,,260,15652,4204,-185,109,25
3.73,3.43,0.16,-2.00,3.21,-1.36,3.37,2.33,-1.79,8.13,-6.24,819.00,2085.00,607.00,977.00,1222.00,2855.00,496.00,615.00,,,,,,,,,,,,0,0,0,,232,15532,4216,-129,321,4
3.791,3.48,0.14,3.27,-3.31,3.49,-2.46,-0.19,0.04,-3.18,1.40,1059.00,2016.00,762.00,943.00,1159.00,3003.00,403.00,784.00,,,,,,,,,,,,0,0,0,,356,15808,3948,-222,352,-75
3.833,3.54,0.10,-0.85,0.14,-0.51,0.40,-0.71,1.43,-3.34,4.81,947.00,2163.00,702.00,1023.00,1085.00,2953.00,336.00,720.00,,,,,,,,,,,,0,0,0,,300,15668,4104,-201,44,-185
3.894,3.59,0.14,-1.13,1.69,-0.56,1.67,0.95,-0.46,2.89,-1.93,875.00,2098.00,656.00,991.00,1166.00,2909.00,432.00,674.00,,,,,,,,,,,,0,0,0,,260,15624,4256,-65,-119,-193
3.995,3.65,0.15,-0.42,-0.20,1.09,-0.32,0.38,0.05,-0.65,-0.08,957.00,2146.00,709.00,979.00,1146.00,2935.00,417.00,738.00,,,,,,,,,,,,0,0,0,,148,15580,4264,-17,55,-172
4.037,3.70,0.13,0.65,-0.85,1.67,-0.83,-0.28,0.44,-3.17,2.19,972.00,2093.00,721.00,970.00,1136.00,2982.00,386.00,767.00,,,,,,,,,,,,0,0,0,,140,15584,4152,-109,157,-112
4.058,3.76,0.10,-1.35,0.38,-1.60,1.00,-0.47,1.06,-2.69,3.99,943.00,2192.00,693.00,1051.00,1102.00,2954.00,347.00,717.00,,,,,,,,,,,,0,0,0,,392,15504,4100,-232,74,-71
4.1,3.81,0.17,-0.87,1.14,-0.15,1.25,1.51,-1.08,5.75,-4.57,897.00,2107.00,666.00,986.00,1194.00,2894.00,473.00,646.00,,,,,,,,,,,,0,0,0,,112,15556,4348,-253,4,-157
4.161,3.87,0.12,3.21,-3.29,4.34,-2.92,-0.84,0.67,-4.66,2.12,1059.00,2020.00,769.00,923.00,1133.00,3029.00,398.00,815.00,,,,,,,,,,,,0,0,0,,172,15672,4248,-155,171,-105
4.223,3.92,0.05,-2.29,0.68,-2.50,1.04,-1.24,2.16,-3.97,7.42,944.00,2257.00,703.00,1088.00,1053.00,2957.00,295.00,688.00,,,,,,,,,,,,0,0,0,,176,15488,4160,-270,127,-161
4.285,3.98,0.16,-2.25,3.38,-1.05,2.85,2.18,-1.69,8.38,-6.55,815.00,2096.00,621.00,979.00,1219.00,2864.00,502.00,614.00,,,,,,,,,,,,0,0,0,,272,15468,4400,-53,65,4
4.366,4.03,0.13,3.23,-3.44,3.75,-2.77,-0.45,0.40,-3.02,1.16,1067.00,2026.00,771.00,941.00,1142.00,3005.00,407.00,784.00,,,,,,,,,,,,0,0,0,,332,15640,4376,-97,149,12
4.407,4.09,0.09,-0.93,0.20,-0.98,0.48,-0.63,1.40,-3.57,4.83,945.00,2166.00,705.00,1040.00,1085.00,2946.00,337.00,726.00,,,,,,,,,,,,0,0,0,,352,15692,4200,13,292,33
4.428,4.14,0.13,-1.30,1.75,-0.72,1.98,0.94,-0.34,2.98,-2.00,875.00,2109.00,647.00,989.00,1159.00,2901.00,433.00,673.00,,,,,,,,,,,,0,0,0,,308,15624,4064,-139,8,-331
4.489,4.20,0.15,0.37,-0.51,0.55,0.36,0.36,0.04,0.42,-0.22,959.00,2097.00,690.00,982.00,1147.00,2938.00,412.00,710.00,,,,,,,,,,,,0,0,0,,184,15432,4220,58,-170,-139
4.552,4.25,0.12,0.73,-0.86,1.61,-0.78,-0.43,0.67,-2.48,1.91,971.00,2087.00,720.00,971.00,1125.00,2981.00,387.00,752.00,,,,,,,,,,,,0,0,0,,200,15616,4128,-4,-9,-152
4.614,4.31,0.09,-1.52,0.64,-1.58,0.97,-0.37,1.01,-2.50,3.35,933.00,2192.00,694.00,1051.00,1103.00,2947.00,358.00,724.00,,,,,,,,,,,,0,0,0,,272,15524,4152,-61,202,-51
4.675,4.36,0.17,-0.38,0.55,-0.29,1.60,1.56,-1.20,5.28,-4.45,918.00,2100.00,655.00,982.00,1200.00,2896.00,474.00,656.00,,,,,,,,,,,,0,0,0,,280,15556,4140,-206,232,-25
4.737,4.42,0.11,3.22,-3.25,4.07,-2.68,-0.92,0.73,-4.58,2.00,1056.00,2016.00,763.00,927.00,1131.00,3034.00,400.00,815.00,,,,,,,,,,,,0,0,0,,384,15692,4156,-184,150,-19
4.778,4.47,0.03,-2.39,0.67,-3.23,1.60,-1.57,2.38,-5.68,8.25,946.00,2266.00,691.00,1103.00,1047.00,2979.00,291.00,720.00,,,,,,,,,,,,0,0,0,,396,15568,4188,126,130,-208
4.839,4.53,0.13,-2.36,3.17,-1.52,3.00,2.01,-1.62,7.27,-5.99,826.00,2117.00,621.00,993.00,1218.00,2878.00,497.00,632.00,,,,,,,,,,,,0,0,0,,188,15500,3948,-361,-34,-349
4.88,4.58,0.11,3.06,-3.29,3.69,-2.79,-0.25,0.20,-2.75,0.75,1062.00,2032.00,773.00,944.00,1150.00,2997.00,414.00,784.00,,,,,,,,,,,,0,0,0,,148,15536,4220,-144,-100,-32
4.942,4.64,0.07,-1.07,0.31,-0.84,0.46,-0.70,1.53,-3.34,4.81,942.00,2172.00,704.00,1035.00,1079.00,2944.00,336.00,720.00,,,,,,,,,,,,0,0,0,,312,15524,4476,-173,234,-13
5.004,4.69,0.09,-1.38,1.96,-0.92,2.04,0.59,-0.15,2.08,-1.44,866.00,2103.00,647.00,995.00,1154.00,2926.00,427.00,687.00,,,,,,,,,,,,0,0,0,,332,15568,4196,-20,514,156
5.106,4.75,0.11,0.21,-0.16,0.47,0.25,0.46,-0.07,0.51,0.02,944.00,2091.00,695.00,988.00,1152.00,2935.00,406.00,703.00,,,,,,,,,,,,0,0,0,,460,15996,4024,-30,208,23
5.126,4.80,0.09,0.98,-0.83,2.22,-1.07,-0.40,0.69,-3.08,2.16,965.00,2065.00,723.00,955.00,1123.00,2976.00,386.00,765.00,,,,,,,,,,,,0,0,0,,452,15556,4132,139,-52,-188
5.147,4.86,0.06,-1.33,0.61,-1.84,1.22,-0.44,1.19,-2.64,3.76,931.00,2177.00,688.00,1055.00,1094.00,2941.00,351.00,720.00,,,,,,,,,,,,0,0,0,,344,15684,4184,61,3,-253
5.21,4.91,0.15,-0.89,1.55,-0.11,1.57,1.76,-1.26,5.57,-4.58,878.00,2086.00,654.00,976.00,1200.00,2879.00,475.00,651.00,,,,,,,,,,,,0,0,0,,308,15592,4136,10,155,-304
5.274,4.97,0.10,3.45,-3.14,4.44,-2.90,-0.80,0.68,-4.54,2.08,1046.00,1993.00,767.00,919.00,1132.00,3024.00,398.00,812.00,,,,,,,,,,,,0,0,0,,340,15528,4112,-73,58,-213
5.357,5.02,0.02,-2.33,0.75,-3.22,1.63,-1.43,2.28,-5.61,8.10,941.00,2256.00,690.00,1102.00,1050.00,2970.00,293.00,721.00,,,,,,,,,,,,0,0,0,,304,15668,4040,-95,-39,-216
5.378,5.08,0.11,-2.26,3.20,-1.64,3.10,1.77,-1.34,6.88,-5.82,823.00,2107.00,619.00,995.00,1205.00,2884.00,496.00,639.00,,,,,,,,,,,,0,0,0,,340,15752,3724,-67,-97,-373
5.483,5.13,0.08,2.88,-3.17,3.45,-2.64,-0.42,0.40,-3.20,1.08,1058.00,2039.00,770.00,949.00,1141.00,3001.00,410.00,791.00,,,,,,,,,,,,0,0,0,,232,15676,4016,-398,-319,-548
5.505,5.19,0.05,-0.82,0.21,-0.88,0.34,-0.66,1.41,-3.64,5.24,943.00,2157.00,709.00,1040.00,1085.00,2949.00,330.00,720.00,,,,,,,,,,,,0,0,0,,188,15416,4164,-150,-251,-99
5.546,5.24,0.07,-1.08,1.68,-1.24,2.06,0.44,0.20,1.27,-0.46,875.00,2095.00,650.00,1007.00,1136.00,2917.00,411.00,691.00,,,,,,,,,,,,0,0,0,,272,15608,4396,-117,123,20
5.586,5.30,0.08,0.38,0.08,0.63,0.36,0.39,0.11,1.05,-0.57,929.00,2064.00,689.00,979.00,1142.00,2929.00,415.00,699.00,,,,,,,,,,,,0,0,0,,404,15476,4184,-175,500,148
5.647,5.35,0.05,1.10,-0.83,2.08,-0.96,-0.46,0.71,-3.33,2.39,963.00,2055.00,721.00,958.00,1123.00,2981.00,383.00,768.00,,,,,,,,,,,,0,0,0,,368,15824,3968,-318,342,-18
5.729,5.41,0.03,-1.19,0.58,-1.81,1.21,-0.51,1.31,-2.78,4.02,930.00,2166.00,688.00,1054.00,1088.00,2939.00,347.00,719.00,,,,,,,,,,,,0,0,0,,376,15628,4140,-199,-33,-193
5.749,5.46,0.12,-1.11,1.77,-0.46,2.00,1.83,-1.18,5.38,-4.36,871.00,2092.00,643.00,978.00,1193.00,2864.00,471.00,652.00,,,,,,,,,,,,0,0,0,,288,15600,4260,-160,-71,-208
5.83,5.52,0.07,3.61,-3.15,4.89,-3.08,-0.87,0.78,-6.65,5.06,1043.00,1980.00,768.00,907.00,1127.00,3024.00,352.00,815.00,,,,,,,,,,,,0,0,0,,376,15584,4264,-150,101,-253
5.893,5.57,0.00,-2.12,0.57,-2.82,1.41,-1.21,2.34,-5.41,7.91,947.00,2249.00,693.00,1091.00,1042.00,2939.00,295.00,719.00,,,,,,,,,,,,0,0,0,,336,15560,4180,-261,147,-153
5.913,5.63,0.09,-2.26,3.27,-1.82,3.40,1.76,-1.28,6.63,-5.40,820.00,2103.00,611.00,994.00,1201.00,2880.00,487.00,638.00,,,,,,,,,,,,0,0,0,,452,15680,4160,-230,121,-52
5.973,5.68,0.07,2.87,-3.14,3.53,-2.64,-0.42,0.47,-2.98,1.19,1057.00,2039.00,769.00,946.00,1137.00,2996.00,406.00,782.00,,,,,,,,,,,,0,0,0,,364,15656,3992,5,179,-182
6.036,5.74,0.03,-0.74,-0.09,-0.97,0.50,-0.71,1.55,-3.66,4.92,957.00,2167.00,704.00,1039.00,1078.00,2944.00,336.00,727.00,,,,,,,,,,,,0,0,0,,260,15704,4004,-511,70,-399
6.097,5.79,0.04,-1.34,1.68,-0.95,1.83,0.34,0.34,0.22,0.39,879.00,2116.00,655.00,1002.00,1129.00,2917.00,400.00,704.00,,,,,,,,,,,,0,0,0,,232,15484,4380,-330,-68,-98
6.218,5.85,0.08,0.21,0.04,-0.43,2.08,0.75,0.01,1.88,-1.20,934.00,2080.00,640.00,975.00,1141.00,2896.00,423.00,688.00,,,,,,,,,,,,0,0,0,,236,15452,4500,-186,173,64
6.239,5.90,0.05,1.46,-1.20,2.16,-0.97,-0.56,0.88,-4.26,2.70,976.00,2046.00,720.00,955.00,1115.00,2980.00,383.00,790.00,,,,,,,,,,,,0,0,0,,436,15476,4308,-86,537,84
6.26,5.96,0.03,-1.27,0.59,-1.44,1.06,-0.35,1.34,-2.66,4.58,931.00,2173.00,689.00,1043.00,1083.00,2918.00,336.00,705.00,,,,,,,,,,,,0,0,0,,528,15852,4180,-257,465,-59
6.321,6.01,0.13,-1.22,2.00,-0.52,2.40,2.01,-1.21,6.09,-4.60,862.00,2088.00,630.00,970.00,1191.00,2846.00,471.00,638.00,,,,,,,,,,,,0,0,0,,384,15548,4180,-242,139,-238
6.361,6.07,0.08,3.77,-3.15,4.63,-2.65,-0.73,0.70,-5.79,3.17,1040.00,1968.00,754.00,906.00,1129.00,3014.00,384.00,829.00,,,,,,,,,,,,0,0,0,,312,15552,4252,-227,118,-77
6.422,6.12,0.03,-2.19,0.74,-2.15,0.98,-1.00,2.31,-5.97,8.73,939.00,2244.00,701.00,1075.00,1040.00,2918.00,285.00,719.00,,,,,,,,,,,,0,0,0,,392,15600,4508,-218,262,-132
6.484,6.18,0.12,-1.94,2.94,-1.55,3.31,1.78,-1.24,6.09,-5.18,830.00,2095.00,611.00,986.00,1198.00,2875.00,486.00,648.00,,,,,,,,,,,,0,0,0,,312,15604,4340,-245,290,-115
6.606,6.23,0.10,2.75,-2.84,3.56,-2.24,-0.17,0.43,-2.73,1.15,1042.00,2032.00,752.00,935.00,1134.00,2969.00,405.00,775.00,,,,,,,,,,,,0,0,0,,340,15848,4252,-234,177,-103
6.627,6.29,0.06,-0.75,0.07,-0.02,0.23,-0.71,1.57,-3.96,4.85,949.00,2159.00,702.00,1008.00,1077.00,2942.00,339.00,737.00,,,,,,,,,,,,0,0,0,,328,15624,4168,16,200,-278
6.648,6.34,0.08,-0.94,1.17,-0.48,1.28,0.50,0.29,-0.55,1.21,897.00,2112.00,669.00,998.00,1129.00,2903.00,388.00,710.00,,,,,,,,,,,,0,0,0,,364,15504,4168,-545,61,-359
6.689,6.40,0.12,0.06,0.21,0.66,0.62,0.81,0.05,1.24,-0.59,928.00,2083.00,679.00,971.00,1137.00,2885.00,414.00,694.00,,,,,,,,,,,,0,0,0,,260,15424,4480,-330,-91,-81
6.75,6.45,0.10,1.82,-1.60,2.84,-1.35,-0.34,0.80,-3.84,2.37,991.00,2039.00,726.00,939.00,1115.00,2960.00,387.00,784.00,,,,,,,,,,,,0,0,0,,404,15488,4664,-267,130,-17
6.812,6.51,0.08,-1.05,0.44,-1.35,1.13,-0.31,1.52,-2.91,5.16,935.00,2163.00,685.00,1037.00,1072.00,2900.00,327.00,701.00,,,,,,,,,,,,0,0,0,,332,15464,4532,-103,460,113
6.874,6.56,0.18,-1.19,2.16,-0.52,2.28,2.17,-1.14,7.02,-5.03,854.00,2077.00,634.00,973.00,1183.00,2823.00,474.00,622.00,,,,,,,,,,,,0,0,0,,440,15648,4440,-358,415,20
6.934,6.62,0.13,4.15,-3.71,4.99,-2.72,-0.85,1.01,-6.06,3.16,1065.00,1968.00,752.00,895.00,1113.00,3004.00,386.00,838.00,,,,,,,,,,,,0,0,0,,536,15396,4424,-261,230,-70
6.976,6.67,0.09,-2.03,0.59,-2.14,1.24,-0.73,2.22,-5.19,7.59,944.00,2239.00,691.00,1067.00,1040.00,2894.00,299.00,719.00,,,,,,,,,,,,0,0,0,,424,15468,4572,-154,163,-52
7.038,6.73,0.18,-1.94,2.76,-1.13,2.96,1.92,-1.14,5.35,-4.55,838.00,2105.00,618.00,979.00,1189.00,2852.00,476.00,656.00,,,,,,,,,,,,0,0,0,,364,15464,4448,-85,45,-135
7.1,6.78,0.16,2.37,-2.28,3.39,-1.91,-0.10,0.56,-2.55,1.23,1018.00,2032.00,741.00,933.00,1125.00,2951.00,402.00,768.00,,,,,,,,,,,,0,0,0,,416,15380,4408,-157,36,-135
7.182,6.84,0.13,-0.54,-0.10,0.97,-0.02,-0.53,1.56,-3.39,4.82,954.00,2151.00,699.00,976.00,1074.00,2922.00,336.00,721.00,,,,,,,,,,,,0,0,0,,536,15656,4612,-137,78,-90
7.203,6.89,0.13,-0.59,0.54,-0.30,1.05,0.08,0.83,-0.39,1.40,922.00,2118.00,675.00,997.00,1105.00,2909.00,383.00,702.00,,,,,,,,,,,,0,0,0,,436,15464,4472,61,154,-230
7.245,6.95,0.18,0.12,-0.11,1.08,0.24,1.10,-0.11,1.77,-0.99,943.00,2096.00,688.00,965.00,1141.00,2865.00,419.00,687.00,,,,,,,,,,,,0,0,0,,404,15300,4428,-570,-95,-319
7.327,7.00,0.15,2.05,-2.26,3.17,-1.99,-0.23,0.83,-4.09,2.64,1023.00,2057.00,747.00,943.00,1111.00,2945.00,383.00,786.00,,,,,,,,,,,,0,0,0,,324,15436,4792,-178,-134,-62
7.347,7.06,0.14,-1.07,0.21,-1.37,1.06,-0.21,1.71,-3.09,5.11,947.00,2178.00,688.00,1040.00,1059.00,2874.00,329.00,707.00,,,,,,,,,,,,0,0,0,,424,15528,4736,-90,256,-49
7.409,7.11,0.25,-1.29,2.22,-0.51,2.43,2.47,-1.25,6.97,-4.90,853.00,2082.00,629.00,969.00,1184.00,2798.00,471.00,621.00,,,,,,,,,,,,0,0,0,,424,15460,4468,63,455,23
7.47,7.17,0.21,4.36,-4.08,6.07,-3.69,-0.67,0.93,-6.07,3.21,1082.00,1971.00,777.00,880.00,1114.00,2988.00,385.00,837.00,,,,,,,,,,,,0,0,0,,588,15796,4216,-245,84,-279
7.532,7.22,0.17,-1.85,0.28,-2.19,1.31,-0.61,2.29,-5.03,7.65,957.00,2242.00,689.00,1067.00,1034.00,2875.00,297.00,713.00,,,,,,,,,,,,0,0,0,,408,15456,4592,-82,-249,-356
7.575,7.28,0.25,-1.56,1.79,-0.58,2.33,1.76,-0.68,4.62,-3.47,877.00,2128.00,633.00,974.00,1163.00,2834.00,455.00,656.00,,,,,,,,,,,,0,0,0,,432,15480,4648,-53,-124,-326
7.678,7.33,0.25,2.65,-2.77,3.84,-2.01,0.26,0.57,-2.49,1.58,1040.00,2036.00,739.00,919.00,1117.00,2909.00,394.00,759.00,,,,,,,,,,,,0,0,0,,348,15400,4564,-128,160,-291
7.699,7.39,0.22,-0.72,-0.27,0.15,0.12,-0.25,1.48,-3.82,4.70,966.00,2176.00,704.00,1004.00,1073.00,2896.00,341.00,736.00,,,,,,,,,,,,0,0,0,,344,15400,4416,-176,144,-178
7.739,7.44,0.23,-0.44,-0.08,0.23,0.58,0.29,0.84,-1.03,1.71,951.00,2141.00,686.00,989.00,1100.00,2884.00,381.00,714.00,,,,,,,,,,,,0,0,0,,384,15612,4496,-129,68,-95
7.821,7.50,0.27,-0.37,0.13,0.41,1.14,1.14,-0.04,3.78,-2.23,939.00,2123.00,663.00,967.00,1136.00,2855.00,432.00,656.00,,,,,,,,,,,,0,0,0,,520,15580,4176,125,140,-222
7.862,7.55,0.25,1.98,-2.81,3.17,-2.11,-0.17,0.76,-3.97,2.60,1055.00,2093.00,752.00,946.00,1114.00,2943.00,383.00,783.00,,,,,,,,,,,,0,0,0,,396,15504,4484,-390,67,-380
7.923,7.61,0.23,-1.56,0.34,-1.32,0.99,-0.14,1.74,-3.73,5.96,949.00,2213.00,690.00,1040.00,1056.00,2864.00,318.00,709.00,,,,,,,,,,,,0,0,0,,356,15368,4560,-129,-103,-63
7.963,7.66,0.35,-1.69,2.31,-0.64,2.62,2.55,-1.17,8.04,-5.37,855.00,2110.00,624.00,969.00,1177.00,2783.00,474.00,603.00,,,,,,,,,,,,0,0,0,,392,15296,4756,-80,191,-13
8.045,7.72,0.31,4.83,-4.89,6.51,-4.12,-0.32,0.83,-5.56,3.09,1121.00,1977.00,789.00,875.00,1113.00,2955.00,384.00,823.00,,,,,,,,,,,,0,0,0,,560,15408,4536,-50,468,123
8.066,7.77,0.27,-1.78,0.12,-2.03,1.15,-0.50,2.23,-5.83,8.69,964.00,2245.00,693.00,1065.00,1035.00,2867.00,285.00,716.00,,,,,,,,,,,,0,0,0,,616,15820,4424,-255,207,-227
8.126,7.83,0.35,-1.42,1.39,-0.15,1.67,1.83,-0.55,3.77,-2.90,894.00,2139.00,651.00,975.00,1153.00,2816.00,448.00,668.00,,,,,,,,,,,,0,0,0,,508,15380,4520,-216,-155,-547
8.189,7.88,0.36,2.49,-2.66,3.80,-1.75,0.47,0.53,-1.83,1.50,1037.00,2043.00,729.00,914.00,1115.00,2887.00,391.00,741.00,,,,,,,,,,,,0,0,0,,372,15408,4504,-151,-194,-402
8.228,7.94,0.34,-0.22,-0.65,1.05,-0.18,0.09,1.11,-2.14,2.88,977.00,2155.00,704.00,977.00,1088.00,2886.00,365.00,723.00,,,,,,,,,,,,0,0,0,,428,15396,4496,-247,14,-379
8.291,7.99,0.35,-0.43,-0.24,0.56,0.46,0.43,0.89,-0.78,1.92,959.00,2149.00,686.00,979.00,1094.00,2864.00,375.00,703.00,,,,,,,,,,,,0,0,0,,336,15404,4536,-257,181,-261
8.375,8.05,0.42,-0.42,0.11,1.30,0.74,1.73,-0.66,3.75,-2.81,941.00,2128.00,667.00,944.00,1162.00,2836.00,446.00,667.00,,,,,,,,,,,,0,0,0,,380,15260,4476,-301,119,-244
8.435,8.10,0.38,2.00,-2.92,3.76,-2.38,-0.27,0.91,-3.92,2.25,1061.00,2098.00,755.00,931.00,1107.00,2943.00,390.00,789.00,,,,,,,,,,,,0,0,0,,372,15456,4500,-292,132,-200
8.456,8.16,0.33,-1.95,0.43,-1.32,0.99,-0.60,2.09,-4.11,6.14,951.00,2242.00,690.00,1040.00,1045.00,2889.00,317.00,716.00,,,,,,,,,,,,0,0,0,,280,15532,4544,-197,106,-388
8.517,8.21,0.45,-1.92,2.39,-0.62,2.70,2.78,-1.43,8.39,-6.25,855.00,2125.00,621.00,966.00,1189.00,2778.00,494.00,609.00,,,,,,,,,,,,0,0,0,,204,15148,4780,-515,-5,-313
8.558,8.27,0.42,4.80,-4.98,6.22,-3.90,-0.26,0.74,-5.35,2.88,1127.00,1984.00,784.00,880.00,1117.00,2955.00,387.00,821.00,,,,,,,,,,,,0,0,0,,232,15324,4796,-313,45,-156
8.619,8.32,0.39,-1.53,0.10,-1.21,0.71,-0.22,1.78,-4.49,6.44,961.00,2225.00,699.00,1043.00,1055.00,2869.00,314.00,721.00,,,,,,,,,,,,0,0,0,,252,15368,4816,-311,276,-119
8.68,8.38,0.46,-1.58,1.45,-0.16,1.65,1.83,-0.50,4.65,-3.11,894.00,2150.00,652.00,976.00,1150.00,2813.00,446.00,649.00,,,,,,,,,,,,0,0,0,,368,15436,4812,-198,293,-96
8.782,8.43,0.45,2.35,-2.37,3.96,-1.90,0.37,0.65,-1.42,0.90,1023.00,2038.00,733.00,912.00,1110.00,2890.00,401.00,741.00,,,,,,,,,,,,0,0,0,,360,15388,4704,-253,73,-287
8.803,8.49,0.46,0.14,-0.74,1.55,-0.43,0.50,0.70,-1.26,1.74,975.00,2129.00,707.00,964.00,1104.00,2871.00,382.00,720.00,,,,,,,,,,,,0,0,0,,368,15484,4800,-105,-7,-288
8.864,8.54,0.46,-0.46,-0.09,0.21,0.53,0.50,0.92,-1.00,2.24,952.00,2143.00,688.00,991.00,1091.00,2854.00,370.00,703.00,,,,,,,,,,,,0,0,0,,256,15452,4784,-88,140,-278
8.885,8.60,0.52,-0.33,0.30,0.34,1.17,1.66,-0.52,2.32,-2.98,930.00,2110.00,663.00,969.00,1155.00,2833.00,462.00,709.00,,,,,,,,,,,,0,0,0,,228,15376,4664,-238,264,-213
8.947,8.65,0.48,2.30,-2.76,4.26,-2.48,-0.31,0.99,-4.01,2.33,1046.00,2064.00,752.00,915.00,1103.00,2941.00,389.00,790.00,,,,,,,,,,,,0,0,0,,196,15320,4712,-254,160,-141
9.008,8.71,0.43,-1.60,0.04,-1.37,1.06,-0.45,2.07,-4.11,6.61,965.00,2234.00,688.00,1040.00,1043.00,2873.00,309.00,707.00,,,,,,,,,,,,0,0,0,,172,15564,4792,-288,88,-81
9.132,8.76,0.55,-2.24,2.64,-0.57,2.98,2.83,-1.73,8.99,-7.08,848.00,2137.00,611.00,957.00,1207.00,2794.00,511.00,608.00,,,,,,,,,,,,0,0,0,,152,15468,4612,57,181,-254
9.173,8.82,0.50,4.32,-4.70,6.32,-4.06,-0.46,0.79,-5.11,2.65,1120.00,2007.00,789.00,880.00,1118.00,2975.00,390.00,818.00,,,,,,,,,,,,0,0,0,,160,15392,4772,-434,91,-333
9.194,8.87,0.46,-1.51,-0.14,-1.14,0.80,-0.23,1.58,-3.25,4.67,973.00,2237.00,695.00,1038.00,1067.00,2886.00,338.00,720.00,,,,,,,,,,,,0,0,0,,200,15256,4932,-277,32,-52
9.235,8.93,0.53,-1.22,1.45,0.16,1.60,1.85,-0.46,4.70,-2.66,888.00,2119.00,650.00,965.00,1147.00,2807.00,435.00,640.00,,,,,,,,,,,,0,0,0,,276,15388,4944,-227,188,84
9.296,8.98,0.55,2.15,-2.02,3.65,-1.49,0.83,0.34,-0.74,0.76,1008.00,2036.00,721.00,913.00,1119.00,2861.00,399.00,724.00,,,,,,,,,,,,0,0,0,,208,15160,4856,-78,428,159
9.357,9.04,0.55,0.27,-0.80,2.07,-0.68,0.51,0.63,-1.67,1.97,976.00,2122.00,710.00,951.00,1108.00,2875.00,380.00,727.00,,,,,,,,,,,,0,0,0,,420,15512,4848,-264,324,-114
9.398,9.09,0.54,-0.13,-0.32,0.73,0.41,0.44,0.99,-0.93,2.67,958.00,2128.00,686.00,974.00,1088.00,2855.00,361.00,693.00,,,,,,,,,,,,0,0,0,,476,15356,4796,-153,181,-230
9.439,9.15,0.61,-0.45,0.64,0.61,1.27,1.92,-0.77,3.93,-3.24,915.00,2101.00,656.00,956.00,1165.00,2823.00,455.00,670.00,,,,,,,,,,,,0,0,0,,200,15392,4836,-45,-28,-262
9.502,9.20,0.57,2.91,-3.21,4.93,-2.85,-0.22,0.96,-4.39,2.84,1060.00,2039.00,758.00,900.00,1103.00,2933.00,381.00,791.00,,,,,,,,,,,,0,0,0,,264,15408,5028,-157,46,-196
9.565,9.26,0.52,-1.63,0.19,-1.02,0.75,-0.43,2.12,-4.83,7.16,958.00,2228.00,695.00,1034.00,1040.00,2867.00,304.00,717.00,,,,,,,,,,,,0,0,0,,212,15296,5024,-187,120,-172
9.626,9.31,0.64,-2.26,2.65,-0.43,2.84,2.90,-1.83,8.86,-6.89,848.00,2138.00,614.00,955.00,1212.00,2794.00,507.00,608.00,,,,,,,,,,,,0,0,0,,264,15108,4812,-201,139,-117
9.687,9.37,0.60,4.18,-4.44,6.42,-3.95,-0.08,0.55,-3.33,0.82,1107.00,2004.00,783.00,874.00,1125.00,2949.00,417.00,801.00,,,,,,,,,,,,0,0,0,,352,15356,5032,-133,190,-71
9.729,9.42,0.56,-1.25,-0.30,-0.51,0.40,-0.21,1.43,-3.46,4.47,977.00,2224.00,702.00,1023.00,1075.00,2895.00,343.00,730.00,,,,,,,,,,,,0,0,0,,204,15516,4744,-202,143,-297
9.79,9.48,0.62,-1.28,1.49,0.16,1.51,1.77,-0.46,4.33,-2.41,887.00,2122.00,653.00,967.00,1149.00,2817.00,432.00,645.00,,,,,,,,,,,,0,0,0,,84,15152,4944,-400,-113,-178
9.873,9.53,0.63,1.76,-2.00,3.57,-1.62,0.85,0.33,0.77,-0.47,1014.00,2066.00,727.00,919.00,1119.00,2859.00,415.00,705.00,,,,,,,,,,,,0,0,0,,220,15216,5084,-257,34,-24
9.893,9.59,0.63,0.78,-0.97,2.35,-0.69,0.54,0.69,-1.32,1.66,976.00,2089.00,707.00,941.00,1104.00,2867.00,384.00,723.00,,,,,,,,,,,,0,0,0,,260,15324,5108,-347,227,-4
9.956,9.64,0.62,-0.36,-0.22,0.64,0.38,0.39,1.28,-1.81,3.38,957.00,2142.00,688.00,978.00,1072.00,2839.00,353.00,704.00,,,,,,,,,,,,0,0,0,,372,15392,5004,-197,211,5
9.997,9.70,0.70,-0.34,0.60,1.14,0.93,2.31,-0.95,5.52,-4.05,915.00,2094.00,662.00,945.00,1168.00,2793.00,462.00,643.00,,,,,,,,,,,,0,0,0,,248,15356,4984,-166,4,-285
10.06,9.75,0.66,3.22,-3.35,5.70,-3.40,-0.05,0.89,-4.39,2.84,1062.00,2022.00,770.00,886.00,1104.00,2919.00,381.00,791.00,,,,,,,,,,,,0,0,0,,312,15292,5048,1,-58,-210
10.123,9.81,0.61,-1.61,0.39,-0.83,0.88,-0.49,2.44,-5.03,8.03,947.00,2214.00,688.00,1023.00,1023.00,2849.00,291.00,706.00,,,,,,,,,,,,0,0,0,,156,15204,4840,5,83,-265
10.185,9.86,0.73,-2.18,2.98,-0.63,3.19,3.01,-1.68,9.03,-6.77,832.00,2113.00,605.00,954.00,1200.00,2771.00,502.00,602.00,,,,,,,,,,,,0,0,0,,148,15264,4916,-147,128,-161
10.247,9.92,0.69,3.43,-3.87,6.09,-3.50,0.05,0.69,-3.31,1.58,1088.00,2033.00,769.00,875.00,1114.00,2923.00,400.00,784.00,,,,,,,,,,,,0,0,0,,332,15320,4860,-179,28,-196
10.267,9.97,0.66,-0.77,-0.48,0.56,-0.15,-0.02,1.54,-3.49,4.97,978.00,2193.00,709.00,995.00,1065.00,2865.00,334.00,721.00,,,,,,,,,,,,0,0,0,,336,15444,4828,-222,45,-90
10.328,10.03,0.70,-1.42,1.54,0.03,2.01,1.58,-0.27,3.70,-2.12,887.00,2131.00,637.00,959.00,1141.00,2823.00,430.00,656.00,,,,,,,,,,,,0,0,0,,324,15460,4896,141,133,-318
10.368,10.08,0.71,0.63,-1.03,2.03,-0.35,0.91,0.18,0.35,0.30,982.00,2105.00,698.00,944.00,1127.00,2864.00,401.00,702.00,,,,,,,,,,,,0,0,0,,168,15284,4900,-281,3,-459
10.43,10.14,0.70,0.77,-0.96,2.95,-0.87,0.40,0.73,-2.33,2.25,976.00,2090.00,706.00,923.00,1104.00,2879.00,379.00,741.00,,,,,,,,,,,,0,0,0,,152,15180,5088,-104,-39,-42
10.492,10.19,0.69,-0.88,-0.01,-0.29,0.78,0.47,1.26,-1.76,3.68,955.00,2174.00,685.00,1004.00,1072.00,2832.00,347.00,697.00,,,,,,,,,,,,0,0,0,,176,15268,5280,-85,252,61
10.533,10.25,0.78,-0.72,1.38,0.81,1.81,2.49,-1.01,6.35,-4.45,883.00,2081.00,635.00,935.00,1168.00,2778.00,465.00,629.00,,,,,,,,,,,,0,0,0,,220,15260,4920,-139,479,84
10.615,10.30,0.75,3.83,-3.66,6.02,-3.14,0.17,0.78,-4.05,2.63,1068.00,1990.00,755.00,869.00,1106.00,2902.00,383.00,785.00,,,,,,,,,,,,0,0,0,,368,15536,4660,-202,224,-26
10.655,10.36,0.67,-2.08,0.59,-1.49,1.24,-0.88,2.57,-5.33,8.52,945.00,2244.00,683.00,1040.00,1023.00,2883.00,285.00,705.00,,,,,,,,,,,,0,0,0,,344,15276,4928,-148,-109,-251
10.719,10.41,0.77,-2.17,3.26,-1.00,3.34,2.84,-1.33,7.13,-4.95,819.00,2096.00,604.00,964.00,1181.00,2763.00,471.00,618.00,,,,,,,,,,,,0,0,0,,204,15272,5060,-85,-109,-203
10.781,10.47,0.76,3.47,-3.78,5.35,-2.84,0.47,0.56,-2.59,1.34,1082.00,2025.00,752.00,885.00,1113.00,2885.00,400.00,767.00,,,,,,,,,,,,0,0,0,,156,15188,5184,-100,147,-146
10.822,10.52,0.73,-0.53,-0.28,0.84,0.21,0.20,1.45,-3.23,5.10,963.00,2160.00,692.00,975.00,1066.00,2847.00,330.00,711.00,,,,,,,,,,,,0,0,0,,368,15356,5108,-238,239,-35
10.883,10.58,0.75,-0.99,1.41,0.33,1.97,1.15,0.28,1.47,-0.21,886.00,2102.00,635.00,949.00,1116.00,2829.00,404.00,681.00,,,,,,,,,,,,0,0,0,,352,15320,5012,-190,168,-61
11.005,10.63,0.77,0.32,-0.41,1.68,0.52,1.12,0.21,1.12,-0.14,955.00,2096.00,670.00,935.00,1121.00,2838.00,405.00,689.00,,,,,,,,,,,,0,0,0,,416,15572,5076,-208,67,17
11.025,10.69,0.74,0.98,-1.17,3.19,-0.98,0.07,0.83,-3.76,2.77,983.00,2084.00,707.00,917.00,1105.00,2910.00,378.00,773.00,,,,,,,,,,,,0,0,0,,372,15368,4876,79,155,-270
11.045,10.74,0.72,-1.13,0.06,0.00,0.76,0.39,1.34,-2.79,4.62,956.00,2192.00,682.00,993.00,1069.00,2835.00,336.00,708.00,,,,,,,,,,,,0,0,0,,300,15316,4968,-448,-35,-453
11.086,10.80,0.81,-0.78,1.53,0.90,1.92,2.61,-1.05,6.89,-4.95,877.00,2078.00,630.00,929.00,1168.00,2768.00,473.00,624.00,,,,,,,,,,,,0,0,0,,160,15092,5088,-202,-72,-117
11.147,10.85,0.77,4.06,-3.58,6.73,-3.28,-0.01,0.88,-4.88,2.91,1059.00,1968.00,751.00,848.00,1104.00,2916.00,383.00,805.00,,,,,,,,,,,,0,0,0,,320,15308,5304,-123,227,-25
11.209,10.91,0.71,-1.85,0.75,-1.17,1.37,-0.48,2.75,-5.70,9.43,933.00,2214.00,674.00,1023.00,1006.00,2825.00,273.00,698.00,,,,,,,,,,,,0,0,0,,348,15208,4964,-88,460,82
11.25,10.96,0.79,-1.85,3.11,0.14,3.08,2.35,-0.82,6.42,-4.67,821.00,2078.00,600.00,928.00,1159.00,2779.00,470.00,631.00,,,,,,,,,,,,0,0,0,,500,15464,4944,-97,275,-50
11.353,11.02,0.79,3.39,-3.20,5.21,-2.42,0.72,0.46,-1.72,1.04,1050.00,2000.00,737.00,880.00,1114.00,2864.00,400.00,747.00,,,,,,,,,,,,0,0,0,,388,15220,4884,-83,-69,-335
11.373,11.07,0.76,-0.10,-0.23,1.21,0.27,0.32,1.62,-2.76,4.95,953.00,2121.00,685.00,959.00,1054.00,2821.00,330.00,701.00,,,,,,,,,,,,0,0,0,,304,15328,5072,-43,-114,-280
11.413,11.13,0.77,-0.51,0.86,1.02,1.22,0.89,0.81,0.08,1.29,905.00,2093.00,653.00,942.00,1090.00,2819.00,382.00,691.00,,,,,,,,,,,,0,0,0,,208,15260,4984,-105,70,-275
11.494,11.18,0.82,0.78,-0.55,1.94,0.55,1.72,-0.09,2.43,-1.08,954.00,2066.00,666.00,925.00,1127.00,2794.00,416.00,671.00,,,,,,,,,,,,0,0,0,,276,15272,5020,-226,196,-93
11.537,11.24,0.78,2.07,-2.00,4.35,-1.70,0.05,1.07,-3.85,2.95,1008.00,2041.00,720.00,893.00,1091.00,2893.00,375.00,772.00,,,,,,,,,,,,0,0,0,,356,15208,4860,-150,142,-126
11.598,11.29,0.75,-1.01,0.15,0.23,0.58,0.22,1.65,-2.34,4.86,949.00,2176.00,686.00,989.00,1054.00,2830.00,329.00,691.00,,,,,,,,,,,,0,0,0,,344,15224,5076,-216,104,-37
11.64,11.35,0.84,-1.04,1.89,0.74,2.15,2.56,-1.06,7.46,-5.26,864.00,2079.00,624.00,929.00,1170.00,2774.00,476.00,615.00,,,,,,,,,,,,0,0,0,,356,15444,4984,-49,106,-174
11.721,11.40,0.78,4.24,-4.05,6.72,-3.35,-0.31,1.13,-5.38,2.74,1083.00,1979.00,754.00,850.00,1095.00,2931.00,390.00,825.00,,,,,,,,,,,,0,0,0,,252,15324,5084,-355,64,-437
11.763,11.46,0.72,-1.36,0.08,-0.56,0.84,-0.45,2.54,-5.30,8.64,959.00,2211.00,686.00,1013.00,1017.00,2837.00,283.00,702.00,,,,,,,,,,,,0,0,0,,236,15080,5100,-294,-119,-143
11.824,11.51,0.81,-1.30,2.26,0.32,2.29,2.40,-0.75,5.49,-4.00,851.00,2080.00,624.00,941.00,1154.00,2769.00,461.00,643.00,,,,,,,,,,,,0,0,0,,316,15292,5300,-122,40,-8
11.906,11.57,0.80,3.33,-2.68,5.51,-2.47,0.77,0.73,-1.47,1.38,1022.00,1977.00,735.00,871.00,1097.00,2838.00,391.00,733.00,,,,,,,,,,,,0,0,0,,352,15200,5272,-148,388,61
11.927,11.62,0.79,-0.06,-0.21,1.77,-0.07,0.48,1.44,-2.84,4.64,951.00,2116.00,691.00,947.00,1061.00,2816.00,336.00,709.00,,,,,,,,,,,,0,0,0,,480,15348,5084,70,338,83
11.968,11.68,0.80,0.54,-0.27,1.89,0.10,1.00,0.97,-0.38,2.13,944.00,2070.00,683.00,938.00,1078.00,2794.00,368.00,688.00,,,,,,,,,,,,0,0,0,,428,15360,5020,94,-34,-340
12.071,11.73,0.86,0.59,0.07,2.00,0.69,2.10,-0.30,3.21,-1.74,926.00,2047.00,660.00,919.00,1132.00,2768.00,425.00,662.00,,,,,,,,,,,,0,0,0,,344,15236,5144,197,-173,-266
12.092,11.79,0.84,2.96,-2.87,5.34,-2.62,0.45,0.84,-3.46,2.72,1040.00,2017.00,743.00,880.00,1097.00,2866.00,377.00,765.00,,,,,,,,,,,,0,0,0,,268,15232,5152,125,60,-263
12.154,11.84,0.81,-0.99,0.22,0.02,1.00,0.24,1.89,-3.57,6.67,945.00,2170.00,673.00,986.00,1040.00,2809.00,305.00,691.00,,,,,,,,,,,,0,0,0,,344,15296,4832,-133,273,-105
12.196,11.90,0.92,-1.17,2.28,0.58,2.48,2.99,-1.17,7.72,-5.15,848.00,2068.00,615.00,927.00,1168.00,2736.00,471.00,607.00,,,,,,,,,,,,0,0,0,,296,15388,5032,-166,179,-133
12.279,11.95,0.88,5.12,-4.79,7.80,-4.60,0.10,0.74,-7.07,3.60,1109.00,1949.00,791.00,842.00,1110.00,2914.00,384.00,862.00,,,,,,,,,,,,0,0,0,,204,15172,5104,-126,42,-168
12.3,12.01,0.83,-1.27,0.03,-0.36,0.69,-0.06,2.05,-4.23,6.96,960.00,2206.00,689.00,1009.00,1037.00,2831.00,304.00,704.00,,,,,,,,,,,,0,0,0,,292,15544,5080,-93,47,-94
12.362,12.06,0.89,-0.96,1.20,0.80,1.35,2.01,-0.48,4.84,-3.05,896.00,2112.00,651.00,947.00,1145.00,2791.00,443.00,643.00,,,,,,,,,,,,0,0,0,,376,15376,4808,144,108,-383
12.445,12.12,0.88,2.81,-2.45,4.85,-1.97,0.72,0.61,-1.58,1.14,1019.00,2006.00,724.00,882.00,1105.00,2853.00,397.00,741.00,,,,,,,,,,,,0,0,0,,216,15172,4720,-556,-62,-434
12.465,12.17,0.89,0.66,-0.74,2.31,-0.37,0.94,0.59,-0.97,1.98,966.00,2086.00,695.00,934.00,1102.00,2830.00,375.00,707.00,,,,,,,,,,,,0,0,0,,228,15116,5204,-271,-159,-25
12.528,12.23,0.89,0.43,-0.26,1.54,0.30,0.89,1.03,-0.04,2.12,945.00,2078.00,680.00,946.00,1077.00,2802.00,366.00,679.00,,,,,,,,,,,,0,0,0,,312,15360,5408,-190,293,46
12.568,12.28,0.97,0.54,0.36,1.81,0.90,2.50,-0.80,5.53,-3.90,912.00,2035.00,655.00,921.00,1155.00,2762.00,458.00,640.00,,,,,,,,,,,,0,0,0,,500,15220,5136,-32,540,138
12.63,12.34,0.94,3.54,-3.18,5.43,-2.87,0.35,1.00,-3.63,2.88,1046.00,1987.00,752.00,883.00,1089.00,2864.00,375.00,767.00,,,,,,,,,,,,0,0,0,,572,15548,4880,-98,212,-40
12.691,12.39,0.89,-0.84,0.19,0.07,0.66,0.10,2.26,-3.75,7.10,944.00,2159.00,685.00,993.00,1022.00,2797.00,299.00,688.00,,,,,,,,,,,,0,0,0,,344,15300,5112,30,-84,-273
12.732,12.45,1.04,-0.97,2.41,0.24,2.89,3.71,-1.93,9.68,-7.17,839.00,2045.00,605.00,929.00,1201.00,2713.00,507.00,593.00,,,,,,,,,,,,0,0,0,,400,15288,5116,70,-53,-213
12.814,12.50,1.00,5.37,-4.91,7.68,-4.32,0.28,0.78,-3.84,2.08,1111.00,1936.00,781.00,840.00,1104.00,2890.00,393.00,790.00,,,,,,,,,,,,0,0,0,,332,15236,5056,2,103,-197
12.874,12.56,0.97,-0.79,-0.17,0.42,-0.04,0.36,1.41,-3.12,4.84,962.00,2176.00,707.00,998.00,1065.00,2832.00,334.00,713.00,,,,,,,,,,,,0,0,0,,312,15236,4880,-79,180,-97
12.936,12.61,1.03,-0.40,1.11,0.98,1.41,2.25,-0.46,4.95,-2.62,891.00,2070.00,647.00,939.00,1139.00,2764.00,432.00,633.00,,,,,,,,,,,,0,0,0,,260,15320,4940,-35,142,-63
12.956,12.67,1.04,2.73,-2.27,4.71,-1.85,1.16,0.36,0.30,0.27,1011.00,2003.00,721.00,884.00,1111.00,2822.00,402.00,704.00,,,,,,,,,,,,0,0,0,,296,15232,4940,-103,96,-21
13.039,12.72,1.02,0.84,-0.89,2.70,-0.73,0.78,0.63,-1.18,1.66,971.00,2080.00,704.00,929.00,1103.00,2845.00,383.00,719.00,,,,,,,,,,,,0,0,0,,488,15472,4964,-202,107,-58
13.06,12.78,1.01,-0.11,-0.34,1.42,0.04,0.73,1.06,-0.74,2.71,959.00,2128.00,691.00,957.00,1078.00,2817.00,359.00,687.00,,,,,,,,,,,,0,0,0,,428,15372,4928,98,115,-262
13.121,12.83,1.09,-0.00,0.37,1.42,0.94,2.58,-1.01,5.57,-3.95,921.00,2079.00,658.00,934.00,1166.00,2768.00,459.00,640.00,,,,,,,,,,,,0,0,0,,332,15264,4908,-423,-66,-410
13.182,12.89,1.05,3.91,-3.53,5.80,-3.17,0.39,0.76,-3.59,2.43,1059.00,1977.00,759.00,877.00,1103.00,2879.00,384.00,775.00,,,,,,,,,,,,0,0,0,,260,15084,5036,-46,-143,-76
13.244,12.94,1.00,-0.99,0.22,-0.35,0.72,0.00,2.37,-4.53,8.25,945.00,2170.00,688.00,1008.00,1018.00,2800.00,285.00,688.00,,,,,,,,,,,,0,0,0,,360,15276,5296,-49,291,13
13.285,13.00,1.13,-1.45,2.80,0.04,3.14,3.67,-1.81,8.87,-6.60,829.00,2063.00,599.00,930.00,1194.00,2709.00,499.00,603.00,,,,,,,,,,,,0,0,0,,592,15256,4908,5,508,128
13.347,13.05,1.10,4.73,-4.27,6.74,-3.77,0.56,0.60,-3.05,1.72,1086.00,1952.00,771.00,859.00,1109.00,2872.00,395.00,773.00,,,,,,,,,,,,0,0,0,,460,15512,4764,-174,180,-106
13.409,13.11,1.09,-0.18,-0.65,0.97,-0.10,0.75,1.27,-2.38,4.76,976.00,2151.00,702.00,978.00,1066.00,2800.00,331.00,694.00,,,,,,,,,,,,0,0,0,,516,15356,4896,-55,-126,-352
13.449,13.16,1.14,-0.60,1.41,0.73,1.69,2.23,-0.32,4.62,-2.25,880.00,2070.00,640.00,941.00,1131.00,2756.00,426.00,635.00,,,,,,,,,,,,0,0,0,,428,15368,4924,-72,-125,-305
13.531,13.22,1.16,1.01,-0.86,3.08,-0.73,1.52,0.13,0.93,0.20,966.00,2064.00,699.00,915.00,1118.00,2800.00,399.00,688.00,,,,,,,,,,,,0,0,0,,376,15288,5036,-124,76,-268
13.592,13.27,1.15,1.37,-1.39,3.37,-1.04,0.82,0.75,-1.31,1.80,988.00,2064.00,707.00,912.00,1095.00,2831.00,381.00,720.00,,,,,,,,,,,,0,0,0,,380,15236,5092,-135,146,-129
13.632,13.33,1.13,-0.87,0.11,0.08,0.57,0.86,1.12,-1.57,4.05,949.00,2167.00,688.00,995.00,1072.00,2798.00,339.00,685.00,,,,,,,,,,,,0,0,0,,444,15428,4904,-141,230,-141
13.694,13.38,1.21,-0.39,1.02,1.44,0.97,2.78,-1.17,6.77,-4.71,895.00,2074.00,657.00,933.00,1172.00,2758.00,468.00,623.00,,,,,,,,,,,,0,0,0,,432,15280,4908,-125,142,-199
13.755,13.44,1.17,3.96,-3.75,6.11,-3.37,0.24,0.76,-3.80,2.35,1071.00,1985.00,763.00,871.00,1106.00,2896.00,387.00,783.00,,,,,,,,,,,,0,0,0,,412,15188,5000,-255,-4,-129
13.797,13.49,1.09,-2.05,0.35,-1.64,1.10,-0.27,2.40,-4.52,7.86,957.00,2256.00,690.00,1050.00,1021.00,2827.00,291.00,695.00,,,,,,,,,,,,0,0,0,,436,15320,4796,-84,115,-222
13.899,13.55,1.19,-1.81,2.50,-0.20,2.83,3.11,-1.58,8.35,-5.82,848.00,2109.00,612.00,947.00,1191.00,2752.00,483.00,603.00,,,,,,,,,,,,0,0,0,,292,15480,5000,-432,106,-449
13.92,13.60,1.18,3.54,-3.70,5.02,-3.09,0.85,0.27,-1.94,1.12,1076.00,2015.00,767.00,903.00,1123.00,2864.00,400.00,752.00,,,,,,,,,,,,0,0,0,,204,15124,5156,-237,-114,-127
13.94,13.66,1.18,-0.34,-0.23,0.91,-0.13,1.25,1.18,-2.35,5.03,957.00,2141.00,704.00,981.00,1061.00,2751.00,326.00,688.00,,,,,,,,,,,,0,0,0,,164,15328,5508,-92,140,-43
14.0,13.71,1.19,-0.50,1.10,0.57,1.37,1.42,0.39,0.51,1.10,893.00,2079.00,653.00,955.00,1104.00,2791.00,383.00,683.00,,,,,,,,,,,,0,0,0,,272,15188,5440,13,772,256
14.083,13.77,1.23,0.78,-0.57,1.82,0.12,1.87,-0.21,1.97,-0.29,955.00,2067.00,683.00,940.00,1131.00,2786.00,402.00,669.00,,,,,,,,,,,,0,0,0,,448,15484,4740,107,808,275
14.124,13.82,1.19,1.95,-1.72,3.76,-1.53,0.55,0.72,-3.25,2.60,995.00,2035.00,721.00,910.00,1102.00,2864.00,378.00,761.00,,,,,,,,,,,,0,0,0,,448,15272,4744,37,200,-199
14.206,13.88,1.17,-0.76,-0.03,0.10,0.54,0.72,1.31,-1.71,4.32,954.00,2165.00,689.00,995.00,1064.00,2800.00,335.00,684.00,,,,,,,,,,,,0,0,0,,416,15180,5008,-45,-188,-204
14.227,13.93,1.27,-0.91,1.70,0.47,1.95,3.14,-1.38,7.47,-5.03,871.00,2079.00,634.00,944.00,1178.00,2735.00,470.00,611.00,,,,,,,,,,,,0,0,0,,244,15292,5156,-255,-4,-246
14.289,13.99,1.21,4.36,-4.03,6.71,-3.74,0.04,0.71,-5.37,3.22,1079.00,1968.00,770.00,859.00,1113.00,2923.00,380.00,814.00,,,,,,,,,,,,0,0,0,,308,15264,5180,-348,217,-143
14.37,14.04,1.15,-1.77,0.20,-1.46,1.12,0.10,2.05,-5.06,8.49,960.00,2240.00,687.00,1042.00,1034.00,2813.00,284.00,698.00,,,,,,,,,,,,0,0,0,,160,15204,5168,-160,391,93
14.39,14.10,1.22,-1.39,1.99,-0.24,2.57,2.60,-1.15,5.33,-3.95,865.00,2103.00,621.00,955.00,1175.00,2777.00,461.00,646.00,,,,,,,,,,,,0,0,0,,316,15316,5128,-29,544,195
14.451,14.15,1.20,2.80,-2.82,4.64,-2.46,0.66,0.55,-1.75,1.29,1040.00,2027.00,746.00,901.00,1110.00,2864.00,395.00,743.00,,,,,,,,,,,,0,0,0,,308,15236,4880,-89,424,187
14.493,14.21,1.16,-0.49,-0.43,0.88,-0.12,0.50,1.21,-2.79,4.62,970.00,2165.00,704.00,982.00,1074.00,2832.00,336.00,708.00,,,,,,,,,,,,0,0,0,,504,15404,5068,-237,213,134
14.556,14.26,1.14,-0.15,-0.33,1.44,-0.10,0.84,0.64,-0.41,1.79,959.00,2131.00,696.00,960.00,1101.00,2837.00,375.00,695.00,,,,,,,,,,,,0,0,0,,504,15356,4772,-6,117,-195
14.657,14.32,1.19,0.24,-0.31,1.25,0.37,1.98,-0.50,2.47,-1.09,951.00,2097.00,681.00,955.00,1147.00,2796.00,416.00,670.00,,,,,,,,,,,,0,0,0,,388,15188,4852,-469,-80,-289
14.678,14.37,1.15,2.44,-2.96,4.34,-2.67,0.39,0.76,-3.51,2.74,1055.00,2064.00,759.00,917.00,1103.00,2879.00,377.00,766.00,,,,,,,,,,,,0,0,0,,568,15196,5412,-130,-45,-4
14.718,14.43,1.10,-1.14,0.18,-0.58,0.77,0.26,1.80,-3.81,6.81,950.00,2186.00,689.00,1016.00,1045.00,2814.00,304.00,695.00,,,,,,,,,,,,0,0,0,,524,15284,5304,-74,489,159
14.779,14.48,1.21,-1.47,2.38,0.16,2.41,3.16,-1.39,8.35,-5.52,848.00,2087.00,622.00,944.00,1178.00,2733.00,475.00,598.00,,,,,,,,,,,,0,0,0,,724,15316,4976,7,724,279
14.841,14.54,1.15,5.36,-5.20,6.98,-4.40,0.13,0.71,-5.00,2.90,1129.00,1952.00,794.00,865.00,1111.00,2912.00,384.00,809.00,,,,,,,,,,,,0,0,0,,708,15320,4900,-362,195,-123
14.923,14.59,1.10,-1.34,-0.08,-0.46,0.33,0.19,1.79,-3.87,6.47,967.00,2219.00,704.00,1023.00,1047.00,2823.00,310.00,703.00,,,,,,,,,,,,0,0,0,,696,15348,5100,-329,-236,-414
14.964,14.65,1.17,-0.93,1.14,0.21,1.44,2.52,-0.92,4.98,-2.84,898.00,2112.00,655.00,967.00,1162.00,2768.00,437.00,636.00,,,,,,,,,,,,0,0,0,,596,15328,5176,-207,-237,-730
15.026,14.70,1.17,2.77,-2.51,4.58,-2.16,1.06,0.20,-1.62,1.29,1023.00,2012.00,735.00,896.00,1123.00,2846.00,394.00,739.00,,,,,,,,,,,,0,0,0,,460,15240,5084,-298,-132,-715
15.046,14.76,1.15,0.67,-1.19,2.26,-0.92,0.74,0.65,-1.69,2.42,990.00,2111.00,717.00,950.00,1102.00,2847.00,371.00,719.00,,,,,,,,,,,,0,0,0,,176,15184,5444,-271,-137,-568
15.107,14.81,1.13,-0.18,-0.32,0.90,0.27,0.82,0.80,-0.56,2.30,959.00,2133.00,689.00,971.00,1092.00,2827.00,366.00,690.00,,,,,,,,,,,,0,0,0,,164,15240,5352,-245,-44,-482
15.168,14.87,1.19,-0.22,0.26,0.95,0.74,2.28,-0.94,4.68,-3.61,930.00,2103.00,671.00,957.00,1168.00,2796.00,458.00,657.00,,,,,,,,,,,,0,0,0,,252,15120,5256,-244,81,-380
15.21,14.92,1.14,3.02,-3.35,5.10,-2.93,0.25,0.67,-3.76,2.34,1066.00,2038.00,759.00,896.00,1111.00,2902.00,387.00,782.00,,,,,,,,,,,,0,0,0,,212,15360,5300,-305,120,-270
15.272,14.98,1.07,-1.57,0.13,-0.97,0.79,-0.25,2.15,-3.86,6.89,960.00,2226.00,693.00,1031.00,1035.00,2845.00,303.00,695.00,,,,,,,,,,,,0,0,0,,144,15172,5076,32,87,-413
15.333,15.03,1.19,-1.96,2.55,-0.32,2.69,3.43,-1.92,8.93,-6.99,848.00,2119.00,618.00,955.00,1206.00,2742.00,509.00,608.00,,,,,,,,,,,,0,0,0,,136,15144,5084,-524,-163,-509
15.395,15.09,1.15,4.91,-4.93,6.80,-4.17,0.47,0.41,-3.67,2.17,1122.00,1973.00,787.00,866.00,1122.00,2896.00,390.00,783.00,,,,,,,,,,,,0,0,0,,208,15064,5320,-282,-209,-209
15.477,15.14,1.12,-0.58,-0.51,0.16,0.04,0.49,1.23,-3.18,5.03,976.00,2178.00,707.00,1006.00,1073.00,2831.00,331.00,711.00,,,,,,,,,,,,0,0,0,,68,15160,5460,-310,121,-23
15.497,15.20,1.17,-0.95,1.44,1.84,-0.18,2.11,-0.38,4.65,-2.31,884.00,2097.00,694.00,947.00,1137.00,2773.00,427.00,635.00,,,,,,,,,,,,0,0,0,,300,15140,5376,-144,376,156
15.537,15.25,1.18,1.73,-1.87,3.85,-1.79,1.42,0.18,0.97,0.14,1007.00,2061.00,730.00,913.00,1117.00,2807.00,400.00,688.00,,,,,,,,,,,,0,0,0,,408,15340,5140,-244,145,-135
15.598,15.31,1.17,0.85,-1.20,2.99,-1.17,0.88,0.61,-1.30,1.95,987.00,2096.00,717.00,929.00,1102.00,2835.00,378.00,717.00,,,,,,,,,,,,0,0,0,,260,15144,5288,-76,-113,-148
15.66,15.36,1.15,-0.61,-0.06,0.44,0.26,0.78,1.10,-1.28,3.63,953.00,2154.00,695.00,989.00,1075.00,2809.00,345.00,685.00,,,,,,,,,,,,0,0,0,,352,15128,5352,-37,-5,-170
15.762,15.42,1.24,-0.47,0.69,1.09,1.09,2.97,-1.17,6.14,-4.14,913.00,2100.00,657.00,943.00,1168.00,2737.00,459.00,629.00,,,,,,,,,,,,0,0,0,,268,15164,5300,-172,133,-104
15.783,15.47,1.20,3.68,-3.69,5.89,-3.34,0.37,0.58,-3.67,2.36,1073.00,2004.00,765.00,878.00,1114.00,2895.00,386.00,779.00,,,,,,,,,,,,0,0,0,,396,15192,5388,-156,117,8
15.824,15.53,1.14,-1.86,0.22,-1.44,1.06,-0.00,2.03,-4.57,8.26,960.00,2246.00,689.00,1043.00,1037.00,2826.00,285.00,689.00,,,,,,,,,,,,0,0,0,,376,15152,5332,-84,126,-83
15.866,15.58,1.24,-2.20,2.98,-0.17,2.70,3.23,-1.76,9.05,-6.36,832.00,2114.00,616.00,949.00,1200.00,2752.00,491.00,595.00,,,,,,,,,,,,0,0,0,,280,15048,5404,-41,136,-88
15.926,15.64,1.21,3.19,-3.77,5.17,-3.41,0.62,0.36,-2.26,1.04,1087.00,2047.00,778.00,905.00,1122.00,2883.00,404.00,763.00,,,,,,,,,,,,0,0,0,,296,15268,5400,-90,76,-43
15.986,15.69,1.16,-0.73,-0.54,0.46,-0.14,0.12,1.48,-2.95,5.07,980.00,2192.00,710.00,999.00,1066.00,2854.00,329.00,704.00,,,,,,,,,,,,0,0,0,,412,15400,5100,155,109,-245
16.049,15.75,1.17,-1.32,1.32,0.05,1.52,1.43,0.07,2.34,-0.51,896.00,2135.00,654.00,971.00,1123.00,2814.00,404.00,663.00,,,,,,,,,,,,0,0,0,,348,15224,5164,-381,-27,-434
16.151,15.80,1.19,0.40,-0.54,1.90,-0.12,1.68,-0.11,1.89,-1.16,960.00,2096.00,691.00,943.00,1129.00,2800.00,422.00,687.00,,,,,,,,,,,,0,0,0,,180,15160,5416,-108,-114,-78
16.172,15.86,1.17,1.21,-1.17,3.08,-1.02,0.61,0.57,-3.12,2.71,979.00,2065.00,710.00,922.00,1110.00,2869.00,375.00,755.00,,,,,,,,,,,,0,0,0,,396,15180,5508,-20,147,-4
16.213,15.91,1.15,-0.98,0.20,-0.31,0.73,0.76,1.16,-1.81,4.46,946.00,2171.00,687.00,1006.00,1072.00,2807.00,333.00,684.00,,,,,,,,,,,,0,0,0,,420,15172,5296,18,432,45
16.276,15.97,1.25,-0.82,1.46,0.47,2.04,3.18,-1.44,8.02,-4.97,881.00,2085.00,631.00,942.00,1181.00,2735.00,464.00,597.00,,,,,,,,,,,,0,0,0,,576,15472,5068,-103,194,-159
16.317,16.02,1.19,4.03,-3.78,6.86,-3.69,0.11,0.78,-5.07,2.88,1071.00,1981.00,766.00,853.00,1107.00,2909.00,385.00,812.00,,,,,,,,,,,,0,0,0,,344,15160,5248,-47,-144,-342
16.379,16.08,1.13,-1.76,0.19,-1.50,1.21,-0.00,2.28,-5.81,9.34,960.00,2239.00,684.00,1041.00,1023.00,2807.00,275.00,703.00,,,,,,,,,,,,0,0,0,,344,15316,5532,-18,-97,-249
16.462,16.13,1.21,-1.68,2.46,-0.13,2.45,2.73,-1.17,5.75,-4.21,848.00,2101.00,624.00,954.00,1173.00,2763.00,464.00,640.00,,,,,,,,,,,,0,0,0,,296,15072,5300,-143,155,-193
16.503,16.19,1.20,2.91,-3.03,4.86,-2.70,0.98,0.29,-1.44,1.23,1050.00,2030.00,753.00,899.00,1119.00,2848.00,394.00,735.00,,,,,,,,,,,,0,0,0,,320,15108,5268,-164,210,-114
16.545,16.24,1.17,-0.43,-0.47,1.17,-0.09,0.57,1.22,-3.21,4.88,971.00,2162.00,699.00,970.00,1072.00,2823.00,334.00,715.00,,,,,,,,,,,,0,0,0,,364,15248,5192,-128,85,-166
16.608,16.30,1.17,-0.30,0.01,1.07,0.40,1.13,0.51,-0.07,1.73,944.00,2124.00,682.00,961.00,1103.00,2815.00,374.00,687.00,,,,,,,,,,,,0,0,0,,256,15152,5396,-94,28,-175
16.671,16.35,1.20,0.13,-0.13,1.73,0.10,1.94,-0.49,2.17,-0.58,944.00,2096.00,685.00,944.00,1147.00,2800.00,407.00,669.00,,,,,,,,,,,,0,0,0,,272,15244,5260,-212,52,-113
16.713,16.41,1.17,2.33,-2.98,4.36,-2.58,0.53,0.54,-3.77,3.27,1058.00,2074.00,755.00,914.00,1113.00,2880.00,368.00,763.00,,,,,,,,,,,,0,0,0,,344,15280,5304,71,173,-214
16.775,16.46,1.14,-1.31,0.04,-0.04,0.27,0.63,1.29,-2.86,5.96,960.00,2209.00,701.00,1008.00,1067.00,2811.00,313.00,685.00,,,,,,,,,,,,0,0,0,,296,15132,5332,-487,42,-452
16.857,16.52,1.24,-1.16,1.83,0.57,2.00,3.13,-1.37,8.07,-5.11,869.00,2093.00,631.00,939.00,1177.00,2734.00,467.00,598.00,,,,,,,,,,,,0,0,0,,244,14988,5548,-147,-116,-12
16.877,16.57,1.19,5.38,-5.11,7.54,-4.61,0.26,0.75,-4.88,2.91,1123.00,1946.00,795.00,851.00,1106.00,2894.00,383.00,805.00,,,,,,,,,,,,0,0,0,,356,15128,5584,-77,222,90
16.919,16.63,1.14,-1.32,0.10,-0.32,0.41,0.20,1.94,-4.16,7.55,957.00,2206.00,699.00,1015.00,1038.00,2810.00,294.00,691.00,,,,,,,,,,,,0,0,0,,524,15108,5232,-77,510,96
16.982,16.68,1.21,-0.77,1.17,0.66,1.40,2.45,-0.63,5.18,-2.78,894.00,2097.00,651.00,951.00,1145.00,2754.00,434.00,630.00,,,,,,,,,,,,0,0,0,,508,15488,5232,-203,103,-149
17.023,16.74,1.20,3.14,-2.83,4.83,-1.87,1.05,0.40,-1.19,1.48,1034.00,2000.00,720.00,880.00,1111.00,2832.00,387.00,723.00,,,,,,,,,,,,0,0,0,,428,15140,5408,-92,-163,-362
17.084,16.79,1.19,0.77,-1.02,2.38,-0.63,1.02,0.75,-1.05,2.26,979.00,2093.00,704.00,938.00,1091.00,2809.00,370.00,704.00,,,,,,,,,,,,0,0,0,,356,15088,5296,-63,-90,-245
17.145,16.85,1.19,0.02,-0.23,1.88,-0.17,1.09,0.77,-0.08,2.18,951.00,2111.00,693.00,945.00,1088.00,2799.00,365.00,679.00,,,,,,,,,,,,0,0,0,,304,15104,5500,-118,151,-187
17.225,16.90,1.26,0.08,0.32,1.91,0.67,2.55,-0.95,4.73,-3.63,922.00,2075.00,662.00,923.00,1163.00,2767.00,458.00,656.00,,,,,,,,,,,,0,0,0,,388,15156,5344,-160,205,-82
17.246,16.96,1.22,3.62,-4.05,5.54,-2.91,0.60,0.57,-4.15,3.15,1095.00,2028.00,752.00,880.00,1110.00,2870.00,373.00,777.00,,,,,,,,,,,,0,0,0,,380,15240,5308,-74,135,-125
17.309,17.01,1.18,-1.22,0.15,-0.28,0.61,0.29,1.82,-4.06,7.45,953.00,2195.00,691.00,1008.00,1043.00,2809.00,295.00,690.00,,,,,,,,,,,,0,0,0,,280,15064,5196,-143,65,-149
17.37,17.07,1.30,-1.66,2.52,0.37,2.70,3.66,-1.99,9.70,-7.14,845.00,2096.00,610.00,929.00,1206.00,2723.00,506.00,592.00,,,,,,,,,,,,0,0,0,,452,15452,5264,-187,28,-116
17.413,17.12,1.25,4.99,-5.04,7.61,-4.58,0.38,0.59,-4.46,2.67,1127.00,1973.00,793.00,848.00,1113.00,2893.00,385.00,797.00,,,,,,,,,,,,0,0,0,,440,15312,5260,82,115,-384
17.473,17.18,1.21,-1.03,-0.27,-0.01,0.18,0.48,1.30,-2.99,4.97,971.00,2202.00,704.00,1009.00,1069.00,2827.00,331.00,707.00,,,,,,,,,,,,0,0,0,,340,15108,5236,-515,-93,-503
17.596,17.23,1.28,-0.79,1.22,0.75,1.86,2.51,-0.57,4.89,-2.60,892.00,2096.00,634.00,936.00,1140.00,2743.00,432.00,634.00,,,,,,,,,,,,0,0,0,,152,15132,5500,-111,-182,-108
17.617,17.29,1.30,2.86,-2.45,4.88,-1.93,1.67,0.09,-0.05,1.00,1018.00,2002.00,722.00,880.00,1117.00,2786.00,389.00,700.00,,,,,,,,,,,,0,0,0,,304,15092,5544,-107,266,-20
17.637,17.34,1.29,1.32,-1.15,3.53,-1.06,1.18,0.62,-0.87,1.95,976.00,2055.00,706.00,907.00,1095.00,2800.00,375.00,705.00,,,,,,,,,,,,0,0,0,,468,15076,5240,-92,476,71
17.699,17.40,1.29,0.09,-0.33,1.56,0.08,1.24,0.83,-0.72,3.17,955.00,2111.00,688.00,951.00,1082.00,2779.00,350.00,678.00,,,,,,,,,,,,0,0,0,,544,15420,5344,-202,34,-227
17.739,17.45,1.37,0.12,0.50,1.89,0.98,2.95,-1.08,6.03,-4.11,912.00,2061.00,651.00,916.00,1163.00,2733.00,459.00,631.00,,,,,,,,,,,,0,0,0,,352,15044,5488,-62,-222,-377
17.801,17.51,1.34,3.73,-3.48,6.17,-3.19,0.74,0.62,-3.25,2.36,1060.00,1989.00,755.00,865.00,1104.00,2850.00,383.00,766.00,,,,,,,,,,,,0,0,0,,336,15060,5472,-79,-46,-304
17.864,17.56,1.29,-1.06,0.07,0.78,0.26,0.27,2.19,-5.02,8.87,954.00,2185.00,691.00,976.00,1023.00,2784.00,278.00,690.00,,,,,,,,,,,,0,0,0,,280,15044,5532,-196,176,-167
17.966,17.62,1.41,-1.66,2.78,0.50,2.84,3.70,-1.87,10.33,-7.24,833.00,2081.00,604.00,921.00,1197.00,2710.00,503.00,579.00,,,,,,,,,,,,0,0,0,,268,15112,5348,-222,219,-75
17.987,17.67,1.39,4.48,-4.25,6.99,-3.71,1.02,0.25,-2.97,1.56,1090.00,1971.00,765.00,849.00,1121.00,2847.00,398.00,774.00,,,,,,,,,,,,0,0,0,,292,15228,5304,-74,131,-139
18.05,17.73,1.36,-0.08,-0.96,1.15,-0.29,0.76,1.31,-2.77,5.12,991.00,2161.00,707.00,976.00,1063.00,2795.00,327.00,698.00,,,,,,,,,,,,0,0,0,,268,15040,5300,-141,90,-129
18.07,17.78,1.41,-0.84,1.30,1.02,1.51,2.36,-0.45,4.17,-1.88,889.00,2096.00,643.00,935.00,1136.00,2751.00,421.00,640.00,,,,,,,,,,,,0,0,0,,332,15252,5420,-187,110,-152
18.132,17.84,1.42,0.80,-1.07,2.46,-0.31,1.59,0.09,1.39,-0.09,981.00,2093.00,691.00,927.00,1119.00,2795.00,402.00,681.00,,,,,,,,,,,,0,0,0,,328,15076,5220,-52,171,-305
18.196,17.89,1.40,1.06,-1.31,3.48,-1.07,1.11,0.48,-1.71,2.04,989.00,2085.00,707.00,909.00,1105.00,2819.00,379.00,727.00,,,,,,,,,,,,0,0,0,,236,15028,5300,-465,-87,-307
18.237,17.95,1.39,-0.63,-0.13,0.18,0.73,1.25,0.89,-1.47,4.13,957.00,2160.00,681.00,987.00,1078.00,2773.00,337.00,681.00,,,,,,,,,,,,0,0,0,,364,15024,5708,-83,-122,-36
18.339,18.00,1.49,-0.36,1.22,1.50,1.52,3.34,-1.29,7.39,-4.72,885.00,2061.00,637.00,917.00,1168.00,2707.00,463.00,608.00,,,,,,,,,,,,0,0,0,,464,15072,5616,-105,437,62
18.36,18.06,1.46,4.41,-3.92,6.86,-3.47,0.81,0.60,-3.72,2.47,1072.00,1959.00,757.00,848.00,1104.00,2844.00,384.00,778.00,,,,,,,,,,,,0,0,0,,476,15144,5216,-18,477,144
18.4,18.11,1.39,-1.77,0.43,-0.72,0.79,0.10,2.50,-4.89,8.90,948.00,2226.00,690.00,1021.00,1009.00,2779.00,277.00,686.00,,,,,,,,,,,,0,0,0,,480,15332,5284,-154,-7,-261
18.463,18.17,1.50,-1.64,2.75,0.90,2.73,3.54,-1.58,7.77,-5.17,834.00,2081.00,603.00,909.00,1182.00,2706.00,471.00,606.00,,,,,,,,,,,,0,0,0,,300,15036,5416,-18,-155,-316
18.524,18.22,1.50,3.63,-3.66,5.79,-3.01,1.47,-0.04,-1.74,0.87,1072.00,2006.00,753.00,874.00,1129.00,2818.00,404.00,751.00,,,,,,,,,,,,0,0,0,,180,15096,5476,-80,14,-270
18.565,18.28,1.46,-0.14,-0.47,1.43,-0.02,0.87,1.36,-2.15,4.74,966.00,2138.00,693.00,958.00,1058.00,2779.00,330.00,688.00,,,,,,,,,,,,0,0,0,,316,15168,5436,-193,194,-131
18.626,18.33,1.47,-0.66,1.03,0.92,1.57,1.59,0.34,1.18,0.21,899.00,2096.00,642.00,937.00,1104.00,2777.00,397.00,681.00,,,,,,,,,,,,0,0,0,,292,15200,5516,-186,213,-63
18.73,18.39,1.50,0.71,-0.70,2.76,-0.30,2.09,-0.21,2.02,-0.31,963.00,2080.00,687.00,916.00,1127.00,2763.00,402.00,668.00,,,,,,,,,,,,0,0,0,,396,15060,5320,-140,87,-140
18.749,18.44,1.46,1.62,-1.75,4.45,-1.76,0.78,0.58,-3.25,2.55,1003.00,2064.00,721.00,891.00,1106.00,2849.00,379.00,762.00,,,,,,,,,,,,0,0,0,,252,15196,5352,-207,51,-42
18.791,18.50,1.39,-1.03,-0.05,0.52,0.45,-0.08,2.58,-2.30,4.96,960.00,2190.00,687.00,981.00,1008.00,2793.00,327.00,688.00,,,,,,,,,,,,0,0,0,,352,15200,5488,-33,170,-208
18.853,18.55,1.48,-0.88,1.36,0.94,1.94,3.28,-1.41,7.15,-4.92,887.00,2096.00,629.00,927.00,1177.00,2722.00,470.00,617.00,,,,,,,,,,,,0,0,0,,276,15280,5232,-449,99,-407
18.915,18.61,1.43,4.37,-4.13,7.36,-3.76,0.46,0.60,-5.46,3.54,1085.00,1973.00,762.00,838.00,1111.00,2883.00,374.00,810.00,,,,,,,,,,,,0,0,0,,240,15024,5604,-220,-175,-127
18.956,18.66,1.38,-1.61,0.14,-0.34,0.63,0.49,1.90,-4.87,8.76,960.00,2229.00,691.00,1010.00,1035.00,2781.00,279.00,688.00,,,,,,,,,,,,0,0,0,,208,15100,5692,-88,122,-20
19.06,18.72,1.48,-1.33,2.19,0.62,2.49,3.20,-1.36,6.31,-4.40,855.00,2087.00,614.00,925.00,1175.00,2726.00,464.00,629.00,,,,,,,,,,,,0,0,0,,440,15020,5656,-90,551,61
19.08,18.77,1.47,3.30,-3.08,5.36,-2.42,1.32,0.28,-1.63,1.72,1045.00,2001.00,735.00,875.00,1113.00,2811.00,385.00,731.00,,,,,,,,,,,,0,0,0,,476,15416,5216,-160,198,-78
19.121,18.83,1.43,0.18,-0.77,1.93,-0.32,0.73,1.36,-2.47,4.63,976.00,2128.00,698.00,947.00,1061.00,2795.00,334.00,699.00,,,,,,,,,,,,0,0,0,,408,15044,5356,-27,-147,-342
19.182,18.88,1.44,0.12,-0.19,3.14,-1.42,1.56,0.36,0.17,1.65,947.00,2100.00,725.00,930.00,1103.00,2778.00,374.00,682.00,,,,,,,,,,,,0,0,0,,332,15116,5388,30,-57,-267
19.243,18.94,1.48,0.59,-0.29,2.64,0.04,2.29,-0.43,2.92,-1.02,944.00,2067.00,676.00,912.00,1136.00,2757.00,411.00,657.00,,,,,,,,,,,,0,0,0,,312,14980,5524,-104,210,-169
19.284,18.99,1.45,2.79,-3.10,5.54,-2.91,0.92,0.56,-3.16,2.62,1056.00,2043.00,752.00,880.00,1104.00,2834.00,377.00,758.00,,,,,,,,,,,,0,0,0,,340,15160,5420,-181,258,-3
19.346,19.05,1.42,-0.81,-0.39,0.36,0.45,0.81,1.52,-2.81,5.82,974.00,2191.00,689.00,987.00,1050.00,2774.00,315.00,686.00,,,,,,,,,,,,0,0,0,,464,15108,5464,-100,155,-92
19.448,19.10,1.52,-1.13,1.82,0.88,1.99,3.38,-1.46,8.53,-5.34,869.00,2091.00,628.00,928.00,1178.00,2715.00,469.00,591.00,,,,,,,,,,,,0,0,0,,388,15088,5388,-182,67,-146
19.469,19.16,1.45,5.08,-5.10,8.02,-4.75,0.25,0.75,-4.46,2.43,1129.00,1969.00,794.00,838.00,1106.00,2895.00,390.00,802.00,,,,,,,,,,,,0,0,0,,396,15120,5456,-226,72,-168
19.51,19.21,1.39,-1.46,-0.10,-0.30,0.54,0.25,1.98,-5.33,8.26,970.00,2230.00,694.00,1011.00,1035.00,2802.00,289.00,710.00,,,,,,,,,,,,0,0,0,,452,15068,5452,-123,138,-364
19.551,19.27,1.43,-1.01,1.09,0.90,1.32,2.15,-0.65,5.36,-3.35,902.00,2122.00,651.00,944.00,1153.00,2789.00,446.00,635.00,,,,,,,,,,,,0,0,0,,180,14960,5412,-448,-106,-294
19.612,19.32,1.42,3.20,-3.01,5.35,-2.37,1.13,0.49,-1.28,1.51,1043.00,2005.00,733.00,874.00,1104.00,2816.00,387.00,725.00,,,,,,,,,,,,0,0,0,,232,14996,5932,-26,-104,-103
19.672,19.38,1.44,0.70,-1.15,2.72,-0.61,1.90,0.43,-1.22,2.47,987.00,2106.00,699.00,925.00,1092.00,2736.00,367.00,705.00,,,,,,,,,,,,0,0,0,,408,15004,5668,-69,397,43
19.734,19.43,1.44,0.35,-0.44,0.30,2.24,1.37,0.65,-0.28,2.15,956.00,2095.00,626.00,943.00,1090.00,2778.00,367.00,685.00,,,,,,,,,,,,0,0,0,,552,15032,5348,14,399,99
19.794,19.49,1.52,0.28,-0.05,2.29,0.51,3.01,-1.18,4.96,-3.46,937.00,2079.00,663.00,913.00,1168.00,2734.00,452.00,647.00,,,,,,,,,,,,0,0,0,,468,15200,5264,-55,-12,-247
19.856,19.54,1.49,3.42,-3.50,5.61,-2.88,0.96,0.53,-3.46,2.43,1067.00,2014.00,750.00,877.00,1105.00,2832.00,383.00,771.00,,,,,,,,,,,,0,0,0,,300,15016,5536,115,-87,-275
19.897,19.60,1.44,-0.97,-0.09,0.23,0.58,0.58,1.74,-4.08,7.21,961.00,2187.00,686.00,989.00,1042.00,2783.00,299.00,695.00,,,,,,,,,,,,0,0,0,,336,15088,5324,-17,86,-259
19.98,19.65,1.56,-1.45,2.16,1.17,2.01,3.88,-2.03,9.54,-6.90,858.00,2098.00,624.00,917.00,1204.00,2703.00,501.00,592.00,,,,,,,,,,,,0,0,0,,496,15112,5440,-214,192,-167
20.0,19.71,1.53,5.12,-5.20,7.91,-4.80,0.95,0.34,-4.75,2.77,1134.00,1971.00,798.00,843.00,1117.00,2848.00,385.00,804.00,,,,,,,,,,,,0,0,0,,408,15188,5440,-163,121,-210
20.063,19.76,1.49,-1.11,-0.33,0.18,0.19,0.59,1.37,-2.90,4.94,976.00,2213.00,701.00,1001.00,1063.00,2810.00,331.00,705.00,,,,,,,,,,,,0,0,0,,400,15032,5480,-86,128,-230
20.164,19.82,1.54,-0.78,0.91,1.16,1.17,2.65,-0.82,5.02,-3.03,907.00,2113.00,653.00,938.00,1153.00,2747.00,441.00,638.00,,,,,,,,,,,,0,0,0,,340,15144,5432,-158,85,-59
20.204,19.87,1.54,2.59,-2.77,4.95,-2.09,1.43,0.06,-0.29,0.52,1041.00,2041.00,727.00,881.00,1124.00,2815.00,401.00,716.00,,,,,,,,,,,,0,0,0,,368,15268,5316,40,130,-328
20.225,19.93,1.54,0.46,-1.18,3.22,-1.07,1.49,0.10,-0.81,1.54,993.00,2128.00,710.00,918.00,1120.00,2805.00,383.00,711.00,,,,,,,,,,,,0,0,0,,264,15120,5320,-443,29,-473
20.266,19.98,1.52,-0.11,-0.50,1.80,-0.01,1.29,0.77,-0.96,3.04,967.00,2137.00,688.00,944.00,1084.00,2777.00,354.00,687.00,,,,,,,,,,,,0,0,0,,260,15148,5676,-136,-168,-216
20.328,20.04,1.60,-0.19,0.39,2.11,0.83,2.97,-1.15,5.39,-3.69,923.00,2093.00,654.00,912.00,1167.00,2736.00,454.00,640.00,,,,,,,,,,,,0,0,0,,284,15096,5728,45,170,-55
20.39,20.09,1.56,3.53,-3.64,6.52,-3.19,0.79,0.69,-3.50,2.59,1073.00,2013.00,750.00,853.00,1099.00,2839.00,380.00,769.00,,,,,,,,,,,,0,0,0,,292,15104,5564,74,458,63
20.451,20.15,1.49,-1.05,-0.35,0.37,0.47,0.31,2.17,-3.53,6.78,976.00,2209.00,688.00,986.00,1023.00,2780.00,303.00,688.00,,,,,,,,,,,,0,0,0,,452,15408,5316,-94,206,-161
20.532,20.20,1.62,-1.45,2.18,0.96,2.44,4.11,-2.25,10.36,-7.54,857.00,2097.00,612.00,914.00,1213.00,2694.00,511.00,583.00,,,,,,,,,,,,0,0,0,,332,15056,5332,-72,-80,-316
20.553,20.26,1.58,4.96,-5.10,7.37,-4.22,0.83,0.43,-3.80,2.26,1131.00,1978.00,781.00,848.00,1114.00,2855.00,389.00,785.00,,,,,,,,,,,,0,0,0,,268,15216,5440,-95,-51,-317
20.615,20.31,1.54,-0.73,-0.72,1.02,-0.14,0.80,1.18,-3.16,4.75,990.00,2203.00,703.00,977.00,1070.00,2801.00,336.00,716.00,,,,,,,,,,,,0,0,0,,308,15148,5428,-186,90,-258
20.677,20.37,1.60,-0.79,1.00,-0.40,2.07,2.68,-0.74,4.97,-2.41,903.00,2109.00,640.00,974.00,1147.00,2737.00,427.00,629.00,,,,,,,,,,,,0,0,0,,272,15228,5408,-208,138,-150
20.739,20.42,1.62,2.30,-2.76,4.42,-1.80,1.95,-0.31,0.64,0.25,1046.00,2064.00,723.00,893.00,1136.00,2785.00,400.00,695.00,,,,,,,,,,,,0,0,0,,324,15160,5484,-66,70,-269
20.8,20.48,1.59,0.51,-0.99,3.51,-1.16,1.11,0.48,-1.05,1.43,982.00,2113.00,710.00,910.00,1105.00,2819.00,387.00,720.00,,,,,,,,,,,,0,0,0,,348,14896,5476,-136,-23,-200
20.821,20.53,1.56,-0.83,-0.35,1.05,0.25,0.97,0.97,-1.43,3.62,972.00,2190.00,688.00,966.00,1079.00,2798.00,346.00,689.00,,,,,,,,,,,,0,0,0,,268,15200,5540,-69,82,-251
20.923,20.59,1.63,-0.53,0.36,1.59,0.86,3.00,-1.29,5.72,-4.00,930.00,2123.00,659.00,930.00,1175.00,2743.00,459.00,637.00,,,,,,,,,,,,0,0,0,,276,15180,5424,-232,111,-346
20.945,20.64,1.59,3.72,-3.96,6.33,-3.51,0.66,0.55,-3.76,2.48,1088.00,2015.00,766.00,867.00,1110.00,2864.00,384.00,779.00,,,,,,,,,,,,0,0,0,,104,14996,5460,-333,-12,-198
20.985,20.70,1.50,-1.34,-0.27,-0.25,0.58,-0.05,2.58,-4.44,7.96,977.00,2230.00,692.00,1008.00,1007.00,2789.00,289.00,691.00,,,,,,,,,,,,0,0,0,,224,14988,5720,-96,101,-42
21.046,20.75,1.62,-1.71,2.40,0.26,2.95,3.83,-1.96,9.56,-7.06,851.00,2106.00,603.00,927.00,1200.00,2702.00,505.00,594.00,,,,,,,,,,,,0,0,0,,308,15024,5620,-150,397,-12
21.109,20.81,1.60,4.01,-4.38,7.12,-3.95,1.15,0.25,-2.80,1.45,1107.00,2015.00,773.00,850.00,1118.00,2832.00,399.00,771.00,,,,,,,,,,,,0,0,0,,420,15388,5296,-106,351,-49
21.171,20.86,1.57,-0.32,-1.08,1.31,-0.53,1.10,0.89,-3.00,5.20,1002.00,2189.00,714.00,976.00,1081.00,2789.00,327.00,703.00,,,,,,,,,,,,0,0,0,,320,15096,5460,-166,21,-263
21.296,20.92,1.62,-0.89,0.97,0.89,1.69,2.51,-0.71,4.35,-2.20,906.00,2119.00,638.00,935.00,1149.00,2754.00,427.00,641.00,,,,,,,,,,,,0,0,0,,228,15076,5420,-61,-80,-296
21.317,20.97,1.63,0.72,-1.23,2.70,-0.57,1.76,-0.15,1.58,-0.70,991.00,2109.00,698.00,925.00,1130.00,2794.00,414.00,687.00,,,,,,,,,,,,0,0,0,,204,14960,5416,-86,24,-304
21.337,21.03,1.59,0.82,-1.39,3.60,-1.37,0.93,0.56,-1.89,2.00,998.00,2110.00,717.00,912.00,1104.00,2833.00,381.00,733.00,,,,,,,,,,,,0,0,0,,244,15028,5536,-248,109,-158
21.377,21.08,1.56,-1.21,-0.30,0.12,0.59,1.05,0.89,-1.71,3.99,976.00,2220.00,687.00,993.00,1082.00,2795.00,341.00,690.00,,,,,,,,,,,,0,0,0,,168,15008,5628,-127,180,-149
21.439,21.14,1.64,-0.88,0.84,1.09,1.60,3.17,-1.44,6.02,-4.50,912.00,2125.00,639.00,930.00,1181.00,2736.00,469.00,638.00,,,,,,,,,,,,0,0,0,,172,14924,5568,-153,141,-98
21.521,21.19,1.60,3.40,-3.86,6.33,-3.34,0.67,0.40,-3.31,1.58,1088.00,2035.00,759.00,863.00,1119.00,2875.00,400.00,784.00,,,,,,,,,,,,0,0,0,,268,15144,5564,-144,152,-117
21.541,21.25,1.53,-2.40,0.10,-1.54,1.09,0.23,1.98,-4.00,7.31,976.00,2302.00,689.00,1046.00,1035.00,2803.00,297.00,691.00,,,,,,,,,,,,0,0,0,,272,15084,5480,-32,162,-279
21.644,21.30,1.62,-1.97,2.23,-0.02,2.92,3.44,-1.83,8.08,-5.73,863.00,2138.00,607.00,938.00,1200.00,2735.00,483.00,608.00,,,,,,,,,,,,0,0,0,,252,14844,5440,-422,-57,-253
21.665,21.36,1.59,3.04,-3.85,4.14,-2.83,1.02,0.23,-1.76,0.56,1095.00,2064.00,768.00,928.00,1122.00,2848.00,411.00,758.00,,,,,,,,,,,,0,0,0,,76,14972,5708,-183,-20,-32
21.706,21.41,1.55,-0.28,-1.08,1.64,-0.40,0.82,1.24,-3.15,5.36,1001.00,2185.00,705.00,960.00,1066.00,2794.00,325.00,704.00,,,,,,,,,,,,0,0,0,,144,15052,5752,-110,389,14
21.769,21.47,1.58,-1.03,1.01,1.05,1.49,1.99,-0.18,1.94,-0.19,906.00,2128.00,643.00,934.00,1127.00,2771.00,400.00,668.00,,,,,,,,,,,,0,0,0,,440,15156,5420,-75,471,151
21.81,21.52,1.59,0.44,-0.83,2.56,-0.29,1.87,-0.24,1.60,-0.30,975.00,2110.00,689.00,923.00,1133.00,2789.00,405.00,679.00,,,,,,,,,,,,0,0,0,,192,15076,5424,-166,0,-174
21.891,21.58,1.56,1.15,-1.58,4.19,-1.62,0.96,0.33,-3.38,2.50,1002.00,2093.00,719.00,897.00,1117.00,2847.00,381.00,767.00,,,,,,,,,,,,0,0,0,,268,15048,5600,2,-149,-241
22.014,21.63,1.54,-1.06,-0.26,0.52,0.56,1.10,0.89,-2.09,4.39,971.00,2204.00,683.00,978.00,1081.00,2789.00,336.00,693.00,,,,,,,,,,,,0,0,0,,228,15020,5596,-8,49,-250
22.034,21.69,1.61,-1.06,1.17,1.17,1.71,3.10,-1.32,6.78,-4.79,899.00,2122.00,634.00,924.00,1175.00,2735.00,470.00,624.00,,,,,,,,,,,,0,0,0,,264,15108,5392,-224,186,-72
22.055,21.74,1.55,3.79,-4.04,7.10,-3.60,0.38,0.67,-4.21,2.49,1091.00,2014.00,759.00,843.00,1108.00,2886.00,387.00,793.00,,,,,,,,,,,,0,0,0,,212,15112,5472,-196,123,-104
22.096,21.80,1.49,-2.16,-0.02,-1.29,0.98,0.24,1.96,-4.71,7.92,978.00,2288.00,690.00,1039.00,1036.00,2804.00,291.00,699.00,,,,,,,,,,,,0,0,0,,224,15072,5440,-167,57,-141
22.178,21.85,1.56,-2.22,2.44,0.29,2.57,2.87,-1.36,6.63,-4.74,857.00,2147.00,615.00,935.00,1182.00,2762.00,470.00,627.00,,,,,,,,,,,,0,0,0,,304,15080,5580,-201,58,-94
22.198,21.91,1.54,2.68,-3.49,5.07,-2.67,1.17,-0.08,-2.04,0.97,1081.00,2074.00,749.00,891.00,1138.00,2855.00,404.00,758.00,,,,,,,,,,,,0,0,0,,284,15056,5508,24,149,-269
22.258,21.96,1.49,-0.65,-0.54,1.53,-0.31,0.61,1.29,-3.18,5.09,979.00,2186.00,703.00,962.00,1067.00,2813.00,330.00,710.00,,,,,,,,,,,,0,0,0,,172,14912,5556,-405,-53,-288
22.321,22.02,1.50,-0.83,0.73,1.01,1.19,1.59,0.10,0.31,1.11,917.00,2128.00,654.00,943.00,1118.00,2794.00,384.00,688.00,,,,,,,,,,,,0,0,0,,252,14992,5692,-96,-52,-66
22.362,22.07,1.53,0.49,-0.66,2.46,0.01,2.10,-0.30,2.29,-0.53,965.00,2096.00,679.00,919.00,1132.00,2768.00,405.00,665.00,,,,,,,,,,,,0,0,0,,220,15048,5836,-119,350,7
22.423,22.13,1.49,1.75,-1.98,4.44,-1.71,0.88,0.41,-3.81,3.09,1013.00,2066.00,719.00,890.00,1114.00,2850.00,372.00,768.00,,,,,,,,,,,,0,0,0,,356,15044,5504,42,440,147
22.485,22.18,1.47,-0.72,-0.44,0.63,0.44,1.07,1.07,-2.35,5.09,975.00,2186.00,686.00,977.00,1071.00,2779.00,325.00,687.00,,,,,,,,,,,,0,0,0,,356,15264,5528,-38,61,-244
22.528,22.24,1.57,-0.72,1.16,1.28,1.77,3.36,-1.33,7.33,-4.82,894.00,2094.00,631.00,919.00,1170.00,2707.00,466.00,611.00,,,,,,,,,,,,0,0,0,,196,15096,5584,157,-121,-290
22.589,22.29,1.51,4.43,-4.34,7.13,-3.73,0.36,0.73,-5.11,2.75,1096.00,1979.00,764.00,845.00,1105.00,2884.00,388.00,816.00,,,,,,,,,,,,0,0,0,,248,15140,5484,97,17,-274
22.65,22.35,1.44,-1.86,0.11,-0.67,0.83,0.13,2.27,-4.95,8.39,966.00,2253.00,688.00,1018.00,1021.00,2793.00,285.00,697.00,,,,,,,,,,,,0,0,0,,236,14964,5408,-124,146,-169
22.731,22.40,1.51,-1.69,2.11,0.38,2.60,2.93,-1.25,5.97,-4.48,864.00,2121.00,613.00,931.00,1174.00,2748.00,469.00,639.00,,,,,,,,,,,,0,0,0,,184,15084,5288,-159,122,-146
22.751,22.46,1.50,3.11,-3.45,5.28,-2.40,1.23,0.12,-2.06,1.30,1070.00,2036.00,735.00,877.00,1124.00,2832.00,397.00,752.00,,,,,,,,,,,,0,0,0,,248,14992,5600,-154,30,-162
22.813,22.51,1.46,-0.51,-0.48,1.68,-0.34,0.65,1.28,-2.81,5.08,973.00,2170.00,702.00,957.00,1067.00,2810.00,328.00,700.00,,,,,,,,,,,,0,0,0,,264,15232,5660,-64,76,-132
22.877,22.57,1.45,-0.38,-0.00,1.26,0.83,1.29,0.47,0.08,1.29,946.00,2131.00,664.00,943.00,1102.00,2800.00,382.00,691.00,,,,,,,,,,,,0,0,0,,388,15032,5432,153,220,-285
22.937,22.62,1.48,0.25,-0.50,2.56,-0.21,2.16,-0.38,2.37,-0.88,961.00,2107.00,686.00,921.00,1136.00,2768.00,412.00,669.00,,,,,,,,,,,,0,0,0,,240,14860,5412,-404,-10,-328
22.999,22.68,1.46,2.38,-2.71,4.69,-1.87,0.95,0.45,-3.46,2.63,1042.00,2055.00,722.00,885.00,1110.00,2839.00,379.00,767.00,,,,,,,,,,,,0,0,0,,168,15028,5676,-204,-50,-49
23.04,22.73,1.44,-0.73,-0.15,0.82,0.35,1.05,1.25,-2.11,4.95,960.00,2170.00,687.00,972.00,1061.00,2768.00,326.00,683.00,,,,,,,,,,,,0,0,0,,292,15024,5724,-153,269,-6
23.101,22.79,1.55,-0.52,1.38,2.84,1.51,3.75,-1.76,7.75,-4.88,880.00,2065.00,622.00,870.00,1189.00,2697.00,464.00,602.00,,,,,,,,,,,,0,0,0,,288,15036,5604,116,344,129
23.141,22.84,1.50,4.84,-4.38,8.03,-3.99,0.59,0.64,-5.08,2.98,1090.00,1949.00,762.00,821.00,1106.00,2865.00,383.00,810.00,,,,,,,,,,,,0,0,0,,460,15272,5532,28,106,-198
23.182,22.90,1.43,-1.57,0.13,-0.34,0.74,0.13,2.47,-4.86,8.36,960.00,2226.00,687.00,1007.00,1010.00,2778.00,285.00,695.00,,,,,,,,,,,,0,0,0,,328,15012,5356,52,-41,-293
23.242,22.95,1.52,-1.02,1.76,1.22,2.05,3.18,-1.24,6.05,-4.31,870.00,2085.00,622.00,914.00,1168.00,2720.00,464.00,634.00,,,,,,,,,,,,0,0,0,,240,15132,5612,36,-34,-226
23.326,23.01,1.52,3.33,-3.14,5.73,-2.55,1.44,0.12,-0.49,1.43,1048.00,2002.00,735.00,865.00,1120.00,2809.00,383.00,704.00,,,,,,,,,,,,0,0,0,,172,15036,5448,-67,125,-203
23.388,23.06,1.49,-0.01,-0.66,2.06,-0.23,0.87,1.29,-2.71,4.76,974.00,2138.00,693.00,940.00,1062.00,2784.00,333.00,703.00,,,,,,,,,,,,0,0,0,,176,15156,5400,-29,112,-155
23.492,23.12,1.48,0.11,-0.20,2.13,0.34,1.47,0.46,-0.08,1.68,948.00,2102.00,671.00,923.00,1099.00,2781.00,375.00,688.00,,,,,,,,,,,,0,0,0,,264,15068,5380,-24,46,-174
23.512,23.17,1.52,0.48,-0.56,2.90,0.03,2.29,-0.43,2.28,-0.80,960.00,2091.00,673.00,903.00,1136.00,2757.00,411.00,670.00,,,,,,,,,,,,0,0,0,,408,15252,5408,-82,98,-143
23.533,23.23,1.49,2.86,-3.28,5.55,-2.84,0.76,0.63,-3.12,2.36,1065.00,2047.00,749.00,878.00,1103.00,2847.00,382.00,762.00,,,,,,,,,,,,0,0,0,,316,15056,5408,151,167,-346
23.575,23.28,1.45,-0.70,-0.36,0.47,0.52,0.80,1.46,-2.75,5.63,970.00,2179.00,685.00,981.00,1054.00,2780.00,318.00,688.00,,,,,,,,,,,,0,0,0,,260,15104,5348,-405,-26,-447
23.636,23.34,1.55,-0.50,1.38,1.33,2.01,3.41,-1.33,8.22,-5.08,880.00,2064.00,622.00,911.00,1169.00,2702.00,465.00,594.00,,,,,,,,,,,,0,0,0,,164,15072,5664,-77,-108,-90
23.678,23.39,1.50,5.17,-4.69,8.21,-4.17,0.56,0.68,-5.26,3.48,1102.00,1940.00,767.00,819.00,1104.00,2865.00,374.00,805.00,,,,,,,,,,,,0,0,0,,208,15060,5676,-15,290,-7
23.74,23.45,1.45,-1.10,-0.07,0.03,0.75,0.59,2.08,-4.14,7.73,962.00,2197.00,682.00,992.00,1023.00,2757.00,291.00,687.00,,,,,,,,,,,,0,0,0,,336,15088,5320,-15,458,67
23.864,23.50,1.54,-0.61,1.52,1.27,2.07,3.17,-1.08,5.98,-4.21,875.00,2065.00,621.00,912.00,1158.00,2709.00,462.00,634.00,,,,,,,,,,,,0,0,0,,380,15376,5272,-93,159,-121
23.885,23.56,1.54,3.73,-3.19,6.18,-2.47,1.58,0.24,-1.55,1.64,1043.00,1973.00,726.00,848.00,1110.00,2785.00,386.00,730.00,,,,,,,,,,,,0,0,0,,268,15004,5412,-91,-112,-344
23.905,23.61,1.52,0.35,-0.61,2.58,-0.56,1.13,1.12,-2.38,4.48,965.00,2105.00,699.00,929.00,1067.00,2769.00,336.00,699.00,,,,,,,,,,,,0,0,0,,228,15224,5468,-72,-116,-233
23.966,23.67,1.54,0.62,-0.53,2.68,-0.06,1.84,0.30,0.31,1.16,956.00,2078.00,679.00,913.00,1101.00,2752.00,383.00,687.00,,,,,,,,,,,,0,0,0,,272,15060,5404,-114,162,-214
24.007,23.72,1.58,0.89,-0.56,2.92,0.08,2.43,-0.43,3.09,-1.39,953.00,2058.00,671.00,901.00,1133.00,2741.00,418.00,659.00,,,,,,,,,,,,0,0,0,,212,15208,5188,-186,224,-68
24.068,23.78,1.56,3.23,-3.16,5.81,-2.87,1.04,0.50,-2.95,2.45,1051.00,2011.00,747.00,870.00,1105.00,2825.00,379.00,755.00,,,,,,,,,,,,0,0,0,,316,15172,5436,-144,50,-172
24.129,23.83,1.52,-0.60,-0.20,0.69,0.58,0.86,1.60,-2.81,5.82,960.00,2161.00,680.00,971.00,1045.00,2763.00,315.00,686.00,,,,,,,,,,,,0,0,0,,332,15188,5432,-188,24,-79
24.212,23.89,1.63,-0.69,1.57,1.50,1.93,3.63,-1.55,8.26,-5.13,874.00,2069.00,623.00,907.00,1178.00,2694.00,466.00,594.00,,,,,,,,,,,,0,0,0,,320,15304,5608,-34,174,-241
24.233,23.94,1.58,5.22,-5.09,7.99,-4.48,0.66,0.50,-5.11,2.75,1125.00,1957.00,783.00,833.00,1113.00,2868.00,388.00,816.00,,,,,,,,,,,,0,0,0,,288,15264,5304,-431,88,-409
24.294,24.00,1.53,-1.08,-0.30,0.02,0.51,0.66,1.79,-4.52,7.86,974.00,2209.00,691.00,999.00,1038.00,2771.00,291.00,695.00,,,,,,,,,,,,0,0,0,,184,14940,5532,-245,-94,-101
24.355,24.05,1.61,-0.41,1.24,1.72,1.36,3.13,-1.05,5.59,-3.63,885.00,2064.00,640.00,913.00,1157.00,2711.00,451.00,634.00,,,,,,,,,,,,0,0,0,,204,15064,5712,-81,169,44
24.396,24.11,1.61,3.86,-3.28,6.22,-2.66,1.62,0.33,-0.97,1.26,1046.00,1968.00,733.00,851.00,1104.00,2774.00,390.00,721.00,,,,,,,,,,,,0,0,0,,272,15028,5532,-130,488,114
24.458,24.16,1.59,0.56,-0.76,2.50,-0.32,1.22,1.01,-2.93,5.51,969.00,2096.00,691.00,926.00,1072.00,2768.00,321.00,695.00,,,,,,,,,,,,0,0,0,,408,15248,5376,-5,228,56
24.518,24.22,1.60,0.84,-0.67,2.25,0.00,1.78,0.44,0.17,1.65,959.00,2067.00,682.00,927.00,1094.00,2748.00,374.00,682.00,,,,,,,,,,,,0,0,0,,324,15148,5480,-113,-60,-338
24.58,24.27,1.65,1.15,-0.48,2.90,0.36,2.64,-0.43,3.85,-1.82,944.00,2032.00,661.00,895.00,1129.00,2719.00,422.00,647.00,,,,,,,,,,,,0,0,0,,240,15096,5448,-20,-135,-236
24.641,24.33,1.63,3.64,-3.58,5.97,-3.03,1.14,0.54,-3.12,2.85,1067.00,2001.00,751.00,868.00,1101.00,2811.00,372.00,752.00,,,,,,,,,,,,0,0,0,,348,15084,5544,-72,76,-219
24.682,24.38,1.60,-0.34,-0.38,0.83,0.46,1.08,1.49,-2.58,5.98,965.00,2150.00,683.00,969.00,1047.00,2747.00,311.00,677.00,,,,,,,,,,,,0,0,0,,224,15072,5452,-182,242,-97
24.724,24.44,1.71,-0.50,1.48,1.52,1.89,3.78,-1.60,7.65,-5.05,875.00,2058.00,624.00,907.00,1178.00,2682.00,469.00,607.00,,,,,,,,,,,,0,0,0,,296,15104,5264,-93,138,-95
24.808,24.49,1.66,5.49,-5.08,8.81,-4.78,0.68,0.53,-5.11,2.84,1119.00,1936.00,784.00,813.00,1111.00,2864.00,386.00,814.00,,,,,,,,,,,,0,0,0,,328,15036,5364,-166,79,-138
24.868,24.55,1.59,-1.17,-0.10,1.55,-0.11,0.27,2.19,-4.47,7.47,965.00,2205.00,695.00,956.00,1023.00,2784.00,297.00,701.00,,,,,,,,,,,,0,0,0,,324,15236,5256,-133,118,-126
24.95,24.60,1.66,-0.53,0.91,1.70,1.22,3.01,-1.18,5.44,-3.70,903.00,2092.00,645.00,917.00,1168.00,2734.00,454.00,639.00,,,,,,,,,,,,0,0,0,,300,15032,5408,-39,146,-288
24.971,24.66,1.65,3.51,-3.15,5.92,-2.56,1.56,0.11,-1.29,1.41,1045.00,1988.00,733.00,859.00,1118.00,2797.00,389.00,727.00,,,,,,,,,,,,0,0,0,,216,14956,5332,-363,-87,-290
25.012,24.71,1.62,0.35,-0.82,2.42,-0.48,1.02,1.09,-2.56,4.55,976.00,2117.00,698.00,933.00,1071.00,2783.00,336.00,703.00,,,,,,,,,,,,0,0,0,,156,15048,5612,-77,-66,-60
25.094,24.77,1.63,0.82,-0.56,2.18,0.11,1.81,0.41,0.15,1.96,954.00,2063.00,679.00,927.00,1095.00,2747.00,368.00,677.00,,,,,,,,,,,,0,0,0,,244,15072,5816,-107,384,-10
25.115,24.82,1.67,1.02,-0.53,3.14,-0.16,2.45,-0.20,3.70,-1.59,949.00,2045.00,677.00,899.00,1119.00,2723.00,418.00,647.00,,,,,,,,,,,,0,0,0,,508,15168,5528,53,381,81
25.175,24.88,1.65,3.46,-3.43,5.62,-2.86,1.17,0.44,-3.77,3.17,1062.00,2007.00,749.00,876.00,1106.00,2815.00,370.00,765.00,,,,,,,,,,,,0,0,0,,480,15384,5308,-108,55,-286
25.235,24.93,1.62,-0.42,-0.32,0.87,0.39,1.10,1.39,-2.32,5.48,963.00,2153.00,685.00,969.00,1052.00,2752.00,318.00,679.00,,,,,,,,,,,,0,0,0,,252,15056,5384,11,-101,-311
25.318,24.99,1.72,-0.53,1.51,1.34,1.95,3.64,-1.44,8.57,-5.28,874.00,2059.00,624.00,912.00,1171.00,2685.00,467.00,589.00,,,,,,,,,,,,0,0,0,,220,15152,5416,-27,-30,-292
25.338,25.04,1.66,5.52,-5.12,8.05,-4.52,0.59,0.67,-5.32,3.11,1121.00,1936.00,784.00,832.00,1104.00,2863.00,382.00,815.00,,,,,,,,,,,,0,0,0,,132,15032,5524,-138,171,-189
25.399,25.10,1.62,-1.11,-0.29,0.21,0.26,0.69,1.78,-4.60,7.76,974.00,2211.00,698.00,998.00,1038.00,2768.00,293.00,699.00,,,,,,,,,,,,0,0,0,,244,15096,5420,-195,164,-95
25.441,25.15,1.69,-0.69,0.90,1.27,1.45,3.04,-1.24,5.47,-3.51,906.00,2106.00,642.00,927.00,1171.00,2735.00,449.00,635.00,,,,,,,,,,,,0,0,0,,240,15160,5424,-102,71,-201
25.503,25.21,1.67,3.38,-3.35,5.24,-2.26,1.29,0.27,-1.09,0.97,1059.00,2009.00,730.00,875.00,1114.00,2815.00,397.00,730.00,,,,,,,,,,,,0,0,0,,256,15240,5472,-78,37,-51
25.545,25.26,1.63,0.00,-0.84,1.95,-0.35,1.00,0.92,-2.92,4.23,983.00,2147.00,699.00,947.00,1081.00,2798.00,344.00,719.00,,,,,,,,,,,,0,0,0,,296,15256,5296,53,144,-332
25.608,25.32,1.63,0.18,-0.54,1.96,-0.25,1.52,0.37,-0.03,1.67,964.00,2115.00,695.00,944.00,1103.00,2781.00,375.00,687.00,,,,,,,,,,,,0,0,0,,184,15200,5296,-428,65,-429
25.668,25.37,1.67,0.59,-0.50,2.68,-0.06,2.50,-0.50,3.26,-1.18,955.00,2079.00,679.00,913.00,1136.00,2739.00,412.00,651.00,,,,,,,,,,,,0,0,0,,140,14960,5464,-220,-149,-89
25.731,25.43,1.63,3.32,-3.33,5.94,-3.06,0.90,0.62,-3.07,2.74,1059.00,2013.00,753.00,870.00,1101.00,2832.00,374.00,753.00,,,,,,,,,,,,0,0,0,,204,15136,5760,13,148,58
25.793,25.48,1.60,-0.35,-0.49,0.39,0.60,0.89,1.50,-2.56,5.62,971.00,2157.00,683.00,982.00,1050.00,2767.00,317.00,683.00,,,,,,,,,,,,0,0,0,,360,15048,5496,-26,542,164
25.834,25.54,1.70,-0.67,1.49,1.36,1.89,3.60,-1.46,8.45,-5.36,877.00,2071.00,626.00,913.00,1173.00,2691.00,470.00,593.00,,,,,,,,,,,,0,0,0,,508,15332,5352,5,358,86
25.895,25.59,1.65,5.41,-5.25,8.07,-4.55,0.71,0.47,-4.78,2.49,1131.00,1951.00,785.00,832.00,1114.00,2865.00,391.00,811.00,,,,,,,,,,,,0,0,0,,324,15028,5376,-131,-30,-287
25.958,25.65,1.59,-1.34,-0.01,-0.29,0.67,0.60,1.79,-4.89,8.56,963.00,2214.00,689.00,1007.00,1039.00,2777.00,282.00,692.00,,,,,,,,,,,,0,0,0,,300,15188,5492,-75,-145,-299
26.041,25.70,1.67,-0.51,0.76,1.38,1.13,3.02,-1.15,5.52,-3.53,910.00,2099.00,652.00,931.00,1166.00,2731.00,449.00,634.00,,,,,,,,,,,,0,0,0,,268,15060,5460,-106,52,-313
26.06,25.76,1.66,3.35,-3.31,5.76,-2.63,1.48,0.12,-1.28,0.94,1057.00,2009.00,738.00,866.00,1119.00,2805.00,399.00,736.00,,,,,,,,,,,,0,0,0,,212,15024,5492,-138,165,-119
26.121,25.81,1.62,-0.08,-0.72,2.13,-0.57,0.97,0.93,-2.47,4.35,978.00,2147.00,705.00,946.00,1081.00,2800.00,339.00,704.00,,,,,,,,,,,,0,0,0,,404,15112,5320,-27,161,-99
26.182,25.87,1.61,0.40,-0.73,1.99,-0.12,1.45,0.37,0.11,1.52,970.00,2107.00,690.00,940.00,1105.00,2790.00,377.00,686.00,,,,,,,,,,,,0,0,0,,332,15048,5448,-82,125,-168
26.224,25.92,1.65,0.28,-0.46,2.52,-0.20,2.34,-0.57,3.68,-2.19,958.00,2102.00,686.00,922.00,1144.00,2762.00,432.00,658.00,,,,,,,,,,,,0,0,0,,388,15148,5312,-142,103,-165
26.283,25.98,1.60,2.65,-3.33,5.02,-2.85,0.71,0.48,-3.85,3.15,1072.00,2067.00,757.00,897.00,1113.00,2864.00,371.00,768.00,,,,,,,,,,,,0,0,0,,172,15132,5296,-32,93,-317
26.427,26.03,1.56,-1.00,-0.26,0.27,0.32,0.70,1.51,-2.35,5.15,970.00,2199.00,695.00,994.00,1053.00,2787.00,324.00,686.00,,,,,,,,,,,,0,0,0,,208,15012,5488,-467,-96,-301
26.448,26.09,1.66,-1.22,1.89,0.85,2.03,3.58,-1.61,8.52,-5.65,867.00,2094.00,627.00,928.00,1183.00,2704.00,477.00,596.00,,,,,,,,,,,,0,0,0,,224,15064,5592,-86,13,-52
26.469,26.14,1.60,5.25,-5.16,7.72,-4.73,0.44,0.67,-4.21,1.65,1129.00,1959.00,798.00,848.00,1107.00,2880.00,405.00,811.00,,,,,,,,,,,,0,0,0,,272,15088,5704,-79,370,0
26.491,26.20,1.54,-1.47,0.02,-0.27,0.35,0.53,1.74,-5.12,8.32,964.00,2224.00,701.00,1015.00,1043.00,2788.00,287.00,703.00,,,,,,,,,,,,0,0,0,,268,15184,5392,7,394,169
26.551,26.25,1.62,-0.89,1.09,1.11,1.13,3.00,-1.20,6.80,-3.92,900.00,2112.00,655.00,941.00,1169.00,2736.00,448.00,609.00,,,,,,,,,,,,0,0,0,,392,15164,5340,-147,83,-203
26.592,26.31,1.60,3.18,-3.19,5.43,-2.75,1.30,0.27,-1.77,1.72,1054.00,2017.00,747.00,880.00,1114.00,2814.00,386.00,735.00,,,,,,,,,,,,0,0,0,,340,15136,5332,-57,-75,-294
26.655,26.36,1.56,0.01,-0.97,2.14,-0.86,0.73,1.12,-2.09,4.33,990.00,2154.00,716.00,953.00,1075.00,2813.00,337.00,694.00,,,,,,,,,,,,0,0,0,,236,15032,5564,-81,-12,-322
26.717,26.42,1.55,0.31,-0.70,1.72,-0.25,1.46,0.41,0.43,1.27,970.00,2113.00,698.00,953.00,1102.00,2785.00,380.00,682.00,,,,,,,,,,,,0,0,0,,196,15100,5632,-203,126,-177
26.779,26.47,1.59,0.41,-0.67,1.92,0.17,2.38,-0.72,3.13,-1.45,967.00,2103.00,680.00,935.00,1152.00,2768.00,419.00,659.00,,,,,,,,,,,,0,0,0,,332,15140,5440,-165,104,-151
26.841,26.53,1.56,2.46,-3.30,4.86,-2.82,0.82,0.40,-3.34,2.34,1074.00,2081.00,758.00,902.00,1116.00,2858.00,384.00,769.00,,,,,,,,,,,,0,0,0,,240,15128,5516,-142,107,-118
26.882,26.58,1.52,-1.12,-0.33,0.05,0.24,0.76,1.19,-2.90,5.85,976.00,2214.00,701.00,1005.00,1070.00,2804.00,315.00,688.00,,,,,,,,,,,,0,0,0,,420,15368,5524,-193,88,-79
26.943,26.64,1.60,-1.17,1.23,0.53,1.90,3.18,-1.49,8.20,-5.43,898.00,2128.00,635.00,943.00,1184.00,2738.00,474.00,600.00,,,,,,,,,,,,0,0,0,,460,15140,5240,42,180,-292
27.004,26.69,1.54,4.87,-5.28,7.39,-4.74,0.41,0.48,-5.53,3.37,1144.00,1995.00,803.00,859.00,1119.00,2898.00,378.00,816.00,,,,,,,,,,,,0,0,0,,328,15080,5400,-445,26,-438
27.045,26.75,1.48,-1.63,-0.35,-1.00,0.51,0.32,1.90,-4.33,7.80,986.00,2260.00,704.00,1040.00,1038.00,2800.00,291.00,691.00,,,,,,,,,,,,0,0,0,,136,14932,5656,-203,-29,-167
27.147,26.80,1.55,-0.72,0.93,0.66,1.40,2.83,-1.12,5.57,-3.95,905.00,2107.00,651.00,951.00,1168.00,2749.00,459.00,640.00,,,,,,,,,,,,0,0,0,,188,15032,5840,-185,180,47
27.168,26.86,1.54,3.15,-3.17,4.99,-2.60,1.42,0.01,-1.17,1.09,1053.00,2018.00,747.00,892.00,1127.00,2820.00,395.00,730.00,,,,,,,,,,,,0,0,0,,416,14972,5608,-113,372,105
27.209,26.91,1.51,-0.40,-0.57,1.59,-0.52,0.97,0.90,-2.47,4.35,976.00,2166.00,710.00,965.00,1083.00,2803.00,339.00,704.00,,,,,,,,,,,,0,0,0,,340,15388,5316,-195,210,-236
27.291,26.97,1.51,0.17,-0.67,1.45,-0.07,1.41,0.41,-0.11,1.89,971.00,2123.00,695.00,959.00,1103.00,2791.00,371.00,685.00,,,,,,,,,,,,0,0,0,,308,15000,5412,-99,-156,-358
27.311,27.02,1.55,0.29,-0.48,2.26,-0.14,2.44,-0.70,3.25,-1.62,959.00,2102.00,687.00,930.00,1150.00,2761.00,422.00,659.00,,,,,,,,,,,,0,0,0,,336,15088,5608,42,-239,-304
27.373,27.08,1.51,2.54,-3.24,4.90,-2.89,0.66,0.55,-3.12,2.46,1069.00,2071.00,760.00,902.00,1110.00,2864.00,380.00,760.00,,,,,,,,,,,,0,0,0,,208,14968,5548,-18,149,-202
27.434,27.13,1.47,-1.16,-0.24,-0.17,0.34,0.77,1.31,-3.59,6.86,972.00,2212.00,700.00,1011.00,1063.00,2794.00,302.00,688.00,,,,,,,,,,,,0,0,0,,264,15192,5404,-131,237,-92
27.517,27.19,1.57,-1.32,1.54,0.51,1.94,3.36,-1.60,7.85,-5.15,885.00,2122.00,634.00,943.00,1187.00,2727.00,470.00,604.00,,,,,,,,,,,,0,0,0,,352,15032,5464,-104,99,-115
27.539,27.24,1.50,4.68,-5.10,7.24,-4.69,0.28,0.51,-5.53,3.37,1137.00,2000.00,803.00,863.00,1120.00,2911.00,378.00,816.00,,,,,,,,,,,,0,0,0,,388,14980,5400,-120,32,-61
27.599,27.30,1.42,-2.03,-0.06,-0.80,0.18,-0.02,1.98,-5.04,8.35,978.00,2279.00,714.00,1041.00,1040.00,2832.00,286.00,700.00,,,,,,,,,,,,0,0,0,,344,15080,5596,-106,164,-85
27.641,27.35,1.48,-1.20,0.81,0.24,1.40,2.58,-1.04,4.88,-3.52,919.00,2154.00,656.00,967.00,1168.00,2770.00,454.00,650.00,,,,,,,,,,,,0,0,0,,368,15036,5436,1,162,-236
27.702,27.41,1.47,2.68,-3.29,4.86,-2.58,1.15,0.05,-1.46,1.61,1069.00,2062.00,748.00,896.00,1130.00,2847.00,386.00,728.00,,,,,,,,,,,,0,0,0,,224,14760,5432,-391,-85,-264
27.764,27.46,1.43,-0.77,-0.24,1.16,-0.35,0.77,1.05,-2.84,4.58,965.00,2178.00,709.00,977.00,1078.00,2814.00,337.00,710.00,,,,,,,,,,,,0,0,0,,180,15076,5656,-183,-38,6
27.806,27.52,1.43,0.11,-0.71,1.62,-0.13,1.37,0.41,0.24,1.43,974.00,2130.00,695.00,954.00,1104.00,2795.00,378.00,684.00,,,,,,,,,,,,0,0,0,,184,15080,5820,-133,395,93
27.888,27.57,1.47,0.24,-0.31,2.38,-0.15,2.28,-0.60,2.99,-0.95,951.00,2097.00,686.00,926.00,1147.00,2771.00,409.00,654.00,,,,,,,,,,,,0,0,0,,460,15204,5360,-9,434,179
27.93,27.63,1.43,2.95,-3.40,5.01,-3.04,0.72,0.63,-3.55,3.15,1070.00,2046.00,765.00,902.00,1104.00,2851.00,369.00,759.00,,,,,,,,,,,,0,0,0,,492,15208,5416,-133,61,-292
27.973,27.68,1.41,-1.12,-0.14,0.02,0.25,0.87,1.21,-3.09,5.92,966.00,2203.00,701.00,1006.00,1067.00,2791.00,315.00,692.00,,,,,,,,,,,,0,0,0,,352,15080,5572,15,-155,-278
28.056,27.74,1.51,-1.18,1.54,0.40,2.18,3.49,-1.69,8.30,-5.07,883.00,2111.00,627.00,941.00,1190.00,2719.00,464.00,592.00,,,,,,,,,,,,0,0,0,,188,14988,5612,24,26,-252
28.098,27.79,1.45,4.76,-4.91,7.31,-4.58,0.39,0.46,-5.07,2.68,1124.00,1984.00,797.00,858.00,1121.00,2902.00,389.00,816.00,,,,,,,,,,,,0,0,0,,312,15032,5472,-104,251,-182
28.16,27.85,1.39,-1.70,-0.19,-0.23,-0.01,0.20,1.85,-4.45,7.27,979.00,2257.00,714.00,1023.00,1043.00,2817.00,300.00,704.00,,,,,,,,,,,,0,0,0,,268,15068,5532,-163,170,-108
28.243,27.90,1.47,-1.26,1.30,1.03,1.24,2.92,-1.36,5.59,-3.91,896.00,2131.00,652.00,941.00,1181.00,2757.00,458.00,639.00,,,,,,,,,,,,0,0,0,,284,15180,5460,-79,104,-188
28.263,27.96,1.45,2.80,-3.16,5.24,-2.76,1.18,0.14,-2.01,1.47,1059.00,2045.00,750.00,887.00,1124.00,2837.00,393.00,747.00,,,,,,,,,,,,0,0,0,,456,14964,5476,-174,79,-208
28.304,28.01,1.41,-0.45,-0.89,1.50,-0.38,0.70,0.91,-3.35,4.92,994.00,2189.00,706.00,965.00,1088.00,2833.00,334.00,718.00,,,,,,,,,,,,0,0,0,,388,15156,5512,-228,114,-275
28.365,28.07,1.42,-0.11,-0.71,1.49,-0.14,1.50,0.07,-0.26,1.79,978.00,2149.00,697.00,959.00,1122.00,2807.00,374.00,691.00,,,,,,,,,,,,0,0,0,,324,15072,5436,-373,68,-420
28.425,28.12,1.47,0.06,-0.42,2.11,-0.11,2.38,-0.72,3.63,-2.00,960.00,2118.00,688.00,935.00,1152.00,2768.00,428.00,656.00,,,,,,,,,,,,0,0,0,,176,14864,6100,-663,-78,-480
28.467,28.18,1.43,2.62,-3.25,5.23,-2.88,0.79,0.52,-3.16,2.38,1068.00,2065.00,755.00,890.00,1109.00,2852.00,382.00,763.00,,,,,,,,,,,,0,0,0,,240,15284,6372,-54,337,-409
28.528,28.23,1.40,-0.88,-0.16,0.57,0.41,0.83,1.34,-2.41,5.45,963.00,2183.00,688.00,980.00,1060.00,2785.00,319.00,682.00,,,,,,,,,,,,0,0,0,,216,15212,6144,422,186,-559
28.629,28.29,1.52,-0.74,1.43,0.58,2.62,3.66,-1.64,8.24,-5.05,881.00,2080.00,610.00,923.00,1183.00,2697.00,464.00,593.00,,,,,,,,,,,,0,0,0,,204,14880,5656,1028,-3,-590
28.65,28.34,1.47,4.94,-4.88,7.52,-4.22,0.68,0.28,-5.23,2.93,1118.00,1968.00,779.00,843.00,1126.00,2883.00,385.00,816.00,,,,,,,,,,,,0,0,0,,56,15264,5512,1026,-154,-710
28.71,28.40,1.42,-1.38,-0.03,-0.51,0.48,0.43,1.88,-4.92,8.51,965.00,2219.00,699.00,1021.00,1037.00,2789.00,283.00,694.00,,,,,,,,,,,,0,0,0,,60,15224,5012,1222,-445,-632
28.751,28.45,1.50,-0.87,1.29,0.78,1.50,2.96,-1.31,5.34,-3.67,890.00,2099.00,646.00,944.00,1177.00,2749.00,454.00,641.00,,,,,,,,,,,,0,0,0,,-148,15588,4956,1116,-395,-608
28.792,28.51,1.49,3.22,-3.25,5.24,-2.46,1.42,-0.13,-1.55,0.99,1056.00,2016.00,738.00,880.00,1136.00,2831.00,400.00,743.00,,,,,,,,,,,,0,0,0,,-144,16204,4608,1183,-6,-604
28.854,28.56,1.46,-0.11,-0.76,1.58,-0.69,0.86,0.80,-3.30,4.79,981.00,2152.00,717.00,970.00,1091.00,2823.00,336.00,719.00,,,,,,,,,,,,0,0,0,,-236,15700,4076,2142,-18,-670
28.935,28.62,1.46,0.35,-0.69,1.47,-0.27,1.31,0.18,-0.10,1.40,969.00,2109.00,702.00,963.00,1119.00,2819.00,381.00,694.00,,,,,,,,,,,,0,0,0,,-296,15920,3516,3419,-44,-301
28.997,28.67,1.48,0.43,-0.45,2.31,-0.52,2.03,-0.60,2.42,-1.12,955.00,2089.00,701.00,938.00,1152.00,2798.00,417.00,672.00,,,,,,,,,,,,0,0,0,,-112,16092,2880,4682,229,-632
29.017,28.73,1.43,2.47,-3.01,4.79,-3.21,0.50,0.34,-3.72,2.52,1057.00,2064.00,775.00,914.00,1126.00,2899.00,383.00,777.00,,,,,,,,,,,,0,0,0,,-232,15884,1936,5301,637,-662
29.08,28.78,1.39,-0.99,-0.37,-0.67,0.24,0.49,0.86,-2.81,4.96,976.00,2205.00,710.00,1034.00,1095.00,2860.00,330.00,702.00,,,,,,,,,,,,0,0,0,,-264,15844,1232,4372,1118,-807
29.141,28.84,1.46,-1.00,1.52,0.76,0.86,2.90,-1.75,7.55,-5.33,881.00,2097.00,669.00,961.00,1207.00,2788.00,477.00,614.00,,,,,,,,,,,,0,0,0,,-384,15904,1792,2411,2223,-1241
29.182,28.89,1.39,4.75,-4.60,6.65,-4.58,0.07,0.34,-5.50,2.78,1105.00,1968.00,807.00,881.00,1135.00,2949.00,390.00,828.00,,,,,,,,,,,,0,0,0,,-568,15816,1512,971,2428,-1609
29.245,28.95,1.34,-1.28,-0.18,-1.13,0.16,0.26,1.38,-5.46,8.24,971.00,2219.00,719.00,1055.00,1069.00,2846.00,290.00,714.00,,,,,,,,,,,,0,0,0,,-832,16144,1484,1267,1882,-1484
29.37,29.00,1.42,-0.74,1.45,0.47,0.99,3.09,-2.20,5.02,-4.00,880.00,2079.00,668.00,969.00,1232.00,2800.00,465.00,655.00,,,,,,,,,,,,0,0,0,,-1244,15776,1392,1642,1155,-1388
29.39,29.06,1.41,3.16,-3.14,4.56,-2.92,1.20,-0.32,-2.04,1.76,1051.00,2015.00,766.00,915.00,1152.00,2870.00,387.00,742.00,,,,,,,,,,,,0,0,0,,-1292,15324,1216,683,875,-1195
29.43,29.11,1.37,0.11,-0.73,1.27,-1.07,0.55,0.77,-3.39,4.82,975.00,2131.00,736.00,992.00,1099.00,2860.00,336.00,721.00,,,,,,,,,,,,0,0,0,,-1460,15636,1328,721,390,-1105
29.471,29.17,1.36,0.09,-0.37,1.29,-0.49,1.19,-0.06,-0.55,1.21,957.00,2113.00,713.00,976.00,1136.00,2851.00,388.00,710.00,,,,,,,,,,,,0,0,0,,-1476,15684,1008,-221,-390,-876
29.534,29.22,1.39,0.63,-0.50,1.48,-0.25,1.93,-0.82,2.77,-1.80,954.00,2075.00,701.00,962.00,1168.00,2826.00,430.00,675.00,,,,,,,,,,,,0,0,0,,-1636,15592,1324,-878,-1624,-733
29.574,29.28,1.34,2.83,-2.95,4.15,-3.00,0.46,0.19,-3.88,2.57,1047.00,2032.00,775.00,932.00,1136.00,2915.00,383.00,781.00,,,,,,,,,,,,0,0,0,,-1720,15696,1924,-1007,-2222,-169
29.616,29.33,1.30,-0.72,-0.23,-0.49,-0.20,0.42,0.85,-3.05,5.21,964.00,2174.00,725.00,1039.00,1097.00,2869.00,327.00,704.00,,,,,,,,,,,,0,0,0,,-1528,15972,2380,-1188,-1666,61
29.718,29.39,1.38,-0.83,1.44,0.52,1.03,2.93,-1.93,6.69,-4.96,882.00,2087.00,666.00,966.00,1218.00,2798.00,475.00,629.00,,,,,,,,,,,,0,0,0,,-1364,16148,2460,-1427,-1328,112
29.738,29.44,1.31,4.35,-4.19,6.15,-4.18,-0.05,0.20,-7.13,4.61,1089.00,1978.00,797.00,889.00,1146.00,2974.00,364.00,841.00,,,,,,,,,,,,0,0,0,,-1372,16080,2440,-1749,-1882,254
29.798,29.50,1.24,-1.37,-0.15,-1.49,0.03,-0.05,1.40,-4.97,7.20,971.00,2225.00,729.00,1074.00,1074.00,2880.00,304.00,720.00,,,,,,,,,,,,0,0,0,,-1184,15840,2536,-2499,-2570,525
29.86,29.55,1.30,-0.79,1.77,-0.06,1.50,2.47,-1.64,5.49,-4.75,866.00,2066.00,656.00,976.00,1209.00,2827.00,480.00,656.00,,,,,,,,,,,,0,0,0,,-1036,15432,2748,-3042,-2943,861
29.92,29.61,1.29,3.77,-3.02,4.60,-2.98,1.00,-0.25,-1.98,1.18,1033.00,1961.00,768.00,915.00,1152.00,2887.00,399.00,752.00,,,,,,,,,,,,0,0,0,,-636,15448,3612,-3588,-2589,1191
29.982,29.66,1.26,0.80,-0.42,1.55,-0.91,0.77,0.56,-3.20,4.60,947.00,2057.00,726.00,977.00,1107.00,2851.00,339.00,720.00,,,,,,,,,,,,0,0,0,,-200,15892,4272,-4121,-1852,1363
30.022,29.72,1.27,1.41,-0.23,1.68,-0.42,1.48,-0.32,0.18,0.45,927.00,1998.00,705.00,959.00,1146.00,2838.00,399.00,704.00,,,,,,,,,,,,1,1,0,,-16,15820,4716,-3819,-1183,942
30.103,29.77,1.30,2.14,-0.75,2.17,-0.56,1.77,-0.54,1.09,-0.31,941.00,1968.00,704.00,944.00,1154.00,2823.00,409.00,693.00,,,,,,,,,,,,1,1,0,,-36,15880,5068,-3342,-1056,364
30.124,29.83,1.29,2.68,-1.34,3.64,-1.72,1.15,0.01,-1.99,1.75,962.00,1957.00,730.00,919.00,1133.00,2851.00,387.00,741.00,,,,,,,,,,,,1,1,0,,80,15680,5632,-2145,-760,101
30.166,29.88,1.29,1.17,-0.27,1.27,-0.12,1.35,0.30,-0.81,2.28,933.00,2019.00,699.00,967.00,1111.00,2806.00,368.00,697.00,,,,,,,,,,,,1,1,0,,112,15572,5772,-1548,-135,-228
30.227,29.94,1.40,0.65,1.24,1.67,1.23,3.39,-1.73,6.87,-4.75,868.00,1979.00,645.00,918.00,1195.00,2733.00,468.00,621.00,,,,,,,,,,,,1,1,0,,-44,15332,5608,-862,403,-245
30.287,29.99,1.36,5.89,-4.19,7.03,-3.67,0.61,0.25,-5.63,3.02,1059.00,1861.00,763.00,847.00,1129.00,2893.00,386.00,827.00,,,,,,,,,,,,1,1,0,,12,15420,5384,-686,277,-175
30.349,30.05,1.31,-0.38,0.02,-0.65,0.90,0.42,1.83,-5.35,8.07,945.00,2130.00,685.00,1015.00,1040.00,2794.00,292.00,714.00,,,,,,,,,,,,1,1,0,,4,15244,5444,-463,200,-19
30.391,30.10,1.40,-0.40,2.38,0.85,2.47,3.02,-1.44,5.38,-4.48,832.00,2001.00,612.00,917.00,1184.00,2752.00,474.00,654.00,,,,,,,,,,,,1,1,0,,-16,15188,5208,97,265,-62
30.452,30.16,1.40,4.21,-3.20,5.53,-2.68,1.41,-0.13,-1.66,0.70,1035.00,1937.00,743.00,875.00,1136.00,2832.00,407.00,752.00,,,,,,,,,,,,1,1,0,,-252,15144,5136,-390,201,-359
30.513,30.21,1.38,1.16,-0.75,1.82,-0.12,1.04,1.00,-3.26,4.95,958.00,2046.00,692.00,946.00,1076.00,2788.00,333.00,715.00,,,,,,,,,,,,1,1,0,,-256,15136,5476,-380,202,-257
30.573,30.27,1.40,0.82,0.60,1.76,0.89,1.79,0.15,0.42,0.79,896.00,2000.00,656.00,923.00,1111.00,2768.00,390.00,691.00,,,,,,,,,,,,1,1,0,,-288,15132,5380,-120,366,-89
30.655,30.32,1.45,2.09,-0.70,4.06,-1.61,2.41,-0.50,1.43,-0.38,939.00,1969.00,720.00,901.00,1138.00,2749.00,408.00,685.00,,,,,,,,,,,,1,1,0,,-240,15192,5176,-163,514,-56
30.675,30.38,1.44,3.37,-1.95,4.63,-1.77,1.21,0.30,-3.55,2.41,982.00,1936.00,719.00,885.00,1114.00,2822.00,384.00,774.00,,,,,,,,,,,,1,1,0,,-64,15240,4912,-246,453,22
30.737,30.43,1.43,0.31,0.00,1.05,0.44,1.28,0.93,-1.81,4.02,934.00,2074.00,681.00,961.00,1075.00,2766.00,341.00,692.00,,,,,,,,,,,,1,1,0,,-204,15116,4964,-397,211,-175
30.86,30.49,1.50,0.51,1.10,2.01,1.55,2.92,-1.04,4.12,-2.85,877.00,1998.00,630.00,898.00,1161.00,2733.00,444.00,658.00,,,,,,,,,,,,1,1,0,,-120,15072,5104,-228,88,20
30.881,30.54,1.47,3.69,-2.74,5.80,-2.22,0.88,0.41,-4.83,2.80,1019.00,1953.00,721.00,855.00,1114.00,2850.00,385.00,806.00,,,,,,,,,,,,1,1,0,,-140,15228,5308,-137,139,-95
30.922,30.60,1.43,-1.32,0.39,-0.12,0.64,0.70,1.74,-4.95,7.75,942.00,2189.00,688.00,1001.00,1040.00,2770.00,295.00,709.00,,,,,,,,,,,,1,1,0,,28,15252,5300,15,196,-70
30.963,30.65,1.54,-0.71,2.06,0.84,2.69,3.51,-1.71,6.93,-5.20,851.00,2043.00,605.00,912.00,1191.00,2719.00,479.00,627.00,,,,,,,,,,,,1,1,0,,-100,15216,5296,71,53,-61
31.024,30.71,1.54,4.17,-4.03,5.68,-2.73,1.52,-0.15,-2.51,1.13,1083.00,1983.00,743.00,871.00,1135.00,2821.00,404.00,769.00,,,,,,,,,,,,1,1,0,,36,15208,5428,-36,98,130
31.064,30.76,1.50,0.30,-0.75,1.98,-0.46,0.87,1.09,-3.03,4.81,973.00,2117.00,703.00,949.00,1074.00,2800.00,334.00,711.00,,,,,,,,,,,,1,1,0,,-92,15440,5408,82,220,-36
31.105,30.82,1.53,-0.13,0.73,1.05,1.29,2.06,-0.33,1.26,0.09,905.00,2069.00,650.00,939.00,1135.00,2775.00,399.00,681.00,,,,,,,,,,,,1,1,0,,-60,15396,5180,-159,219,-277
31.188,30.87,1.56,1.57,-1.10,2.91,-0.27,2.19,-0.49,1.49,-0.63,969.00,2032.00,684.00,910.00,1142.00,2772.00,413.00,688.00,,,,,,,,,,,,1,1,0,,-92,15192,5176,-207,125,-288
31.249,30.93,1.55,2.39,-1.81,4.33,-1.33,1.28,0.24,-2.77,2.39,992.00,2005.00,706.00,885.00,1116.00,2818.00,379.00,751.00,,,,,,,,,,,,1,1,0,,-96,15020,5296,-2,217,-35
31.291,30.98,1.55,0.09,-0.37,1.30,0.21,1.50,0.63,-1.71,3.51,957.00,2113.00,686.00,957.00,1088.00,2764.00,350.00,699.00,,,,,,,,,,,,1,1,0,,-104,15356,5272,-79,598,39
31.333,31.04,1.64,0.31,0.98,2.17,1.35,3.43,-1.51,6.00,-4.41,886.00,2020.00,635.00,897.00,1180.00,2713.00,467.00,637.00,,,,,,,,,,,,1,1,0,,-80,15460,4992,-188,764,-194
31.395,31.09,1.61,5.00,-4.10,7.36,-3.59,0.97,0.48,-3.68,1.84,1071.00,1923.00,755.00,834.00,1108.00,2835.00,397.00,790.00,,,,,,,,,,,,1,1,0,,-8,15216,4936,-326,-1,-263
31.436,31.15,1.57,-0.96,-0.08,-0.06,0.70,0.78,1.71,-4.94,8.00,960.00,2185.00,685.00,997.00,1040.00,2763.00,291.00,704.00,,,,,,,,,,,,1,1,0,,-120,15180,5352,-312,-197,51
31.498,31.20,1.68,-0.58,2.11,0.79,3.02,3.91,-1.97,6.76,-5.71,847.00,2030.00,595.00,906.00,1199.00,2695.00,494.00,640.00,,,,,,,,,,,,1,1,0,,-40,15316,5588,-121,144,-60
31.56,31.26,1.68,4.17,-3.84,6.48,-3.17,1.60,-0.20,-2.14,0.86,1072.00,1973.00,750.00,854.00,1136.00,2815.00,407.00,763.00,,,,,,,,,,,,1,1,0,,-188,15276,5228,-63,379,-183
31.622,31.31,1.65,0.46,-0.92,1.80,-0.01,1.12,1.06,-2.75,4.61,979.00,2113.00,688.00,944.00,1071.00,2775.00,336.00,707.00,,,,,,,,,,,,1,1,0,,-88,14984,5324,-92,162,-266
31.664,31.37,1.69,-0.26,0.96,1.64,1.47,2.39,-0.44,2.95,-1.91,896.00,2067.00,637.00,913.00,1135.00,2747.00,431.00,672.00,,,,,,,,,,,,1,1,0,,-200,15100,5412,-78,90,-208
31.724,31.42,1.70,1.60,-1.54,3.14,0.01,1.92,-0.06,0.64,-0.07,992.00,2054.00,671.00,895.00,1121.00,2770.00,407.00,701.00,,,,,,,,,,,,1,1,0,,-116,15236,5676,-31,571,-320
31.785,31.48,1.68,1.36,-0.90,4.40,-1.36,1.35,0.37,-1.94,1.87,962.00,2038.00,706.00,883.00,1107.00,2801.00,384.00,737.00,,,,,,,,,,,,1,1,0,,-276,15508,6448,-700,2312,-1415
31.826,31.53,1.67,-0.08,-0.38,0.94,0.64,1.35,0.74,-1.43,3.36,960.00,2127.00,675.00,960.00,1085.00,2773.00,351.00,694.00,,,,,,,,,,,,1,1,0,,-596,14732,5108,-600,3432,-1619
31.93,31.59,1.75,0.56,0.64,2.16,1.12,3.29,-1.31,5.90,-4.26,898.00,2018.00,643.00,903.00,1170.00,2713.00,464.00,637.00,,,,,,,,,,,,1,1,0,,-940,14680,4700,-385,2101,-403
31.95,31.64,1.70,4.32,-3.35,6.79,-3.33,0.85,0.47,-3.76,2.34,1041.00,1936.00,752.00,847.00,1111.00,2849.00,387.00,782.00,,,,,,,,,,,,1,1,0,,-652,14852,4420,-347,354,396
32.011,31.70,1.64,-0.82,0.13,-0.29,0.67,0.41,1.84,-4.69,7.79,947.00,2161.00,689.00,1007.00,1040.00,2795.00,293.00,701.00,,,,,,,,,,,,1,1,0,,-556,15300,5356,-527,-751,46
32.073,31.75,1.74,-0.68,2.54,0.26,2.95,3.66,-1.99,8.60,-6.51,829.00,2015.00,603.00,927.00,1206.00,2723.00,499.00,608.00,,,,,,,,,,,,1,1,0,,-656,15000,5704,-338,-569,-55
32.136,31.81,1.71,4.81,-4.06,6.52,-3.41,1.10,0.02,-4.01,2.62,1072.00,1935.00,759.00,858.00,1133.00,2855.00,383.00,784.00,,,,,,,,,,,,1,1,0,,-720,15192,5772,-82,3,-59
32.157,31.86,1.67,0.40,-0.90,1.47,-0.35,0.91,0.94,-3.06,4.55,979.00,2117.00,705.00,965.00,1082.00,2807.00,339.00,717.00,,,,,,,,,,,,1,1,0,,-612,15124,5568,-244,358,-136
32.218,31.92,1.70,-0.25,1.16,1.41,1.29,2.39,-0.70,3.63,-2.18,886.00,2055.00,646.00,926.00,1151.00,2766.00,432.00,659.00,,,,,,,,,,,,1,1,0,,-716,14860,5444,-411,183,-153
32.299,31.97,1.71,1.72,-1.28,3.24,-0.81,1.85,-0.36,0.47,-0.19,976.00,2030.00,700.00,911.00,1141.00,2800.00,411.00,708.00,,,,,,,,,,,,1,1,0,,-756,15152,5636,-202,168,-96
32.32,32.03,1.68,1.61,-1.44,4.47,-2.62,1.14,0.17,-2.25,1.98,986.00,2047.00,755.00,911.00,1123.00,2839.00,384.00,744.00,,,,,,,,,,,,1,1,0,,-668,15120,5284,44,299,-156
32.382,32.08,1.66,0.18,-0.58,0.96,0.22,1.27,0.46,-1.67,3.28,966.00,2117.00,690.00,970.00,1103.00,2803.00,354.00,702.00,,,,,,,,,,,,1,1,0,,-748,14956,5412,-401,-29,-319
32.424,32.14,1.72,0.29,0.41,1.91,0.84,2.92,-1.33,5.37,-4.51,914.00,2053.00,656.00,919.00,1179.00,2754.00,475.00,655.00,,,,,,,,,,,,1,1,0,,-760,14804,5680,-164,21,19
32.486,32.19,1.68,4.35,-3.80,6.21,-3.20,0.87,0.25,-4.01,2.28,1066.00,1957.00,755.00,864.00,1124.00,2864.00,390.00,791.00,,,,,,,,,,,,1,1,0,,-540,15124,5696,-139,282,-14
32.568,32.25,1.61,-0.74,0.12,0.41,0.46,0.23,1.88,-4.83,7.84,946.00,2155.00,688.00,985.00,1041.00,2811.00,293.00,704.00,,,,,,,,,,,,1,1,0,,-508,15108,5660,-101,278,2
32.61,32.30,1.71,-1.01,2.58,0.58,2.62,3.65,-2.10,8.72,-6.81,832.00,2039.00,610.00,923.00,1213.00,2732.00,506.00,610.00,,,,,,,,,,,,1,1,0,,-548,15152,5484,-125,9,-279
32.652,32.36,1.67,5.08,-4.47,7.24,-4.04,0.86,0.05,-3.80,1.84,1091.00,1936.00,775.00,848.00,1136.00,2880.00,398.00,794.00,,,,,,,,,,,,1,1,0,,-660,14936,5544,-38,-91,-212
32.714,32.41,1.62,0.15,-1.02,1.62,-0.45,0.78,0.93,-3.16,4.69,990.00,2145.00,707.00,962.00,1085.00,2822.00,337.00,717.00,,,,,,,,,,,,1,1,0,,-724,14976,5616,35,51,-194
32.776,32.47,1.66,-0.29,0.97,1.54,1.13,2.37,-0.73,3.83,-2.24,896.00,2069.00,650.00,925.00,1153.00,2770.00,432.00,655.00,,,,,,,,,,,,1,1,0,,-612,15052,5568,-73,295,-142
32.816,32.52,1.68,2.55,-2.43,4.38,-1.74,1.99,-0.37,0.24,-0.12,1023.00,2026.00,721.00,893.00,1139.00,2786.00,411.00,713.00,,,,,,,,,,,,1,1,0,,-880,14960,5464,-349,464,-106
32.878,32.58,1.64,1.33,-1.43,3.56,-1.36,0.98,0.21,-2.12,1.84,991.00,2070.00,717.00,913.00,1124.00,2854.00,386.00,743.00,,,,,,,,,,,,1,1,0,,-876,15244,6052,-202,779,66
32.939,32.63,1.60,0.23,-0.69,1.56,-0.01,0.79,0.69,-1.90,3.15,971.00,2119.00,691.00,953.00,1099.00,2839.00,358.00,711.00,,,,,,,,,,,,1,1,0,,-848,14948,5836,-36,1811,99
33.04,32.69,1.65,0.42,-0.11,1.98,0.56,2.66,-1.33,4.94,-3.94,938.00,2071.00,665.00,923.00,1185.00,2783.00,464.00,656.00,,,,,,,,,,,,1,1,0,,-940,14960,6432,-448,2947,-218
33.06,32.74,1.60,3.81,-3.75,6.06,-3.08,0.62,0.38,-4.59,2.81,1074.00,1997.00,752.00,866.00,1121.00,2882.00,383.00,798.00,,,,,,,,,,,,1,1,0,,-1068,14896,5908,-445,4020,-59
33.101,32.80,1.53,-0.58,-0.34,0.76,-0.21,0.19,1.84,-4.61,7.14,967.00,2168.00,709.00,989.00,1044.00,2819.00,303.00,711.00,,,,,,,,,,,,1,1,0,,-1196,15028,5756,-451,4485,-4
33.164,32.85,1.64,-0.81,1.93,1.03,2.41,3.63,-2.12,9.48,-7.75,859.00,2059.00,612.00,912.00,1215.00,2736.00,525.00,607.00,,,,,,,,,,,,1,1,0,,-1180,14892,5560,-592,4690,-64
33.204,32.91,1.59,5.11,-4.75,8.03,-4.49,0.77,0.10,-4.34,2.30,1107.00,1948.00,783.00,832.00,1135.00,2886.00,392.00,801.00,,,,,,,,,,,,1,1,0,,-1364,15016,5512,-378,4608,182
33.285,32.96,1.53,-0.33,-0.82,0.74,0.27,0.40,1.16,-3.70,4.82,988.00,2174.00,691.00,977.00,1079.00,2847.00,338.00,730.00,,,,,,,,,,,,1,1,0,,-1660,15104,4672,-573,3155,-294
33.306,33.02,1.57,-0.39,0.74,1.52,1.28,2.30,-0.72,3.84,-2.21,909.00,2090.00,645.00,922.00,1154.00,2777.00,431.00,654.00,,,,,,,,,,,,1,1,0,,-1668,14816,4372,-383,906,-136
33.427,33.07,1.56,2.56,-2.44,5.06,-1.94,1.38,-0.09,-0.27,0.33,1023.00,2025.00,720.00,874.00,1134.00,2832.00,405.00,719.00,,,,,,,,,,,,1,1,0,,-1692,14796,4988,-391,-1255,104
33.448,33.13,1.54,0.77,-1.36,3.25,-0.87,1.05,0.20,-1.43,1.27,997.00,2112.00,702.00,912.00,1123.00,2847.00,393.00,734.00,,,,,,,,,,,,1,1,0,,-1648,14996,5932,-317,-876,16
33.487,33.18,1.51,0.04,-0.76,1.95,-0.19,0.93,0.56,-0.74,1.81,978.00,2139.00,693.00,943.00,1104.00,2833.00,377.00,704.00,,,,,,,,,,,,1,1,0,,-1640,14828,6004,-245,-6,-170
33.548,33.24,1.55,-0.01,-0.09,2.01,0.44,2.31,-1.10,4.27,-3.63,944.00,2105.00,669.00,925.00,1178.00,2805.00,462.00,668.00,,,,,,,,,,,,1,1,0,,-1672,14820,5640,-245,379,-135
33.609,33.29,1.48,2.90,-3.57,5.21,-2.67,0.23,0.53,-4.26,2.55,1081.00,2060.00,747.00,886.00,1120.00,2915.00,386.00,793.00,,,,,,,,,,,,1,1,0,,-1540,15004,5488,-148,21,-175
33.651,33.35,1.42,-1.05,-0.35,0.14,0.55,0.26,1.53,-3.97,6.57,976.00,2209.00,688.00,993.00,1060.00,2834.00,309.00,704.00,,,,,,,,,,,,1,1,0,,-1856,14704,5784,-269,-221,-230
33.752,33.40,1.53,-1.14,1.74,0.68,2.32,3.57,-2.13,8.40,-6.88,873.00,2096.00,619.00,927.00,1217.00,2743.00,511.00,619.00,,,,,,,,,,,,1,1,0,,-1684,14804,5968,-72,29,-6
33.772,33.46,1.48,4.99,-4.98,7.76,-4.40,0.62,0.15,-5.03,2.62,1123.00,1969.00,783.00,839.00,1135.00,2900.00,390.00,816.00,,,,,,,,,,,,1,1,0,,-1560,14952,5636,-147,400,-90
33.814,33.51,1.44,-0.97,-0.46,0.75,-0.08,0.59,1.01,-2.87,4.11,980.00,2208.00,704.00,986.00,1084.00,2837.00,346.00,720.00,,,,,,,,,,,,1,1,0,,-1416,14908,5568,1,298,-35
33.875,33.57,1.48,-0.44,0.41,1.29,1.10,2.35,-0.91,4.45,-3.04,926.00,2113.00,654.00,935.00,1165.00,2786.00,446.00,653.00,,,,,,,,,,,,1,1,0,,-1504,15152,5524,-153,-143,-489
33.915,33.62,1.46,2.89,-3.04,4.95,-1.96,0.97,0.10,-1.60,0.87,1051.00,2032.00,722.00,878.00,1131.00,2864.00,403.00,747.00,,,,,,,,,,,,1,1,0,,-1800,14664,5660,-195,-188,-392
33.977,33.68,1.43,0.78,-1.53,2.95,-0.87,1.00,0.24,-1.89,1.95,1006.00,2121.00,706.00,923.00,1122.00,2850.00,382.00,734.00,,,,,,,,,,,,1,1,0,,-1688,14964,5764,-199,68,-173
34.06,33.73,1.41,-0.04,-0.65,1.90,-0.04,1.02,0.41,-0.83,1.94,974.00,2140.00,688.00,941.00,1111.00,2834.00,375.00,704.00,,,,,,,,,,,,1,1,0,,-1824,15032,5732,-249,215,-158
34.122,33.79,1.46,0.01,-0.48,2.21,0.43,2.28,-1.11,3.58,-3.44,964.00,2126.00,667.00,918.00,1179.00,2809.00,463.00,683.00,,,,,,,,,,,,1,1,0,,-1716,14892,5596,-252,110,-142
34.142,33.84,1.40,2.66,-3.45,5.60,-3.00,0.37,0.40,-3.84,2.27,1079.00,2073.00,755.00,880.00,1125.00,2909.00,389.00,786.00,,,,,,,,,,,,1,1,0,,-1656,14840,5844,-219,-34,-77
34.182,33.90,1.33,-1.21,-0.58,0.20,0.61,-0.01,1.56,-3.68,5.82,991.00,2237.00,685.00,989.00,1064.00,2863.00,320.00,710.00,,,,,,,,,,,,1,1,0,,-1736,14848,5836,-80,122,-116
34.244,33.95,1.42,-1.47,1.37,0.74,2.15,3.18,-1.89,7.33,-5.60,896.00,2145.00,624.00,929.00,1210.00,2768.00,486.00,624.00,,,,,,,,,,,,1,1,0,,-1664,15060,5568,-316,131,-409
34.305,34.01,1.36,4.80,-5.27,7.65,-4.50,0.08,0.51,-4.94,2.36,1145.00,2000.00,789.00,845.00,1124.00,2934.00,395.00,819.00,,,,,,,,,,,,1,1,0,,-1688,14744,5996,-299,-107,-218
34.366,34.06,1.29,-1.19,-0.70,-0.06,0.51,0.08,1.65,-4.56,6.71,997.00,2242.00,692.00,1002.00,1057.00,2846.00,310.00,718.00,,,,,,,,,,,,1,1,0,,-1708,14780,5868,-130,18,14
34.408,34.12,1.34,-0.76,0.42,0.89,1.29,2.23,-0.76,4.49,-2.93,931.00,2139.00,652.00,945.00,1158.00,2788.00,443.00,650.00,,,,,,,,,,,,1,1,0,,-1540,14860,5992,-163,277,-78
34.491,34.17,1.31,2.67,-2.88,4.98,-2.12,0.82,0.31,-1.41,0.99,1046.00,2041.00,728.00,881.00,1121.00,2864.00,399.00,739.00,,,,,,,,,,,,1,1,0,,-1544,15016,5624,-140,175,-28
34.511,34.23,1.27,0.41,-1.44,2.01,-0.32,0.53,0.76,-1.96,2.76,1008.00,2147.00,697.00,944.00,1100.00,2863.00,366.00,720.00,,,,,,,,,,,,1,1,1,,-1608,14960,5552,-188,-66,-322
34.593,34.28,1.26,0.01,-0.79,1.86,0.03,0.97,0.44,4.29,-0.03,980.00,2143.00,686.00,941.00,1110.00,2837.00,380.00,606.00,,,,,,,,,,,,1,1,1,,-1724,14808,5868,-60,-59,-218
34.634,34.34,1.29,0.18,-0.54,2.32,0.14,1.92,-0.59,2.91,-2.06,964.00,2115.00,676.00,921.00,1154.00,2810.00,435.00,676.00,,,,,,,,,,,,1,1,1,,-1728,14740,5828,-13,143,-205
34.695,34.39,1.25,2.41,-3.33,4.92,-2.62,0.45,0.39,-3.43,1.76,1077.00,2087.00,749.00,895.00,1124.00,2901.00,397.00,784.00,,,,,,,,,,,,1,1,1,,-1604,14872,5808,-123,222,-137
34.737,34.45,1.20,-1.04,-0.64,0.01,0.60,0.31,1.31,-2.75,4.72,991.00,2225.00,688.00,997.00,1072.00,2846.00,334.00,705.00,,,,,,,,,,,,1,1,1,,-1644,14792,5768,-138,100,-156
34.799,34.50,1.28,-1.51,1.46,0.58,2.03,2.83,-1.51,7.64,-5.28,892.00,2143.00,630.00,938.00,1193.00,2778.00,475.00,611.00,,,,,,,,,,,,1,1,1,,-1596,14752,5732,-141,-13,-138
34.861,34.56,1.22,4.55,-5.31,7.28,-4.61,-0.10,0.56,-5.58,2.76,1153.00,2022.00,799.00,860.00,1125.00,2951.00,391.00,831.00,,,,,,,,,,,,1,1,1,,-1704,14896,5756,-112,157,-181
34.922,34.61,1.14,-1.56,-0.72,-0.59,0.64,-0.28,1.77,-4.97,7.20,1005.00,2277.00,694.00,1020.00,1057.00,2877.00,304.00,720.00,,,,,,,,,,,,1,1,1,,-1700,15128,5556,-290,133,-446
34.985,34.67,1.20,-0.83,0.29,0.92,1.17,2.26,-1.09,5.96,-3.75,939.00,2153.00,656.00,947.00,1178.00,2809.00,451.00,627.00,,,,,,,,,,,,1,1,1,,-1856,14720,5812,-245,-133,-247
35.026,34.72,1.18,2.66,-3.18,5.24,-2.46,0.78,0.18,-2.31,1.66,1063.00,2058.00,738.00,880.00,1130.00,2879.00,391.00,752.00,,,,,,,,,,,,1,1,1,,-1680,14788,6104,-81,113,33
35.087,34.78,1.14,-0.08,-1.14,1.72,-0.17,0.45,1.04,-3.07,4.72,1001.00,2172.00,695.00,951.00,1085.00,2850.00,336.00,714.00,,,,,,,,,,,,1,1,1,,-1512,14876,5892,-191,345,-58
35.15,34.83,1.14,0.14,-0.72,1.95,-0.03,1.09,0.36,0.23,0.86,974.00,2128.00,687.00,939.00,1113.00,2831.00,390.00,695.00,,,,,,,,,,,,1,1,1,,-1448,14896,5600,-106,217,-9
35.209,34.89,1.18,0.37,-0.76,2.48,0.04,1.90,-0.57,2.16,-0.85,972.00,2111.00,678.00,918.00,1153.00,2810.00,413.00,674.00,,,,,,,,,,,,1,1,1,,-1624,14972,5808,-159,-111,-379
35.269,34.94,1.14,2.59,-3.31,4.91,-2.64,0.45,0.46,-3.25,2.12,1072.00,2071.00,750.00,896.00,1120.00,2896.00,388.00,771.00,,,,,,,,,,,,1,1,1,,-1796,14756,5800,-63,-20,-227
35.29,35.00,1.10,-0.77,-0.73,0.29,0.37,0.39,1.32,-3.40,5.67,991.00,2207.00,693.00,992.00,1070.00,2836.00,321.00,705.00,,,,,,,,,,,,1,1,1,,-1672,14760,6012,-69,138,-154
35.353,35.05,1.18,-1.09,1.16,0.92,1.77,2.70,-1.28,6.97,-5.13,900.00,2125.00,635.00,932.00,1181.00,2775.00,477.00,625.00,,,,,,,,,,,,1,1,1,,-1688,14708,5816,-198,325,-155
35.414,35.11,1.13,4.10,-4.44,7.05,-3.76,0.08,0.32,-5.39,2.84,1109.00,2011.00,766.00,848.00,1136.00,2949.00,388.00,823.00,,,,,,,,,,,,1,1,1,,-1788,14888,6136,-101,580,-162
35.476,35.16,1.05,-1.58,-0.53,-0.29,0.40,-0.32,2.01,-5.12,7.38,995.00,2267.00,699.00,1014.00,1044.00,2863.00,302.00,721.00,,,,,,,,,,,,1,1,1,,-1840,14812,6384,-57,1715,-166
35.517,35.22,1.11,-1.36,1.39,0.41,2.09,2.27,-1.20,5.15,-4.24,893.00,2134.00,630.00,943.00,1185.00,2817.00,470.00,656.00,,,,,,,,,,,,1,1,1,,-1832,15040,6244,57,2619,-94
35.6,35.27,1.09,2.74,-3.41,5.04,-2.47,0.69,0.09,-2.42,1.28,1075.00,2064.00,741.00,887.00,1137.00,2896.00,400.00,763.00,,,,,,,,,,,,1,1,1,,-1912,14780,5884,342,3010,-97
35.62,35.33,1.05,-0.44,-0.90,1.55,-0.11,0.14,1.13,-3.38,4.55,994.00,2188.00,695.00,956.00,1086.00,2879.00,341.00,726.00,,,,,,,,,,,,1,1,1,,-2460,15008,7204,248,5046,-108
35.683,35.38,1.05,-0.54,0.29,1.63,0.76,1.15,0.23,-0.13,1.17,934.00,2128.00,662.00,931.00,1119.00,2833.00,386.00,699.00,,,,,,,,,,,,1,1,1,,-2464,14732,5812,776,7308,-74
35.743,35.44,1.08,0.72,-0.97,2.35,0.11,1.69,-0.37,1.62,-0.49,977.00,2094.00,677.00,921.00,1145.00,2819.00,409.00,682.00,,,,,,,,,,,,1,1,1,,-2520,14960,4624,696,6325,84
35.784,35.49,1.05,1.91,-2.05,4.39,-1.85,0.49,0.44,-3.51,2.35,1014.00,2057.00,725.00,895.00,1120.00,2892.00,385.00,774.00,,,,,,,,,,,,1,1,1,,-2484,14776,3796,666,4512,-62
35.846,35.55,1.03,-0.68,-0.46,0.69,0.31,0.67,0.98,-2.00,4.36,975.00,2183.00,690.00,978.00,1084.00,2830.00,336.00,691.00,,,,,,,,,,,,1,1,1,,-2876,15056,3872,399,2396,-58
35.907,35.60,1.12,-0.75,1.12,1.29,1.79,2.80,-1.33,6.11,-4.45,896.00,2098.00,630.00,918.00,1182.00,2768.00,467.00,635.00,,,,,,,,,,,,1,1,1,,-3176,14724,3816,188,688,-177
35.988,35.66,1.07,4.17,-4.11,7.13,-3.83,0.17,0.56,-4.95,2.84,1088.00,1988.00,768.00,847.00,1119.00,2919.00,385.00,809.00,,,,,,,,,,,,1,1,1,,-3176,15140,4876,122,167,496
36.008,35.71,1.01,-1.84,-0.05,-0.25,0.13,-0.13,1.96,-5.27,8.18,974.00,2261.00,709.00,1020.00,1043.00,2845.00,290.00,710.00,,,,,,,,,,,,1,1,1,,-2960,15208,4776,163,586,258
36.07,35.77,1.11,-1.61,2.15,0.42,2.71,2.86,-1.59,6.48,-5.01,861.00,2112.00,609.00,927.00,1197.00,2780.00,478.00,635.00,,,,,,,,,,,,1,1,1,,-2940,15136,4320,-11,880,-72
36.11,35.82,1.09,2.91,-3.61,5.52,-2.87,0.81,-0.03,-1.68,0.48,1083.00,2061.00,751.00,880.00,1142.00,2892.00,412.00,757.00,,,,,,,,,,,,1,1,1,,-2880,15028,4168,-140,221,-227
36.172,35.88,1.05,-0.46,-0.83,1.17,-0.09,0.21,1.26,-3.12,4.73,991.00,2186.00,699.00,970.00,1077.00,2861.00,336.00,715.00,,,,,,,,,,,,1,1,1,,-2928,14916,4452,-425,97,-236
36.232,35.93,1.06,-0.94,0.58,0.74,1.60,1.38,-0.11,1.21,-0.22,926.00,2145.00,643.00,943.00,1135.00,2833.00,406.00,688.00,,,,,,,,,,,,1,1,1,,-2900,15024,4272,-572,-369,-334
36.334,35.99,1.08,0.15,-0.77,2.16,-0.18,1.39,-0.17,1.55,-1.05,977.00,2131.00,690.00,935.00,1139.00,2837.00,422.00,694.00,,,,,,,,,,,,1,1,1,,-2544,15492,2632,-691,-2505,-299
36.355,36.04,1.05,1.17,-1.97,3.90,-1.52,0.54,0.32,-2.48,1.91,1023.00,2113.00,719.00,905.00,1126.00,2895.00,387.00,752.00,,,,,,,,,,,,1,1,1,,-2088,14336,1820,-1136,-10035,-519
36.397,36.10,1.04,-1.03,-0.40,0.50,0.41,0.68,0.95,-1.71,3.45,978.00,2210.00,689.00,983.00,1086.00,2832.00,351.00,700.00,,,,,,,,,,,,1,1,1,,-1940,14364,7268,-217,-12218,1748
36.477,36.15,1.12,-0.44,0.67,1.92,1.55,2.76,-1.27,6.04,-4.58,913.00,2098.00,631.00,901.00,1179.00,2768.00,471.00,639.00,,,,,,,,,,,,1,1,1,,-1956,15516,8860,61,-5334,1640
36.498,36.21,1.08,4.07,-4.06,7.22,-3.20,0.36,0.63,-4.30,2.43,1087.00,1993.00,741.00,830.00,1111.00,2892.00,389.00,797.00,,,,,,,,,,,,1,1,1,,-1472,15808,7912,358,3391,-69
36.56,36.26,1.04,-1.56,-0.29,-0.45,1.05,0.13,1.93,-4.83,7.53,982.00,2251.00,677.00,1003.00,1040.00,2819.00,298.00,710.00,,,,,,,,,,,,1,1,1,,-1336,15180,4284,-64,3934,-1211
36.6,36.32,1.18,-1.40,2.02,0.87,2.65,3.93,-2.61,7.71,-6.10,864.00,2102.00,606.00,912.00,1241.00,2739.00,496.00,623.00,,,,,,,,,,,,1,1,1,,-1432,14740,3644,-315,939,-741
36.702,36.37,1.17,3.60,-4.11,5.92,-3.08,0.98,0.10,-2.85,1.20,1099.00,2033.00,754.00,871.00,1131.00,2863.00,405.00,778.00,,,,,,,,,,,,1,1,1,,-1884,14904,5020,-108,-1166,-212
36.722,36.43,1.14,-0.23,-0.97,1.56,-0.17,0.54,1.27,-3.11,4.46,994.00,2174.00,697.00,957.00,1070.00,2823.00,341.00,720.00,,,,,,,,,,,,1,1,1,,-1884,15084,5624,-289,-651,-12
36.785,36.48,1.18,-0.66,0.75,1.71,1.33,2.02,-0.35,3.77,-2.44,913.00,2112.00,641.00,914.00,1137.00,2781.00,437.00,660.00,,,,,,,,,,,,1,1,1,,-1712,15024,5420,-101,-149,-225
36.827,36.54,1.20,0.85,-1.42,3.04,-0.34,1.59,-0.06,0.90,-0.56,999.00,2109.00,685.00,907.00,1128.00,2806.00,416.00,703.00,,,,,,,,,,,,1,1,1,,-1672,15148,5428,-41,-175,-348
36.889,36.59,1.18,1.02,-1.65,3.65,-1.00,0.81,0.50,-1.96,1.59,1008.00,2107.00,702.00,901.00,1110.00,2851.00,390.00,743.00,,,,,,,,,,,,1,1,1,,-1872,14756,5216,-223,-108,-252
36.951,36.65,1.16,-0.67,-0.74,0.72,0.49,0.70,1.09,-1.81,3.28,990.00,2199.00,683.00,972.00,1077.00,2818.00,355.00,706.00,,,,,,,,,,,,1,1,1,,-1716,14832,5428,-308,41,-59
37.013,36.70,1.23,-0.20,-0.14,1.10,1.42,2.56,-1.09,5.42,-4.14,950.00,2124.00,645.00,934.00,1172.00,2777.00,465.00,647.00,,,,,,,,,,,,1,1,1,,-1708,15312,5132,-460,-124,-252
37.074,36.76,1.19,3.59,-4.04,6.37,-3.19,0.40,0.72,-3.80,2.02,1095.00,2030.00,752.00,858.00,1105.00,2881.00,394.00,790.00,,,,,,,,,,,,1,1,1,,-1800,14992,5928,-226,-66,-91
37.116,36.81,1.14,-0.96,-0.50,0.51,0.62,0.28,1.88,-4.13,6.80,982.00,2210.00,681.00,977.00,1040.00,2806.00,306.00,704.00,,,,,,,,,,,,1,1,1,,-1892,14828,5552,-49,197,-21
37.199,36.87,1.26,-1.31,2.03,0.67,3.15,3.56,-1.76,8.84,-6.56,862.00,2094.00,592.00,907.00,1193.00,2717.00,498.00,603.00,,,,,,,,,,,,1,1,1,,-1640,15004,5444,-212,330,-16
37.219,36.92,1.25,4.70,-4.58,7.70,-3.73,0.93,0.13,-3.68,1.70,1105.00,1971.00,756.00,826.00,1130.00,2866.00,400.00,793.00,,,,,,,,,,,,1,1,1,,-1632,15056,5292,-237,164,45
37.282,36.98,1.22,0.08,-1.22,1.82,-0.12,0.79,1.15,-3.28,4.41,1002.00,2162.00,692.00,946.00,1072.00,2804.00,343.00,726.00,,,,,,,,,,,,1,1,1,,-1644,15188,5460,-139,-99,-246
37.323,37.03,1.28,-0.52,0.86,1.71,1.62,2.37,-0.45,4.17,-2.40,905.00,2094.00,631.00,907.00,1136.00,2750.00,433.00,649.00,,,,,,,,,,,,1,1,1,,-1592,14984,5388,-95,-51,-231
37.386,37.09,1.30,2.54,-2.66,4.63,-1.30,1.64,0.02,0.67,-0.21,1036.00,2039.00,701.00,874.00,1122.00,2795.00,410.00,703.00,,,,,,,,,,,,1,1,1,,-1760,14936,5356,53,-236,-136
37.428,37.14,1.29,1.21,-1.54,3.63,-0.75,1.16,0.45,-1.53,1.21,999.00,2086.00,693.00,896.00,1106.00,2816.00,395.00,738.00,,,,,,,,,,,,1,1,1,,-1692,15040,5244,-161,-743,-160
37.491,37.20,1.28,0.10,-0.74,1.99,0.06,1.08,0.78,-1.54,2.88,976.00,2133.00,683.00,935.00,1088.00,2800.00,361.00,706.00,,,,,,,,,,,,1,1,1,,-1864,15188,4964,-333,-1382,-328
37.554,37.25,1.35,0.37,-0.25,2.33,0.95,2.58,-1.01,4.59,-3.82,946.00,2083.00,647.00,901.00,1166.00,2768.00,464.00,663.00,,,,,,,,,,,,1,1,1,,-2064,14992,4952,-107,-2080,-455
37.597,37.31,1.30,3.24,-3.56,6.40,-2.92,0.40,0.75,-4.01,2.33,1074.00,2032.00,741.00,851.00,1103.00,2878.00,389.00,790.00,,,,,,,,,,,,1,1,1,,-2100,14600,5240,668,-2548,-232
37.659,37.36,1.24,-0.85,-0.65,0.53,0.58,0.14,1.93,-4.28,6.55,988.00,2209.00,682.00,977.00,1040.00,2818.00,311.00,713.00,,,,,,,,,,,,1,1,1,,-1624,14908,4848,52,-2685,-43
37.721,37.42,1.36,-1.76,2.18,1.23,2.53,3.53,-1.86,8.83,-7.03,862.00,2123.00,606.00,902.00,1200.00,2727.00,511.00,611.00,,,,,,,,,,,,1,1,1,,-1124,15200,5336,346,-3244,27
37.823,37.47,1.32,5.06,-5.37,7.95,-4.01,0.66,0.43,-4.05,1.83,1146.00,1985.00,764.00,824.00,1117.00,2873.00,400.00,802.00,,,,,,,,,,,,1,1,1,,-1128,14692,5776,-851,-3559,-478
37.843,37.53,1.29,-0.63,-0.87,1.32,0.16,0.61,1.31,-3.51,4.48,996.00,2203.00,688.00,958.00,1066.00,2812.00,343.00,731.00,,,,,,,,,,,,1,1,1,,-676,14920,5816,-809,-3501,439
37.906,37.58,1.35,-0.55,0.71,1.74,1.61,2.66,-0.70,4.44,-2.58,913.00,2105.00,631.00,906.00,1145.00,2736.00,435.00,645.00,,,,,,,,,,,,1,1,1,,-276,14816,6124,-484,-3278,248
37.926,37.64,1.36,3.17,-2.93,5.75,-1.84,1.42,0.29,-0.75,0.67,1039.00,2003.00,707.00,848.00,1110.00,2799.00,401.00,726.00,,,,,,,,,,,,1,1,1,,-52,14844,6064,-173,-3003,281
37.988,37.69,1.35,0.93,-1.21,3.88,-0.70,1.16,0.58,-0.80,1.06,986.00,2090.00,688.00,886.00,1098.00,2806.00,393.00,720.00,,,,,,,,,,,,1,1,1,,-100,15304,5936,220,-2240,215
38.05,37.75,1.35,0.48,-0.69,2.39,0.28,1.48,0.64,-0.34,2.02,967.00,2099.00,670.00,915.00,1088.00,2766.00,370.00,689.00,,,,,,,,,,,,1,1,1,,260,15152,5704,836,-1617,330
38.091,37.80,1.43,0.49,-0.37,2.82,0.81,2.79,-0.98,4.92,-3.85,950.00,2080.00,646.00,887.00,1160.00,2743.00,462.00,655.00,,,,,,,,,,,,1,1,1,,396,14960,5436,1026,-1279,409
38.173,37.86,1.39,3.40,-3.58,6.46,-2.85,0.81,0.75,-3.67,2.17,1072.00,2020.00,737.00,847.00,1095.00,2832.00,390.00,783.00,,,,,,,,,,,,1,1,1,,524,15116,5284,1060,-1191,316
38.215,37.91,1.35,-0.84,-0.37,0.79,0.74,0.51,1.80,-3.31,5.70,973.00,2192.00,673.00,963.00,1040.00,2786.00,320.00,702.00,,,,,,,,,,,,1,1,1,,576,15008,5268,901,-1067,-83
38.255,37.97,1.46,-1.02,1.57,1.42,2.49,3.51,-1.60,8.53,-6.34,879.00,2096.00,605.00,896.00,1184.00,2711.00,495.00,607.00,,,,,,,,,,,,1,1,1,,488,15420,5076,985,-1150,-392
38.317,38.02,1.40,5.02,-5.31,7.18,-3.94,0.38,0.74,-4.49,2.02,1143.00,1985.00,772.00,848.00,1104.00,2881.00,399.00,812.00,,,,,,,,,,,,1,1,1,,508,15208,4920,1029,-1319,-522
38.379,38.08,1.35,-1.19,-0.51,0.09,1.09,0.40,1.64,-4.14,6.04,987.00,2231.00,669.00,981.00,1051.00,2810.00,319.00,719.00,,,,,,,,,,,,1,1,1,,364,15432,5228,675,-1291,-249
38.419,38.13,1.41,-1.08,0.69,1.36,1.48,2.44,-0.72,4.35,-3.01,923.00,2151.00,640.00,923.00,1151.00,2762.00,446.00,655.00,,,,,,,,,,,,1,1,1,,384,15448,5084,838,-1096,-446
38.541,38.19,1.39,2.52,-3.02,5.55,-2.29,1.06,0.27,-1.63,1.15,1057.00,2061.00,727.00,865.00,1119.00,2841.00,397.00,742.00,,,,,,,,,,,,1,1,1,,400,15492,4520,629,-961,-646
38.582,38.24,1.37,0.31,-1.35,2.27,-0.22,0.97,0.78,-2.05,2.95,1005.00,2150.00,690.00,932.00,1090.00,2812.00,363.00,719.00,,,,,,,,,,,,1,1,1,,308,15148,5160,503,-852,-259
38.602,38.30,1.36,0.43,-0.98,2.11,0.05,1.24,0.57,-0.28,1.60,983.00,2119.00,682.00,931.00,1097.00,2798.00,378.00,695.00,,,,,,,,,,,,1,1,1,,476,15816,5040,229,-426,-446
38.645,38.35,1.42,0.40,-0.50,2.79,0.23,2.40,-0.47,3.39,-2.23,958.00,2094.00,667.00,902.00,1136.00,2747.00,435.00,666.00,,,,,,,,,,,,1,1,1,,368,15360,4796,-3,-5,-654
38.705,38.41,1.39,2.94,-3.39,5.38,-2.63,0.84,0.67,-3.42,2.32,1070.00,2047.00,743.00,879.00,1099.00,2835.00,385.00,772.00,,,,,,,,,,,,1,1,1,,256,15436,4744,-186,13,-458
38.765,38.46,1.36,-0.68,-0.42,0.89,0.43,0.94,1.38,-2.61,4.73,973.00,2181.00,683.00,967.00,1056.00,2771.00,333.00,701.00,,,,,,,,,,,,1,1,1,,388,15312,4740,-363,100,-438
38.826,38.52,1.47,-0.73,1.16,1.74,1.82,3.40,-1.35,7.31,-4.97,894.00,2095.00,624.00,901.00,1170.00,2704.00,470.00,614.00,,,,,,,,,,,,1,1,1,,252,15380,4876,-482,-80,-216
38.909,38.57,1.42,4.84,-4.97,8.09,-4.08,0.55,0.64,-5.51,3.03,1126.00,1981.00,765.00,821.00,1107.00,2870.00,385.00,823.00,,,,,,,,,,,,1,1,1,,320,15408,5040,-455,-159,-256
38.93,38.63,1.36,-1.69,-0.16,0.13,0.61,0.30,2.18,-4.40,7.26,977.00,2254.00,686.00,992.00,1023.00,2781.00,300.00,703.00,,,,,,,,,,,,1,1,1,,308,15392,5160,-397,125,-344
38.971,38.68,1.44,-1.01,1.19,1.00,2.33,2.88,-1.14,5.33,-4.35,897.00,2116.00,615.00,915.00,1168.00,2745.00,471.00,653.00,,,,,,,,,,,,1,1,1,,292,15184,4980,-402,155,-237
39.032,38.74,1.43,2.98,-3.59,5.69,-2.18,1.25,0.23,-1.77,1.06,1081.00,2055.00,721.00,858.00,1117.00,2822.00,400.00,748.00,,,,,,,,,,,,1,1,1,,208,15364,5060,-259,-67,-151
39.096,38.79,1.39,-0.29,-0.89,2.17,-0.16,0.64,1.35,-2.83,4.42,991.00,2175.00,689.00,934.00,1063.00,2805.00,340.00,713.00,,,,,,,,,,,,1,1,1,,216,15308,4916,-238,-25,-33
39.179,38.85,1.39,-0.31,-0.30,2.08,0.67,1.39,0.40,-0.02,0.80,960.00,2142.00,660.00,917.00,1104.00,2794.00,393.00,703.00,,,,,,,,,,,,1,1,1,,352,15296,5004,-97,161,31
39.2,38.90,1.42,0.29,-0.96,3.15,-0.05,1.90,-0.18,2.27,-1.29,984.00,2129.00,673.00,896.00,1129.00,2781.00,422.00,679.00,,,,,,,,,,,,1,1,1,,268,15544,4444,-287,105,-171
39.263,38.96,1.38,1.72,-2.46,4.70,-1.46,0.79,0.59,-3.50,2.54,1040.00,2095.00,706.00,875.00,1105.00,2847.00,381.00,770.00,,,,,,,,,,,,1,1,1,,112,15292,5136,-471,-253,-287
39.326,39.01,1.37,-0.77,-0.50,1.27,0.66,1.05,1.06,-1.02,2.86,979.00,2194.00,670.00,947.00,1072.00,2782.00,358.00,692.00,,,,,,,,,,,,1,1,1,,124,15252,5180,-331,45,-80
39.368,39.07,1.46,-0.44,0.82,2.19,1.79,3.24,-1.24,6.99,-4.75,906.00,2090.00,620.00,886.00,1167.00,2714.00,467.00,618.00,,,,,,,,,,,,1,1,1,,260,15396,4988,-327,69,10
39.41,39.12,1.43,4.02,-4.06,7.88,-3.55,0.77,0.61,-3.76,1.78,1088.00,1997.00,746.00,816.00,1104.00,2847.00,399.00,794.00,,,,,,,,,,,,1,1,1,,264,15100,4932,-101,-46,8
39.472,39.18,1.38,-1.50,-0.20,0.04,0.97,0.45,2.16,-4.72,7.99,976.00,2240.00,674.00,986.00,1021.00,2766.00,290.00,698.00,,,,,,,,,,,,1,1,1,,316,15324,4796,-212,-49,-151
39.534,39.23,1.49,-1.27,1.93,1.08,2.92,3.69,-1.65,7.63,-5.51,866.00,2096.00,595.00,898.00,1183.00,2695.00,481.00,615.00,,,,,,,,,,,,1,1,1,,324,15464,4924,-125,189,-140
39.574,39.29,1.49,3.50,-3.84,6.46,-2.97,1.48,0.12,-0.91,-0.65,1085.00,2026.00,742.00,850.00,1119.00,2805.00,432.00,757.00,,,,,,,,,,,,1,1,1,,376,15456,4816,-455,267,-255
39.636,39.34,1.46,-0.15,-0.79,2.58,-0.24,0.88,1.38,-2.19,4.48,983.00,2157.00,687.00,921.00,1057.00,2777.00,335.00,694.00,,,,,,,,,,,,1,1,1,,340,15144,4824,-80,97,2
39.696,39.40,1.50,-0.35,0.38,1.92,1.55,2.22,-0.14,3.23,-1.70,926.00,2107.00,631.00,901.00,1120.00,2743.00,424.00,661.00,,,,,,,,,,,,1,1,1,,500,15384,5044,-110,-271,94
39.758,39.45,1.53,1.05,-1.49,3.48,-0.16,2.01,-0.11,1.68,-0.91,999.00,2096.00,673.00,887.00,1122.00,2763.00,418.00,688.00,,,,,,,,,,,,1,1,1,,580,15272,5156,-83,-71,-89
39.82,39.51,1.52,1.40,-1.90,4.58,-0.94,1.42,0.48,-1.99,1.93,1015.00,2090.00,688.00,867.00,1099.00,2785.00,383.00,737.00,,,,,,,,,,,,1,1,1,,508,15084,5044,-328,74,-177
39.861,39.56,1.51,-0.70,-0.53,1.39,0.59,1.22,1.01,-1.29,3.42,979.00,2189.00,671.00,944.00,1072.00,2768.00,349.00,689.00,,,,,,,,,,,,1,1,1,,448,15216,5320,-197,5,-6
39.923,39.62,1.59,-0.28,0.40,2.14,1.68,3.25,-1.28,6.31,-4.40,924.00,2100.00,624.00,890.00,1169.00,2715.00,464.00,629.00,,,,,,,,,,,,1,1,1,,500,15076,5208,-207,36,-193
40.005,39.67,1.56,3.91,-4.10,7.25,-3.11,0.96,0.60,-3.38,1.88,1092.00,2007.00,737.00,827.00,1101.00,2827.00,394.00,780.00,,,,,,,,,,,,1,1,1,,380,15396,5664,-657,-389,-314
40.026,39.73,1.53,-1.06,-0.37,0.77,0.78,0.90,1.81,-4.42,8.15,977.00,2211.00,672.00,963.00,1032.00,2743.00,286.00,687.00,,,,,,,,,,,,1,1,1,,316,15264,5520,272,-617,-400
40.067,39.78,1.67,-1.16,2.15,1.34,3.21,4.42,-1.95,9.66,-6.76,854.00,2075.00,583.00,882.00,1187.00,2640.00,496.00,587.00,,,,,,,,,,,,1,1,1,,372,15148,5660,490,-661,206
40.129,39.84,1.66,4.85,-4.58,8.51,-3.78,1.43,0.39,-2.84,1.42,1102.00,1959.00,747.00,801.00,1104.00,2790.00,400.00,773.00,,,,,,,,,,,,1,1,1,,896,14848,5712,603,-305,1005
40.191,39.89,1.64,0.12,-1.07,2.83,-0.49,1.34,1.29,-1.86,4.25,993.00,2150.00,693.00,918.00,1053.00,2733.00,337.00,689.00,,,,,,,,,,,,1,1,1,,1388,15384,5840,-71,-44,1146
40.252,39.95,1.73,-0.25,0.92,2.76,1.53,3.32,-0.63,5.05,-2.65,898.00,2069.00,622.00,872.00,1127.00,2661.00,432.00,631.00,,,,,,,,,,,,1,1,1,,1456,15028,6292,-622,319,1004
40.314,40.00,1.77,2.62,-2.22,5.78,-1.34,2.54,0.02,1.76,-0.27,1010.00,2009.00,688.00,836.00,1104.00,2697.00,403.00,674.00,,,,,,,,,,,,1,1,1,,1544,14784,6268,-433,898,478
40.437,40.06,1.78,1.70,-1.74,5.06,-0.86,1.96,0.48,-0.75,1.71,1001.00,2057.00,679.00,849.00,1088.00,2726.00,379.00,706.00,,,,,,,,,,,,1,1,1,,1556,15584,6196,-50,1409,535
40.458,40.11,1.78,0.51,-0.78,2.58,0.50,1.84,1.04,-0.59,2.66,971.00,2101.00,660.00,903.00,1058.00,2698.00,359.00,684.00,,,,,,,,,,,,1,1,1,,1200,15432,6312,-158,1433,-102
40.478,40.17,1.88,0.55,-0.18,3.59,1.14,3.68,-1.10,6.31,-4.40,939.00,2064.00,626.00,853.00,1149.00,2657.00,464.00,629.00,,,,,,,,,,,,1,1,1,,1096,14604,6480,103,1387,-9
