Time_Host,Time_Arduino,easingdata,CH1_Oxy,CH1_Deoxy,CH2_Oxy,CH2_Deoxy,CH3_Oxy,CH3_Deoxy,CH4_Oxy,CH4_Deoxy,CH1_PD730,CH1_PD850,CH2_PD730,CH2_PD850,CH3_PD730,CH3_PD850,CH4_PD730,CH4_PD850,Answers,airplane_playstate,trail_times,frameRate,Airplane X,Airplane Y,Correct,Wrong,Slow,AnswerRate,CorrectRate,VFTstates,VFTchoose,VFTCount,Culfstates,ax,ay,az,gx,gy,gz
1.087,0.04,0.00,0.00,0.00,0.00,0.00,0.00,0.00,0.00,0.00,256.00,461.00,189.00,105.00,503.00,1064.00,833.00,1111.00,,,,,,,,,,,,0,0,0,,-1744,15104,4892,-549,571,281
1.107,0.10,0.00,0.00,0.00,0.00,0.00,0.00,0.00,0.00,0.00,206.00,572.00,129.00,236.00,438.00,983.00,751.00,1023.00,,,,,,,,,,,,0,0,0,,-1556,15336,4912,-654,593,328
1.128,0.15,0.00,0.00,0.00,0.00,0.00,0.00,0.00,0.00,0.00,143.00,496.00,54.00,151.00,589.00,901.00,950.00,929.00,,,,,,,,,,,,0,0,0,,-1680,15280,4988,-504,565,189
1.149,0.21,0.00,0.00,0.00,0.00,0.00,0.00,0.00,0.00,0.00,306.00,395.00,224.00,53.00,506.00,1110.00,835.00,1217.00,,,,,,,,,,,,0,0,0,,-1572,15348,4788,-247,392,130
1.17,0.26,0.00,0.00,0.00,0.00,0.00,0.00,0.00,0.00,0.00,211.00,647.00,141.00,267.00,406.00,1008.00,714.00,1070.00,,,,,,,,,,,,0,0,0,,-1672,15316,4900,-93,132,-90
1.191,1.06,0.00,0.00,0.00,0.00,0.00,0.00,0.00,0.00,0.00,225.00,614.00,159.00,241.00,450.00,1021.00,774.00,1073.00,,,,,,,,,,,,0,0,0,,-1568,15608,4452,985,501,-325
1.212,1.12,0.00,0.00,0.00,0.00,0.00,0.00,0.00,0.00,0.00,146.00,500.00,80.00,176.00,553.00,931.00,913.00,999.00,,,,,,,,,,,,0,0,0,,-1532,15724,4436,599,-222,-430
1.274,1.17,0.00,0.00,0.00,0.00,0.00,0.00,0.00,0.00,0.00,268.00,417.00,170.00,107.00,529.00,993.00,862.00,1091.00,,,,,,,,,,,,0,0,0,,-1444,15740,4492,532,-742,-588
1.357,1.23,0.00,0.00,0.00,0.00,0.00,0.00,0.00,0.00,0.00,224.00,507.00,163.00,144.00,496.00,1023.00,829.00,1077.00,,,,,,,,,,,,0,0,0,,-1476,15568,4756,666,-754,-1682
1.377,1.28,0.00,0.00,0.00,0.00,0.00,0.00,0.00,0.00,0.00,197.00,503.00,138.00,177.00,471.00,983.00,817.00,1043.00,,,,,,,,,,,,0,0,0,,-1844,15624,4176,1036,-547,-1828
1.419,1.34,0.25,-0.64,3.07,-6.40,12.42,5.09,-4.73,4.52,-3.89,187.00,483.00,83.00,153.00,582.00,930.00,941.00,987.00,,,,,,,,,,,,0,0,0,,-2100,15388,3656,1312,-734,-1805
1.48,1.39,0.14,9.56,-8.34,25.33,-15.83,-2.02,0.20,-2.71,0.60,288.00,438.00,215.00,93.00,507.00,1079.00,842.00,1165.00,,,,,,,,,,,,0,0,0,,-2124,15240,3884,1541,-411,-1599
1.541,1.45,0.01,-5.02,2.57,-13.03,5.26,-2.57,3.82,-1.59,2.43,208.00,582.00,138.00,241.00,421.00,1001.00,747.00,1061.00,,,,,,,,,,,,0,0,0,,-2240,15660,3104,1676,-135,-1709
1.603,1.50,0.37,-9.34,15.13,-23.14,32.97,7.28,-6.67,7.35,-5.82,114.00,493.00,37.00,171.00,621.00,898.00,992.00,929.00,,,,,,,,,,,,0,0,0,,-2844,15824,2796,1726,-275,-2463
1.645,1.56,0.23,18.03,-14.84,43.43,-25.57,-2.38,-0.36,-4.27,0.91,351.00,373.00,262.00,59.00,526.00,1111.00,852.00,1229.00,,,,,,,,,,,,0,0,0,,-3548,15408,2684,1157,-137,-2774
1.707,1.61,0.06,-6.39,2.59,-11.98,2.64,-3.18,3.30,-2.58,3.01,213.00,614.00,156.00,248.00,438.00,1040.00,737.00,1086.00,,,,,,,,,,,,0,0,0,,-3892,15004,2496,791,178,-1788
1.748,1.67,0.26,-7.35,9.64,-13.30,14.52,4.06,-4.33,4.02,-3.60,148.00,528.00,84.00,190.00,580.00,958.00,935.00,999.00,,,,,,,,,,,,0,0,0,,-3288,14796,2152,405,406,-597
1.811,1.72,0.22,9.29,-7.86,17.78,-10.62,-0.65,-1.18,-1.48,-0.19,282.00,437.00,186.00,109.00,533.00,1061.00,859.00,1133.00,,,,,,,,,,,,0,0,0,,-3352,15408,2192,525,140,-509
1.874,1.78,0.13,-2.49,0.27,-0.01,-2.86,-1.54,0.45,-1.96,0.93,225.00,560.00,169.00,179.00,496.00,1052.00,816.00,1121.00,,,,,,,,,,,,0,0,0,,-3676,15532,2444,812,-1,-227
1.916,1.83,0.11,-2.29,2.10,-5.74,2.02,-0.31,0.03,-0.55,-0.04,203.00,529.00,144.00,197.00,496.00,1013.00,838.00,1088.00,,,,,,,,,,,,0,0,0,,-3520,15968,2628,483,479,-288
1.998,1.89,0.27,-1.15,2.75,-4.34,5.23,3.40,-3.81,2.27,-2.41,192.00,497.00,118.00,171.00,571.00,970.00,905.00,1037.00,,,,,,,,,,,,0,0,0,,-3660,15444,2676,-509,1192,-211
2.08,1.94,0.15,9.96,-8.15,19.84,-14.33,-2.11,-0.52,-2.91,0.73,283.00,429.00,219.00,111.00,528.00,1104.00,839.00,1170.00,,,,,,,,,,,,0,0,0,,-3500,15616,2308,-1005,1716,-275
2.101,2.00,-0.00,-5.73,2.55,-13.60,4.28,-2.89,2.86,-1.67,2.34,211.00,599.00,147.00,253.00,446.00,1040.00,752.00,1067.00,,,,,,,,,,,,0,0,0,,-3520,15564,2156,-1092,1560,-707
2.142,2.05,0.30,-8.25,12.62,-13.52,18.76,6.00,-5.88,5.71,-4.62,128.00,505.00,67.00,171.00,609.00,925.00,958.00,960.00,,,,,,,,,,,,0,0,0,,-3752,15528,2008,-667,841,-261
2.204,2.11,0.13,15.62,-14.09,39.03,-24.37,-3.03,-0.45,-4.44,1.03,352.00,402.00,266.00,68.00,535.00,1143.00,849.00,1233.00,,,,,,,,,,,,0,0,0,,-3740,15708,2140,-55,188,309
2.264,2.16,-0.07,-7.93,2.68,-16.40,4.37,-3.88,4.00,-2.91,3.20,218.00,651.00,154.00,282.00,427.00,1049.00,734.00,1095.00,,,,,,,,,,,,0,0,0,,-3228,15660,2196,392,-207,311
2.305,2.22,0.13,-10.00,12.37,-17.00,19.39,3.79,-4.89,4.08,-4.07,134.00,545.00,69.00,193.00,601.00,983.00,958.00,1009.00,,,,,,,,,,,,0,0,0,,-3188,15568,2108,768,-431,-287
2.366,2.27,0.07,9.14,-8.39,18.55,-12.76,-0.93,-1.33,-2.07,-0.16,291.00,446.00,206.00,112.00,540.00,1077.00,867.00,1159.00,,,,,,,,,,,,0,0,0,,-3472,15604,2216,686,-569,-650
2.447,2.33,-0.07,-3.48,1.27,-4.65,0.42,-2.77,1.70,-2.27,1.65,217.00,567.00,154.00,197.00,474.00,1068.00,789.00,1113.00,,,,,,,,,,,,0,0,0,,-3588,15856,2340,371,-441,-653
2.468,2.38,-0.18,-2.68,2.33,-7.77,3.90,-2.19,0.12,-0.46,-0.31,202.00,534.00,135.00,203.00,511.00,1089.00,849.00,1092.00,,,,,,,,,,,,0,0,0,,-3604,15844,2300,731,-20,-542
2.53,2.44,-0.07,-1.33,0.89,-4.59,4.10,1.85,-2.97,0.92,-1.83,213.00,526.00,126.00,178.00,561.00,1008.00,899.00,1077.00,,,,,,,,,,,,0,0,0,,-3652,15392,2192,674,256,-409
2.59,2.49,-0.25,4.13,-5.05,15.08,-11.14,-3.64,0.71,-3.68,0.71,266.00,497.00,201.00,123.00,508.00,1135.00,852.00,1207.00,,,,,,,,,,,,0,0,0,,-3720,15628,2104,433,405,-560
2.632,2.55,-0.37,-5.68,2.10,-13.61,3.43,-2.68,2.30,-0.69,1.23,216.00,605.00,154.00,259.00,458.00,1047.00,784.00,1057.00,,,,,,,,,,,,0,0,0,,-3780,15408,2004,239,440,-233
2.693,2.60,-0.13,-6.73,9.94,-14.62,17.05,4.41,-4.73,5.14,-4.73,144.00,511.00,75.00,187.00,589.00,955.00,974.00,985.00,,,,,,,,,,,,0,0,0,,-3740,15368,2112,-112,288,47
2.755,2.66,-0.34,11.84,-10.41,32.04,-20.12,-4.29,-0.40,-4.55,0.89,309.00,423.00,240.00,80.00,546.00,1200.00,857.00,1243.00,,,,,,,,,,,,0,0,0,,-3696,15512,2036,-343,193,126
2.817,2.71,-0.55,-8.68,3.11,-16.94,3.61,-4.41,4.00,-2.75,3.09,216.00,663.00,162.00,294.00,431.00,1071.00,736.00,1091.00,,,,,,,,,,,,0,0,0,,-3632,15880,2220,-498,152,275
2.857,2.77,-0.31,-12.49,16.52,-20.98,25.26,4.14,-5.25,4.60,-4.57,112.00,538.00,54.00,193.00,609.00,979.00,975.00,1002.00,,,,,,,,,,,,0,0,0,,-3456,15672,2304,-718,34,-118
2.918,2.82,-0.36,9.71,-10.22,17.56,-13.56,-1.33,-1.77,-2.23,-0.27,318.00,458.00,219.00,119.00,557.00,1107.00,875.00,1170.00,,,,,,,,,,,,0,0,0,,-3512,15532,2372,-846,-32,-65
2.979,2.88,-0.49,-4.80,1.55,-1.79,-6.19,-2.88,1.62,-2.15,1.70,219.00,593.00,209.00,210.00,477.00,1075.00,785.00,1106.00,,,,,,,,,,,,0,0,0,,-3632,15628,2620,-720,106,0
3.042,2.93,-0.49,-8.03,8.32,-11.27,8.69,-0.56,-1.21,0.24,-1.21,161.00,562.00,111.00,205.00,533.00,1058.00,880.00,1088.00,,,,,,,,,,,,0,0,0,,-3552,15472,2648,-470,276,33
3.082,2.99,-0.41,-0.94,-0.17,-3.11,1.92,1.13,-2.89,0.32,-1.47,224.00,533.00,138.00,178.00,566.00,1035.00,891.00,1092.00,,,,,,,,,,,,0,0,0,,-3520,15616,2524,-139,298,-69
3.165,3.04,-0.51,2.86,-3.77,9.33,-8.26,-2.42,-0.65,-2.92,0.30,254.00,505.00,191.00,143.00,535.00,1122.00,859.00,1184.00,,,,,,,,,,,,0,0,0,,-3560,15708,2532,16,112,-32
3.185,3.10,-0.62,-7.30,3.34,-14.73,4.79,-2.72,1.49,-1.68,0.88,208.00,624.00,146.00,261.00,479.00,1072.00,814.00,1110.00,,,,,,,,,,,,0,0,0,,-3512,15628,2492,134,-13,-82
3.268,3.15,-0.38,-6.48,8.14,-5.66,5.05,4.17,-5.42,4.41,-4.34,158.00,531.00,122.00,181.00,614.00,982.00,966.00,1003.00,,,,,,,,,,,,0,0,0,,-3552,15596,2548,110,57,-309
3.349,3.21,-0.51,10.21,-9.56,30.45,-19.59,-2.88,-0.74,-3.67,0.73,304.00,441.00,240.00,84.00,542.00,1145.00,851.00,1206.00,,,,,,,,,,,,0,0,0,,-3468,15536,2588,5,140,-233
3.37,3.26,-0.73,-8.53,2.38,-17.73,3.65,-4.92,4.70,-2.88,3.39,224.00,672.00,164.00,303.00,419.00,1073.00,726.00,1088.00,,,,,,,,,,,,0,0,0,,-3504,15576,2440,141,167,-165
3.411,3.32,-0.43,-14.06,19.32,-22.37,27.90,5.29,-6.18,6.14,-5.44,99.00,531.00,48.00,190.00,627.00,959.00,994.00,965.00,,,,,,,,,,,,0,0,0,,-3616,15440,2480,126,206,-98
3.471,3.37,-0.49,10.14,-11.11,17.30,-15.01,-1.71,-1.74,-2.61,-0.19,331.00,461.00,238.00,125.00,560.00,1123.00,877.00,1185.00,,,,,,,,,,,,0,0,0,,-3560,15744,2196,283,215,-259
3.533,3.43,-0.62,-4.86,0.82,-8.54,-0.42,-3.04,1.71,-1.91,1.72,228.00,606.00,173.00,235.00,476.00,1079.00,781.00,1095.00,,,,,,,,,,,,0,0,0,,-3648,15572,2152,194,149,-145
3.574,3.48,-0.53,-7.25,8.99,-14.94,15.97,1.17,-2.51,2.16,-2.25,153.00,535.00,80.00,195.00,554.00,1023.00,899.00,1037.00,,,,,,,,,,,,0,0,0,,-3504,15548,2272,217,89,-107
3.637,3.54,-0.48,0.48,-1.84,-2.64,0.60,0.37,-2.40,0.39,-1.26,239.00,527.00,147.00,181.00,559.00,1053.00,880.00,1083.00,,,,,,,,,,,,0,0,0,,-3616,15604,2216,337,181,-122
3.676,3.59,-0.55,1.40,-3.28,5.92,-6.73,-1.77,-1.01,-1.80,0.03,254.00,528.00,187.00,157.00,539.00,1104.00,854.00,1141.00,,,,,,,,,,,,0,0,0,,-3624,15548,2080,366,230,-130
3.737,3.65,-0.64,-5.68,1.43,-13.63,3.32,-2.40,1.15,-1.28,0.97,224.00,616.00,155.00,260.00,485.00,1068.00,804.00,1090.00,,,,,,,,,,,,0,0,0,,-3644,15568,2024,322,238,-32
3.799,3.70,-0.43,-4.97,5.64,-9.94,10.35,3.62,-5.20,4.24,-4.26,176.00,535.00,99.00,186.00,613.00,998.00,965.00,1008.00,,,,,,,,,,,,0,0,0,,-3544,15752,2100,170,261,95
3.841,3.76,-0.58,9.09,-9.72,21.92,-16.72,-3.42,-0.52,-3.92,0.66,313.00,463.00,240.00,109.00,541.00,1163.00,858.00,1220.00,,,,,,,,,,,,0,0,0,,-3520,15764,1972,146,383,122
3.943,3.81,-0.76,-8.11,2.66,-15.20,2.47,-4.28,3.54,-2.83,2.77,219.00,656.00,167.00,283.00,441.00,1079.00,750.00,1104.00,,,,,,,,,,,,0,0,0,,-3532,15724,1932,58,352,-83
3.963,3.87,-0.45,-11.96,16.01,-21.19,26.75,5.51,-6.66,6.46,-5.75,114.00,534.00,50.00,187.00,641.00,963.00,1005.00,961.00,,,,,,,,,,,,0,0,0,,-3572,15732,1956,-128,168,-13
4.005,3.92,-0.55,13.53,-12.91,30.02,-20.27,-2.49,-1.47,-3.14,-0.03,343.00,423.00,251.00,87.00,560.00,1150.00,878.00,1205.00,,,,,,,,,,,,0,0,0,,-3424,15540,1916,29,187,13
4.065,3.98,-0.68,-4.51,-0.24,-8.86,-1.65,-3.21,1.61,-1.90,1.64,240.00,615.00,186.00,246.00,480.00,1089.00,784.00,1097.00,,,,,,,,,,,,0,0,0,,-3308,15544,2016,36,279,1
4.126,4.03,-0.58,-7.44,8.94,-13.12,11.24,1.47,-2.81,3.00,-2.80,154.00,540.00,100.00,206.00,560.00,1019.00,912.00,1018.00,,,,,,,,,,,,0,0,0,,-3384,15828,1732,139,348,-21
4.188,4.09,-0.54,4.28,-4.89,4.76,-5.00,0.08,-2.44,0.25,-1.25,263.00,492.00,174.00,157.00,563.00,1066.00,882.00,1089.00,,,,,,,,,,,,0,0,0,,-3460,15864,1868,54,250,-72
4.271,4.14,-0.61,-0.01,-1.68,4.37,-5.60,-1.80,-0.97,-1.27,-0.36,239.00,535.00,181.00,162.00,538.00,1104.00,864.00,1129.00,,,,,,,,,,,,0,0,0,,-3336,15660,1960,19,192,-26
4.292,4.20,-0.70,-3.47,0.93,-8.61,1.63,-2.44,0.86,-0.77,0.28,221.00,572.00,155.00,223.00,493.00,1078.00,827.00,1088.00,,,,,,,,,,,,0,0,0,,-3388,15652,1892,-42,245,84
4.336,4.25,-0.51,-4.04,4.61,-8.81,7.69,2.98,-5.08,3.07,-3.77,183.00,530.00,112.00,191.00,616.00,1020.00,960.00,1042.00,,,,,,,,,,,,0,0,0,,-3272,15624,1968,-126,332,102
4.397,4.31,-0.65,8.78,-9.50,24.16,-17.55,-3.33,-0.66,-3.78,0.63,311.00,466.00,241.00,102.00,544.00,1163.00,857.00,1214.00,,,,,,,,,,,,0,0,0,,-3388,15732,1936,-186,293,70
4.461,4.36,-0.86,-6.07,0.75,-14.53,2.69,-4.69,3.59,-2.79,2.71,234.00,637.00,163.00,274.00,443.00,1095.00,752.00,1104.00,,,,,,,,,,,,0,0,0,,-3312,15720,1784,-270,226,38
4.544,4.42,-0.54,-13.15,16.74,-19.17,22.40,5.57,-7.05,6.17,-5.95,112.00,549.00,61.00,194.00,654.00,971.00,1021.00,977.00,,,,,,,,,,,,0,0,0,,-3252,15848,2044,-222,202,51
4.565,4.47,-0.67,13.99,-14.36,30.10,-21.64,-3.17,-1.21,-4.29,0.50,368.00,432.00,270.00,90.00,559.00,1173.00,871.00,1243.00,,,,,,,,,,,,0,0,0,,-3188,15784,1832,-57,200,-12
4.669,4.53,-0.82,-6.64,0.32,-13.34,0.25,-3.74,1.53,-2.73,1.67,242.00,659.00,182.00,279.00,487.00,1115.00,795.00,1133.00,,,,,,,,,,,,0,0,0,,-3220,15760,2084,-4,168,-111
4.69,4.58,-0.68,-6.89,7.70,-11.74,8.85,1.96,-3.49,3.24,-3.16,163.00,546.00,111.00,208.00,576.00,1018.00,926.00,1018.00,,,,,,,,,,,,0,0,0,,-3232,15828,1928,28,135,-39
4.753,4.64,-0.70,6.89,-6.79,10.25,-8.58,-0.97,-1.95,-0.71,-0.95,278.00,467.00,191.00,139.00,559.00,1097.00,883.00,1122.00,,,,,,,,,,,,0,0,0,,-3216,15816,1892,-19,141,-290
4.794,4.69,-0.76,-0.42,-1.77,2.18,-5.47,-2.04,-0.92,-1.33,-0.04,242.00,545.00,187.00,176.00,539.00,1113.00,850.00,1122.00,,,,,,,,,,,,0,0,0,,-3248,15624,1820,108,108,-510
4.857,4.75,-0.82,-2.59,0.55,-7.05,0.17,-1.98,0.08,-0.28,-0.13,222.00,558.00,163.00,218.00,510.00,1081.00,838.00,1079.00,,,,,,,,,,,,0,0,0,,-3476,15800,1628,194,-44,-383
4.899,4.80,-0.66,-1.97,1.64,-8.98,7.75,2.40,-4.94,3.17,-3.71,207.00,529.00,112.00,192.00,618.00,1040.00,955.00,1036.00,,,,,,,,,,,,0,0,0,,-3352,15732,1892,98,-151,-356
4.939,4.86,-0.81,6.47,-8.42,16.27,-14.66,-3.53,-0.49,-3.39,0.52,306.00,496.00,238.00,129.00,541.00,1167.00,856.00,1199.00,,,,,,,,,,,,0,0,0,,-3348,15708,1976,-92,40,-227
5.043,4.91,-0.97,-5.97,0.96,-13.17,0.81,-4.15,2.84,-2.43,2.25,231.00,631.00,176.00,273.00,457.00,1094.00,766.00,1102.00,,,,,,,,,,,,0,0,0,,-3288,15808,1688,11,164,-303
5.063,4.97,-0.67,-10.08,13.24,-17.31,20.04,5.10,-6.55,6.61,-5.86,128.00,534.00,67.00,192.00,642.00,976.00,1008.00,958.00,,,,,,,,,,,,0,0,0,,-3432,15728,1664,50,69,-369
5.125,5.02,-0.82,14.06,-14.38,34.37,-23.55,-3.73,-0.93,-4.58,0.73,368.00,431.00,277.00,80.00,556.00,1190.00,865.00,1250.00,,,,,,,,,,,,0,0,0,,-3472,15708,1596,-15,-53,-312
5.187,5.08,-1.01,-6.61,0.62,-13.91,0.96,-4.56,2.50,-3.62,2.94,238.00,653.00,177.00,280.00,469.00,1122.00,754.00,1134.00,,,,,,,,,,,,0,0,0,,-3512,15672,1668,-99,15,-256
5.248,5.13,-0.87,-6.78,5.94,-12.68,9.00,1.70,-3.91,2.98,-3.56,179.00,570.00,112.00,215.00,592.00,1040.00,951.00,1040.00,,,,,,,,,,,,0,0,0,,-3492,15724,1864,-169,164,-95
5.29,5.19,-0.92,6.84,-8.06,11.95,-10.54,-1.83,-1.70,-2.02,-0.19,298.00,484.00,206.00,137.00,560.00,1127.00,868.00,1158.00,,,,,,,,,,,,0,0,0,,-3436,15720,1784,-161,255,107
5.371,5.24,-1.00,-2.34,-2.02,-3.55,-3.24,-2.58,-0.43,-2.31,0.42,254.00,592.00,184.00,208.00,530.00,1122.00,844.00,1152.00,,,,,,,,,,,,0,0,0,,-3380,15656,1824,-94,218,-4
5.392,5.30,-1.06,-3.01,0.12,-6.53,-1.10,-2.17,-0.43,-1.06,-0.07,229.00,574.00,173.00,221.00,526.00,1104.00,847.00,1111.00,,,,,,,,,,,,0,0,0,,-3424,15912,1640,-79,85,-199
5.454,5.35,-0.95,-3.09,1.84,-8.31,5.06,1.18,-3.67,1.77,-2.47,209.00,550.00,128.00,201.00,590.00,1055.00,916.00,1059.00,,,,,,,,,,,,0,0,0,,-3452,15764,1864,-223,40,-128
5.495,5.41,-1.08,5.95,-8.55,13.89,-14.47,-3.50,-0.57,-3.24,0.36,311.00,508.00,246.00,141.00,543.00,1168.00,861.00,1197.00,,,,,,,,,,,,0,0,0,,-3392,15640,1956,-322,140,-114
5.557,5.46,-1.19,-6.22,0.80,-15.30,2.61,-3.40,1.56,-2.03,1.90,234.00,640.00,166.00,283.00,483.00,1099.00,775.00,1095.00,,,,,,,,,,,,0,0,0,,-3292,15616,1864,-172,261,-122
5.621,5.52,-0.93,-9.37,10.83,-16.58,16.52,4.14,-5.70,5.85,-5.01,144.00,554.00,80.00,205.00,624.00,991.00,976.00,965.00,,,,,,,,,,,,0,0,0,,-3384,15836,1776,-70,198,-13
5.662,5.57,-1.10,13.58,-14.27,30.34,-21.99,-4.32,-0.46,-4.42,0.46,369.00,438.00,274.00,90.00,548.00,1203.00,875.00,1251.00,,,,,,,,,,,,0,0,0,,-3256,15744,1716,-167,51,-143
5.745,5.63,-1.29,-8.75,2.21,-16.15,1.82,-4.86,3.44,-3.16,3.26,227.00,681.00,176.00,299.00,448.00,1107.00,735.00,1104.00,,,,,,,,,,,,0,0,0,,-3296,15760,1932,-210,47,-58
5.767,5.68,-1.11,-8.68,8.88,-15.15,12.29,2.14,-4.55,3.21,-3.91,158.00,568.00,98.00,217.00,608.00,1040.00,965.00,1040.00,,,,,,,,,,,,0,0,0,,-3292,15748,2052,-99,193,-63
5.828,5.74,-1.17,7.82,-8.87,11.48,-10.91,-2.18,-1.51,-2.03,-0.38,306.00,476.00,212.00,141.00,558.00,1137.00,877.00,1164.00,,,,,,,,,,,,0,0,0,,-3304,15760,1956,54,233,-160
5.89,5.79,-1.28,-3.73,-0.96,-5.32,-2.55,-3.49,0.99,-2.42,1.24,246.00,608.00,183.00,219.00,499.00,1120.00,809.00,1132.00,,,,,,,,,,,,0,0,0,,-3292,15724,1752,33,98,-97
5.931,5.85,-1.32,-3.02,0.21,-7.00,-0.07,-2.08,-0.56,-0.56,-0.82,228.00,573.00,165.00,219.00,529.00,1104.00,874.00,1111.00,,,,,,,,,,,,0,0,0,,-3312,15688,1968,-37,97,-110
6.013,5.90,-1.24,-2.63,0.48,-5.07,1.80,0.43,-3.17,1.16,-2.22,223.00,560.00,144.00,193.00,582.00,1072.00,914.00,1078.00,,,,,,,,,,,,0,0,0,,-3284,15788,1824,-213,159,-129
6.054,5.96,-1.36,4.32,-7.58,10.63,-12.21,-3.80,-0.46,-3.64,0.31,304.00,528.00,231.00,151.00,543.00,1179.00,870.00,1218.00,,,,,,,,,,,,0,0,0,,-3292,15812,1852,-247,151,-102
6.115,6.01,-1.50,-6.99,1.30,-15.08,2.43,-4.07,2.17,-2.37,1.52,231.00,651.00,167.00,282.00,473.00,1110.00,796.00,1121.00,,,,,,,,,,,,0,0,0,,-3216,15680,1856,-91,118,-99
6.176,6.07,-1.26,-7.14,6.48,-15.88,14.95,3.38,-5.62,4.60,-4.80,175.00,570.00,86.00,208.00,630.00,1019.00,987.00,1008.00,,,,,,,,,,,,0,0,0,,-3372,16016,1740,-144,46,-268
6.238,6.12,-1.42,11.66,-12.27,26.44,-20.55,-4.52,-0.56,-5.06,0.72,343.00,448.00,272.00,101.00,553.00,1216.00,873.00,1274.00,,,,,,,,,,,,0,0,0,,-3272,15900,1908,-205,43,-138
6.278,6.18,-1.62,-8.00,0.78,-17.01,2.11,-5.43,4.18,-3.25,3.29,242.00,687.00,176.00,307.00,435.00,1110.00,735.00,1107.00,,,,,,,,,,,,0,0,0,,-3328,15656,1968,-217,167,-164
6.36,6.23,-1.41,-11.24,12.65,-19.85,20.62,2.46,-5.14,3.59,-4.36,135.00,568.00,68.00,209.00,624.00,1043.00,982.00,1037.00,,,,,,,,,,,,0,0,0,,-3300,15672,1848,-72,232,-228
6.381,6.29,-1.45,7.95,-9.92,11.20,-12.57,-2.06,-1.85,-2.35,-0.32,323.00,487.00,233.00,149.00,567.00,1142.00,879.00,1177.00,,,,,,,,,,,,0,0,0,,-3336,15880,1872,6,116,-152
6.485,6.34,-1.55,-4.37,-0.44,-7.04,-1.35,-3.48,1.14,-2.22,1.54,242.00,615.00,177.00,227.00,495.00,1115.00,793.00,1114.00,,,,,,,,,,,,0,0,0,,-3344,15744,1808,-47,68,-190
6.506,6.40,-1.55,-5.12,3.42,-10.55,4.83,-1.59,-1.24,-0.32,-0.96,199.00,571.00,135.00,221.00,544.00,1103.00,877.00,1105.00,,,,,,,,,,,,0,0,0,,-3380,15664,1824,-207,93,-90
6.569,6.45,-1.46,-0.91,-1.45,-3.90,-0.31,0.17,-2.92,0.63,-1.82,240.00,551.00,158.00,195.00,577.00,1076.00,903.00,1089.00,,,,,,,,,,,,0,0,0,,-3252,15852,1988,-92,144,-101
6.611,6.51,-1.55,1.30,-4.51,7.44,-9.20,-3.25,-1.22,-3.49,0.43,272.00,548.00,208.00,158.00,560.00,1177.00,862.00,1207.00,,,,,,,,,,,,0,0,0,,-3328,15800,1924,41,181,-198
6.671,6.56,-1.65,-5.76,0.18,-13.53,0.93,-3.50,1.37,-1.41,0.58,240.00,639.00,176.00,276.00,489.00,1109.00,823.00,1107.00,,,,,,,,,,,,0,0,0,,-3372,15636,1728,-15,108,-136
6.734,6.62,-1.40,-6.70,6.76,-14.42,12.62,3.28,-5.59,4.21,-4.55,171.00,556.00,95.00,209.00,630.00,1022.00,981.00,1017.00,,,,,,,,,,,,0,0,0,,-3336,15764,1872,-118,144,-92
6.775,6.67,-1.55,10.46,-11.49,24.88,-18.98,-4.24,-0.79,-4.66,0.46,336.00,460.00,257.00,103.00,557.00,1210.00,879.00,1263.00,,,,,,,,,,,,0,0,0,,-3304,15712,1804,-163,171,-119
6.837,6.73,-1.73,-8.96,1.18,-18.37,2.56,-5.23,3.69,-3.59,3.03,241.00,706.00,176.00,320.00,445.00,1116.00,750.00,1130.00,,,,,,,,,,,,0,0,0,,-3220,15872,1956,-114,171,-54
6.879,6.78,-1.51,-11.69,12.80,-18.97,18.27,2.77,-5.30,4.35,-4.93,135.00,576.00,76.00,215.00,626.00,1035.00,999.00,1022.00,,,,,,,,,,,,0,0,0,,-3260,15700,1868,7,153,-17
6.922,6.84,-1.56,7.88,-11.16,13.20,-14.76,-2.63,-1.85,-3.02,-0.36,346.00,505.00,253.00,146.00,573.00,1168.00,892.00,1210.00,,,,,,,,,,,,0,0,0,,-3320,15884,1768,-59,101,-212
6.984,6.89,-1.66,-5.32,-0.35,-8.50,-1.27,-3.53,1.34,-2.10,1.50,245.00,637.00,181.00,240.00,490.00,1111.00,793.00,1110.00,,,,,,,,,,,,0,0,0,,-3240,15840,1960,-161,88,-93
7.044,6.95,-1.61,-6.79,5.63,-13.20,7.90,-0.73,-1.97,0.59,-1.72,182.00,575.00,120.00,226.00,557.00,1087.00,899.00,1088.00,,,,,,,,,,,,0,0,0,,-3140,15616,2012,-112,177,-127
7.105,7.00,-1.53,1.23,-5.22,-4.20,-0.44,0.13,-2.71,0.50,-1.63,283.00,560.00,160.00,198.00,571.00,1072.00,896.00,1089.00,,,,,,,,,,,,0,0,0,,-3272,15616,1844,15,221,-183
7.147,7.06,-1.60,0.86,-3.46,4.73,-7.93,-2.93,-0.89,-2.45,0.14,259.00,542.00,204.00,170.00,547.00,1152.00,859.00,1167.00,,,,,,,,,,,,0,0,0,,-3304,16032,1820,82,173,-66
7.229,7.11,-1.68,-6.20,0.48,-14.54,2.02,-3.32,1.23,-1.43,0.75,238.00,645.00,169.00,279.00,491.00,1105.00,816.00,1103.00,,,,,,,,,,,,0,0,0,,-3188,15732,1948,-163,86,-179
7.251,7.17,-1.42,-6.12,6.03,-11.48,11.44,3.48,-5.48,4.27,-4.38,176.00,554.00,96.00,192.00,624.00,1011.00,971.00,1010.00,,,,,,,,,,,,0,0,0,,-3264,15764,1948,-181,42,-138
7.334,7.22,-1.52,9.40,-11.14,21.88,-17.68,-3.36,-1.11,-3.87,0.49,336.00,475.00,253.00,112.00,558.00,1179.00,865.00,1223.00,,,,,,,,,,,,0,0,0,,-3192,15792,1928,33,157,-175
7.394,7.28,-1.69,-8.93,1.40,-18.17,2.49,-4.84,3.52,-2.95,2.89,238.00,701.00,176.00,318.00,446.00,1104.00,747.00,1106.00,,,,,,,,,,,,0,0,0,,-3296,15804,1676,60,117,-236
7.435,7.33,-1.40,-11.80,13.67,-18.99,19.53,3.96,-6.08,6.00,-5.65,129.00,565.00,71.00,208.00,639.00,1008.00,1008.00,976.00,,,,,,,,,,,,0,0,0,,-3180,15680,1832,-14,54,-187
7.495,7.39,-1.47,8.79,-11.84,14.86,-15.09,-2.68,-1.77,-3.20,-0.41,353.00,496.00,250.00,138.00,571.00,1168.00,897.00,1220.00,,,,,,,,,,,,0,0,0,,-3308,15836,1724,-116,89,-123
7.578,7.44,-1.57,-4.63,-1.61,-9.05,-1.99,-3.57,1.47,-2.52,1.55,259.00,641.00,190.00,250.00,487.00,1109.00,797.00,1127.00,,,,,,,,,,,,0,0,0,,-3316,15824,1808,-227,170,-133
7.6,7.50,-1.49,-8.23,6.74,-13.44,8.93,0.01,-2.54,1.37,-2.33,176.00,591.00,114.00,222.00,567.00,1072.00,916.00,1072.00,,,,,,,,,,,,0,0,0,,-3336,15920,1784,-121,170,-87
7.64,7.55,-1.42,-1.08,-2.73,-3.22,-1.89,-0.07,-2.81,-0.49,-1.44,258.00,574.00,170.00,198.00,576.00,1083.00,903.00,1127.00,,,,,,,,,,,,0,0,0,,-3228,15784,1716,-85,111,-59
7.765,7.61,-1.48,-0.97,-2.70,3.86,-7.73,-2.56,-0.92,-2.26,-0.07,257.00,571.00,205.00,175.00,544.00,1136.00,866.00,1165.00,,,,,,,,,,,,0,0,0,,-3160,15764,1808,-175,23,-258
7.785,7.66,-1.55,-4.92,-1.30,-14.11,1.66,-2.83,0.99,-1.49,0.77,256.00,643.00,171.00,277.00,493.00,1091.00,816.00,1105.00,,,,,,,,,,,,0,0,0,,-3140,15764,2088,-186,100,-162
7.827,7.72,-1.29,-3.92,2.38,-11.17,8.00,3.59,-5.49,4.45,-4.46,206.00,560.00,115.00,208.00,623.00,1007.00,972.00,1005.00,,,,,,,,,,,,0,0,0,,-3260,15652,1976,-46,286,-75
7.869,7.77,-1.40,9.00,-10.78,22.01,-17.87,-3.38,-0.74,-3.58,0.37,332.00,478.00,255.00,112.00,547.00,1168.00,866.00,1213.00,,,,,,,,,,,,0,0,0,,-3212,15628,1748,27,307,-80
7.951,7.83,-1.57,-7.35,0.49,-16.20,1.52,-4.91,3.58,-3.85,3.22,243.00,675.00,179.00,302.00,445.00,1105.00,746.00,1136.00,,,,,,,,,,,,0,0,0,,-3204,15900,1752,50,180,-174
7.972,7.88,-1.23,-11.07,12.73,-20.51,21.96,5.25,-6.89,6.05,-5.73,134.00,563.00,64.00,207.00,652.00,979.00,1011.00,976.00,,,,,,,,,,,,0,0,0,,-3224,15668,1828,-146,74,-129
8.034,7.94,-1.31,11.40,-12.72,22.26,-18.24,-2.80,-1.53,-3.53,-0.07,353.00,458.00,259.00,112.00,565.00,1166.00,886.00,1225.00,,,,,,,,,,,,0,0,0,,-3200,15748,1904,-171,80,-125
8.076,7.99,-1.43,-5.80,-0.34,-9.39,-1.48,-3.71,1.74,-2.32,1.39,247.00,649.00,186.00,250.00,481.00,1107.00,801.00,1123.00,,,,,,,,,,,,0,0,0,,-3116,15820,1760,-7,151,-173
8.137,8.05,-1.31,-7.61,7.17,-11.31,8.21,0.99,-2.97,1.10,-2.24,170.00,570.00,114.00,208.00,570.00,1043.00,916.00,1081.00,,,,,,,,,,,,0,0,0,,-3208,15680,1676,24,114,-208
8.199,8.10,-1.26,2.42,-5.62,0.65,-3.83,-0.44,-2.23,-0.28,-1.33,283.00,540.00,176.00,179.00,562.00,1082.00,894.00,1114.00,,,,,,,,,,,,0,0,0,,-3224,15776,1600,-15,102,-90
8.258,8.16,-1.31,-1.10,-1.84,2.84,-6.65,-2.27,-1.12,-2.18,0.01,246.00,561.00,197.00,177.00,547.00,1129.00,861.00,1159.00,,,,,,,,,,,,0,0,0,,-3180,15736,1900,-205,179,-33
8.321,8.21,-1.40,-4.31,-0.23,-10.19,0.45,-2.97,0.93,-1.24,0.39,239.00,610.00,170.00,245.00,496.00,1099.00,829.00,1105.00,,,,,,,,,,,,0,0,0,,-3176,15892,1880,-251,179,-137
8.383,8.27,-1.20,-4.17,2.02,-8.46,5.85,2.49,-5.00,3.28,-4.09,211.00,571.00,123.00,198.00,619.00,1038.00,973.00,1042.00,,,,,,,,,,,,0,0,0,,-3104,15852,1856,-150,111,-60
8.422,8.32,-1.34,8.04,-10.51,22.07,-17.96,-3.86,-0.41,-3.88,0.45,333.00,493.00,256.00,112.00,542.00,1180.00,867.00,1225.00,,,,,,,,,,,,0,0,0,,-3136,15632,1708,-225,31,-159
8.462,8.38,-1.50,-6.67,0.49,-13.34,0.25,-4.59,3.31,-3.06,2.88,240.00,657.00,182.00,279.00,449.00,1099.00,749.00,1111.00,,,,,,,,,,,,0,0,0,,-3100,15824,1952,-415,56,-67
8.524,8.43,-1.17,-11.14,13.03,-18.98,20.06,5.07,-6.51,6.36,-5.96,132.00,560.00,69.00,205.00,641.00,976.00,1018.00,970.00,,,,,,,,,,,,0,0,0,,-3128,15720,1804,-335,143,-77
8.587,8.49,-1.26,13.31,-14.13,29.01,-20.86,-3.00,-1.20,-3.66,0.19,368.00,441.00,264.00,92.00,557.00,1165.00,876.00,1223.00,,,,,,,,,,,,0,0,0,,-3056,15636,1924,-190,147,-58
8.69,8.54,-1.37,-5.20,-1.35,-11.35,-1.60,-3.37,1.55,-2.40,1.51,258.00,651.00,194.00,271.00,483.00,1098.00,797.00,1123.00,,,,,,,,,,,,0,0,0,,-3100,15876,2004,-123,143,-172
8.71,8.60,-1.22,-7.06,6.56,-11.60,8.63,1.60,-3.14,3.06,-3.04,174.00,567.00,112.00,208.00,569.00,1023.00,923.00,1022.00,,,,,,,,,,,,0,0,0,,-3124,15824,2064,-272,127,-32
8.752,8.65,-1.17,4.80,-6.48,7.65,-9.27,-0.17,-2.52,-0.64,-1.12,284.00,503.00,208.00,157.00,568.00,1079.00,890.00,1124.00,,,,,,,,,,,,0,0,0,,-3068,15824,2060,-230,159,-40
8.815,8.71,-1.22,1.46,-5.62,2.86,-6.47,-2.19,-0.63,-1.40,-0.36,288.00,561.00,195.00,176.00,532.00,1111.00,866.00,1135.00,,,,,,,,,,,,0,0,0,,-3112,15764,1976,-51,194,-58
8.855,8.76,-1.30,-3.67,-0.06,-9.73,0.85,-2.80,1.02,-1.25,0.44,234.00,592.00,165.00,238.00,492.00,1089.00,827.00,1104.00,,,,,,,,,,,,0,0,0,,-3060,15840,1992,12,195,-94
8.917,8.82,-1.11,-4.21,2.75,-9.14,6.84,2.40,-4.73,2.75,-3.83,203.00,561.00,118.00,198.00,611.00,1034.00,969.00,1057.00,,,,,,,,,,,,0,0,0,,-3072,15704,1844,-93,179,-65
8.979,8.87,-1.22,8.56,-10.74,19.27,-17.02,-3.26,-0.88,-4.28,1.28,334.00,486.00,256.00,122.00,550.00,1167.00,835.00,1217.00,,,,,,,,,,,,0,0,0,,-2976,15600,2056,-171,206,-82
9.085,8.93,-1.40,-6.42,0.17,-14.37,1.11,-4.89,3.66,-3.08,2.71,243.00,656.00,177.00,284.00,443.00,1102.00,756.00,1117.00,,,,,,,,,,,,0,0,0,,-3052,16032,1856,-123,185,-52
9.106,8.98,-1.09,-10.94,12.27,-19.71,21.70,4.92,-6.63,6.24,-6.01,137.00,567.00,64.00,202.00,647.00,985.00,1023.00,976.00,,,,,,,,,,,,0,0,0,,-3048,15720,2032,-222,76,-96
9.127,9.04,-1.19,13.79,-14.83,28.86,-21.83,-3.15,-0.89,-3.99,0.34,379.00,441.00,279.00,95.00,549.00,1162.00,874.00,1234.00,,,,,,,,,,,,0,0,0,,-3084,15760,2112,-225,81,-164
9.191,9.09,-1.32,-5.62,-1.35,-11.70,-0.80,-3.79,1.96,-2.63,1.75,260.00,662.00,187.00,269.00,476.00,1104.00,790.00,1126.00,,,,,,,,,,,,0,0,0,,-3028,15732,2048,-120,197,-137
9.233,9.15,-1.15,-6.38,6.01,-11.43,8.74,2.04,-3.36,3.30,-3.24,177.00,560.00,111.00,206.00,571.00,1011.00,929.00,1018.00,,,,,,,,,,,,0,0,0,,-2984,15656,1956,-3,159,-65
9.296,9.20,-1.12,5.51,-6.85,9.96,-8.67,-0.53,-2.33,-1.12,-0.65,286.00,494.00,193.00,141.00,566.00,1089.00,875.00,1131.00,,,,,,,,,,,,0,0,0,,-3060,15852,1952,43,109,-193
9.359,9.26,-1.17,-0.14,-3.19,1.92,-6.53,-2.05,-0.64,-1.52,-0.07,260.00,560.00,199.00,183.00,531.00,1105.00,854.00,1131.00,,,,,,,,,,,,0,0,0,,-3108,15720,2144,-164,73,-142
9.421,9.31,-1.22,-2.96,-0.53,-7.41,-0.81,-2.31,0.74,-0.65,0.10,237.00,583.00,173.00,227.00,495.00,1076.00,833.00,1088.00,,,,,,,,,,,,0,0,0,,-3044,15716,2124,-191,63,-165
9.484,9.37,-1.03,-3.59,1.83,-11.78,6.81,2.67,-4.73,2.89,-3.69,211.00,561.00,124.00,220.00,608.00,1023.00,959.00,1047.00,,,,,,,,,,,,0,0,0,,-3040,15844,1948,-50,127,-198
9.524,9.42,-1.14,7.96,-10.09,18.56,-15.97,-3.19,-0.74,-3.67,0.51,326.00,489.00,245.00,122.00,545.00,1159.00,861.00,1213.00,,,,,,,,,,,,0,0,0,,-2996,15832,2036,44,154,-233
9.586,9.48,-1.30,-6.27,0.35,-13.50,1.03,-4.48,3.57,-2.85,2.73,240.00,649.00,175.00,275.00,442.00,1087.00,752.00,1106.00,,,,,,,,,,,,0,0,0,,-2948,15796,2028,18,100,-120
9.628,9.53,-0.98,-10.01,11.17,-18.49,19.90,5.21,-6.56,6.27,-6.02,143.00,563.00,69.00,202.00,641.00,972.00,1023.00,975.00,,,,,,,,,,,,0,0,0,,-2972,15672,2012,67,91,-165
9.67,9.59,-1.10,13.49,-14.97,29.20,-21.95,-3.44,-0.72,-4.41,0.65,384.00,448.00,279.00,94.00,547.00,1170.00,866.00,1244.00,,,,,,,,,,,,0,0,0,,-3000,15880,1956,88,110,-227
9.732,9.64,-1.23,-6.65,-0.71,-12.99,-0.66,-3.70,1.89,-2.63,1.84,256.00,678.00,190.00,282.00,477.00,1102.00,786.00,1123.00,,,,,,,,,,,,0,0,0,,-3008,15820,1992,-81,192,-71
9.794,9.70,-1.06,-8.02,6.35,-11.51,7.80,2.25,-3.56,3.50,-3.25,179.00,592.00,117.00,212.00,575.00,1008.00,926.00,1010.00,,,,,,,,,,,,0,0,0,,-3012,15724,2032,-40,215,-130
9.856,9.75,-1.05,5.92,-7.31,9.24,-8.14,-0.96,-1.49,-0.97,-0.57,291.00,492.00,190.00,143.00,545.00,1083.00,869.00,1122.00,,,,,,,,,,,,0,0,0,,-3088,15932,1936,40,190,-159
9.918,9.81,-1.08,-0.80,-2.68,0.98,-5.55,-1.63,-0.92,-1.40,0.16,256.00,567.00,192.00,185.00,535.00,1095.00,842.00,1119.00,,,,,,,,,,,,0,0,0,,-3016,15900,1864,134,89,-100
9.999,9.86,-1.14,-2.36,-0.96,-6.01,-0.84,-2.22,0.68,-0.77,0.28,240.00,576.00,169.00,215.00,496.00,1074.00,827.00,1088.00,,,,,,,,,,,,0,0,0,,-3080,15844,1904,74,48,-276
10.02,9.92,-0.94,-2.70,1.53,-9.17,7.65,2.82,-4.66,3.23,-3.61,211.00,546.00,113.00,194.00,604.00,1015.00,949.00,1031.00,,,,,,,,,,,,0,0,0,,-3032,15792,1764,-57,77,-223
10.06,9.97,-1.07,7.35,-9.71,16.74,-15.35,-3.50,-0.05,-3.62,0.86,323.00,496.00,245.00,129.00,528.00,1152.00,844.00,1199.00,,,,,,,,,,,,0,0,0,,-3000,15744,1724,-16,69,-210
10.165,10.03,-1.21,-6.42,0.63,-13.08,0.68,-3.97,3.23,-2.11,2.19,237.00,648.00,177.00,273.00,446.00,1075.00,764.00,1090.00,,,,,,,,,,,,0,0,0,,-3052,15768,1748,37,70,-213
10.186,10.08,-0.89,-9.44,10.72,-19.21,20.41,5.21,-6.56,6.49,-5.87,145.00,557.00,68.00,205.00,641.00,972.00,1011.00,963.00,,,,,,,,,,,,0,0,0,,-3108,15808,1688,11,112,-200
10.227,10.14,-1.03,14.53,-15.32,29.61,-22.54,-3.65,-0.78,-4.30,0.68,384.00,434.00,286.00,94.00,551.00,1182.00,863.00,1238.00,,,,,,,,,,,,0,0,0,,-3020,15944,1708,-79,121,-140
10.352,10.19,-1.20,-6.44,-0.42,-13.25,-0.28,-4.41,2.89,-2.84,2.05,251.00,667.00,187.00,282.00,458.00,1104.00,780.00,1126.00,,,,,,,,,,,,0,0,0,,-2984,15756,1784,-108,180,-129
10.372,10.25,-1.02,-6.81,5.34,-12.29,7.90,2.33,-3.94,3.47,-3.49,185.00,580.00,118.00,218.00,586.00,1015.00,939.00,1018.00,,,,,,,,,,,,0,0,0,,-3080,15900,1624,-5,151,-304
10.392,10.30,-1.02,7.25,-8.50,11.72,-10.46,-0.94,-1.80,-1.20,-0.37,303.00,482.00,206.00,138.00,554.00,1091.00,863.00,1126.00,,,,,,,,,,,,0,0,0,,-3136,15800,1932,-165,64,-186
10.452,10.36,-1.05,-1.16,-2.42,-0.16,-5.46,-1.75,-0.74,-1.00,0.11,254.00,571.00,195.00,193.00,531.00,1095.00,838.00,1103.00,,,,,,,,,,,,0,0,0,,-3028,15656,1876,-90,86,-222
10.514,10.41,-1.11,-2.03,-1.00,-7.21,-0.77,-2.22,0.68,-0.21,0.04,239.00,569.00,172.00,225.00,496.00,1074.00,829.00,1071.00,,,,,,,,,,,,0,0,0,,-3060,15736,1908,-29,145,-236
10.574,10.47,-0.92,-2.73,1.36,0.17,-2.92,2.80,-4.77,3.36,-3.52,213.00,549.00,169.00,178.00,608.00,1019.00,942.00,1023.00,,,,,,,,,,,,0,0,0,,-3196,15788,1872,71,135,-104
10.636,10.52,-1.03,6.74,-9.34,13.46,-14.10,-3.18,-0.37,-3.34,0.99,320.00,503.00,243.00,142.00,534.00,1147.00,834.00,1182.00,,,,,,,,,,,,0,0,0,,-3020,15880,1676,24,193,-110
10.718,10.58,-1.18,-6.17,0.79,-14.23,1.70,-3.96,3.14,-2.05,2.34,234.00,639.00,171.00,278.00,448.00,1077.00,757.00,1083.00,,,,,,,,,,,,0,0,0,,-3064,15888,1760,-88,233,-182
10.736,10.63,-0.86,-9.66,11.18,-16.34,16.91,5.26,-6.40,6.39,-5.41,142.00,555.00,78.00,201.00,635.00,966.00,988.00,955.00,,,,,,,,,,,,0,0,0,,-3056,15720,1756,26,150,-199
10.799,10.69,-0.99,15.63,-15.65,34.19,-23.76,-3.61,-0.60,-4.45,0.99,383.00,419.00,281.00,81.00,545.00,1174.00,851.00,1235.00,,,,,,,,,,,,0,0,0,,-3068,15788,1808,119,62,-160
10.901,10.74,-1.17,-7.10,0.55,-13.19,-0.49,-4.56,3.10,-3.49,3.75,241.00,667.00,189.00,283.00,454.00,1104.00,720.00,1104.00,,,,,,,,,,,,0,0,0,,-3028,15760,1772,10,131,-202
10.922,10.80,-1.01,-6.77,5.73,-11.68,7.70,2.09,-3.79,3.62,-3.43,181.00,573.00,118.00,214.00,584.00,1021.00,933.00,1010.00,,,,,,,,,,,,0,0,0,,-3112,15796,1712,-180,188,-165
10.942,10.85,-1.03,7.57,-8.97,10.86,-10.53,-1.51,-1.57,-1.39,-0.45,309.00,482.00,210.00,143.00,553.00,1109.00,870.00,1137.00,,,,,,,,,,,,0,0,0,,-3120,15732,1844,-151,232,-72
11.003,10.91,-1.09,-2.21,-2.21,-2.13,-4.79,-2.22,-0.55,-1.57,0.28,256.00,592.00,195.00,205.00,530.00,1110.00,839.00,1123.00,,,,,,,,,,,,0,0,0,,-3060,15824,1644,-212,296,8
11.064,10.96,-1.15,-2.23,-1.16,-7.64,0.04,-2.29,0.33,-0.36,-0.19,242.00,576.00,166.00,224.00,506.00,1087.00,842.00,1084.00,,,,,,,,,,,,0,0,0,,-3056,15796,1744,-110,213,-102
11.106,11.02,-1.00,-2.55,-0.03,-6.88,3.32,1.82,-4.04,2.27,-2.91,229.00,566.00,137.00,199.00,595.00,1039.00,930.00,1051.00,,,,,,,,,,,,0,0,0,,-3044,16016,1724,53,92,-115
11.169,11.07,-1.13,5.39,-9.51,12.06,-14.08,-3.45,-0.48,-3.09,0.62,331.00,533.00,249.00,150.00,540.00,1163.00,847.00,1182.00,,,,,,,,,,,,0,0,0,,-3068,15792,2000,-112,20,-204
11.251,11.13,-1.27,-6.68,0.96,-14.35,1.21,-4.03,3.00,-1.85,2.25,234.00,649.00,176.00,283.00,452.00,1084.00,758.00,1077.00,,,,,,,,,,,,0,0,0,,-3060,15620,1840,-101,134,-141
11.312,11.18,-0.98,-9.49,10.74,-15.43,15.02,4.64,-5.87,6.45,-5.08,145.00,558.00,85.00,204.00,624.00,976.00,969.00,944.00,,,,,,,,,,,,0,0,0,,-3044,15720,1740,67,266,-82
11.332,11.24,-1.14,14.68,-15.37,27.70,-22.41,-4.30,-0.30,-4.36,1.07,384.00,432.00,294.00,101.00,543.00,1197.00,846.00,1228.00,,,,,,,,,,,,0,0,0,,-3144,15804,1696,55,252,-84
11.393,11.29,-1.29,-6.93,0.42,-14.18,0.43,-4.11,2.54,-2.79,3.16,242.00,665.00,183.00,287.00,464.00,1101.00,734.00,1091.00,,,,,,,,,,,,0,0,0,,-3072,15800,1708,76,135,-84
11.433,11.35,-1.11,-6.25,5.55,-12.60,7.85,2.37,-4.14,4.08,-3.54,181.00,564.00,119.00,221.00,592.00,1019.00,931.00,995.00,,,,,,,,,,,,0,0,0,,-3112,15804,1724,-65,140,-85
11.495,11.40,-1.14,7.79,-8.98,11.40,-11.06,-1.71,-1.54,-1.60,-0.10,308.00,478.00,214.00,142.00,554.00,1117.00,857.00,1136.00,,,,,,,,,,,,0,0,0,,-3180,15852,1664,-17,220,24
11.658,11.46,-1.21,-2.49,-1.68,-4.46,-3.82,-2.64,0.27,-1.19,0.67,250.00,590.00,193.00,219.00,511.00,1104.00,816.00,1095.00,,,,,,,,,,,,0,0,0,,-3004,15764,1608,139,210,-54
11.679,11.51,-1.26,-2.19,-1.02,-9.67,0.61,-2.13,0.10,-0.00,-0.34,240.00,573.00,167.00,239.00,511.00,1087.00,843.00,1073.00,,,,,,,,,,,,0,0,0,,-3028,15900,1716,95,185,-28
11.72,11.57,-1.11,-1.15,-0.82,-6.68,2.46,1.70,-3.91,2.33,-2.57,233.00,547.00,143.00,202.00,592.00,1040.00,912.00,1039.00,,,,,,,,,,,,0,0,0,,-2964,15860,1548,-37,212,-123
11.74,11.62,-1.23,6.42,-9.46,13.27,-14.85,-3.56,-0.44,-3.27,0.65,324.00,511.00,254.00,146.00,540.00,1167.00,848.00,1189.00,,,,,,,,,,,,0,0,0,,-2944,15844,1488,-142,165,-165
11.78,11.68,-1.38,-6.04,-0.11,-14.42,0.92,-4.18,2.85,-2.18,2.26,245.00,651.00,179.00,286.00,457.00,1095.00,762.00,1091.00,,,,,,,,,,,,0,0,0,,-3024,15816,1756,-133,137,-116
11.843,11.73,-1.10,-7.71,7.64,-15.69,14.67,4.22,-5.79,5.36,-4.79,166.00,565.00,87.00,208.00,626.00,990.00,973.00,978.00,,,,,,,,,,,,0,0,0,,-3088,15868,1492,-178,89,-105
11.885,11.79,-1.26,13.12,-14.85,25.43,-21.89,-4.38,-0.67,-4.60,0.76,384.00,453.00,298.00,109.00,555.00,1213.00,864.00,1250.00,,,,,,,,,,,,0,0,0,,-3084,15948,1772,-112,58,-102
11.988,11.84,-1.47,-7.18,-0.53,-15.81,0.10,-5.47,3.44,-3.68,3.66,256.00,689.00,192.00,309.00,453.00,1134.00,726.00,1115.00,,,,,,,,,,,,0,0,0,,-3068,15672,1716,-97,118,-113
12.008,11.90,-1.32,-6.91,4.78,-13.29,6.73,1.66,-4.21,3.39,-3.57,191.00,591.00,128.00,234.00,602.00,1050.00,944.00,1023.00,,,,,,,,,,,,0,0,0,,-3020,16028,1636,-12,131,-256
12.049,11.95,-1.35,7.80,-9.69,10.86,-11.56,-1.97,-1.65,-1.57,-0.22,320.00,487.00,222.00,147.00,560.00,1132.00,862.00,1138.00,,,,,,,,,,,,0,0,0,,-2880,15868,1836,-250,115,-125
12.11,12.01,-1.44,-3.24,-1.49,-4.54,-3.69,-3.20,0.45,-1.73,0.98,251.00,605.00,192.00,219.00,511.00,1123.00,810.00,1109.00,,,,,,,,,,,,0,0,0,,-2952,15752,1704,-151,173,-126
12.151,12.06,-1.46,-2.31,-0.98,-7.52,-1.30,-1.81,-0.62,0.08,-0.32,240.00,575.00,178.00,231.00,528.00,1094.00,841.00,1069.00,,,,,,,,,,,,0,0,0,,-2952,15888,1780,-86,224,-149
12.213,12.12,-1.32,-1.69,-0.16,-7.75,2.95,1.33,-3.78,2.14,-2.37,227.00,549.00,142.00,208.00,592.00,1052.00,905.00,1041.00,,,,,,,,,,,,0,0,0,,-2964,15908,1636,93,148,-143
12.273,12.17,-1.43,6.73,-9.62,11.08,-14.33,-3.47,-0.64,-2.87,0.61,325.00,507.00,257.00,157.00,545.00,1169.00,844.00,1172.00,,,,,,,,,,,,0,0,0,,-2976,15924,1640,-10,12,-210
12.355,12.23,-1.56,-5.83,-0.18,-14.87,1.08,-4.11,2.54,-1.90,2.29,245.00,647.00,179.00,290.00,464.00,1101.00,757.00,1078.00,,,,,,,,,,,,0,0,0,,-3068,15868,1736,-32,37,-302
12.376,12.28,-1.30,-7.52,8.03,-15.61,14.02,3.71,-5.56,2.90,-3.77,162.00,555.00,90.00,211.00,624.00,1004.00,963.00,1049.00,,,,,,,,,,,,0,0,0,,-3032,15812,1616,-30,172,-192
12.439,12.34,-1.46,13.38,-14.99,26.34,-22.20,-4.52,-0.63,-4.53,0.86,385.00,450.00,298.00,106.00,555.00,1218.00,858.00,1243.00,,,,,,,,,,,,0,0,0,,-2984,15844,1620,121,165,-127
12.481,12.39,-1.64,-8.13,0.98,-17.12,1.42,-5.13,3.53,-3.40,3.72,240.00,687.00,183.00,314.00,448.00,1116.00,720.00,1101.00,,,,,,,,,,,,0,0,0,,-3008,15960,1624,-66,209,-117
12.542,12.45,-1.49,-6.60,5.67,-14.46,9.27,1.36,-4.01,3.97,-3.97,181.00,570.00,114.00,229.00,599.00,1057.00,955.00,1011.00,,,,,,,,,,,,0,0,0,,-2956,15744,1612,-199,228,-76
12.625,12.50,-1.53,6.75,-8.75,9.48,-11.01,-2.23,-1.59,-2.03,0.24,310.00,495.00,221.00,153.00,561.00,1142.00,848.00,1145.00,,,,,,,,,,,,0,0,0,,-2984,15820,1548,-198,158,-17
12.646,12.56,-1.53,-4.07,-0.77,-5.92,-2.84,-1.43,-0.14,-1.77,0.97,245.00,613.00,188.00,226.00,511.00,1064.00,811.00,1111.00,,,,,,,,,,,,0,0,0,,-3036,15952,1700,-93,153,-71
12.727,12.61,-1.55,-1.82,-1.38,-7.56,-1.07,-2.05,-0.64,-0.56,-0.11,243.00,570.00,176.00,230.00,531.00,1105.00,841.00,1090.00,,,,,,,,,,,,0,0,0,,-2908,15876,1712,-98,117,-104
12.748,12.67,-1.44,-2.05,-0.84,-7.46,2.34,0.62,-3.55,0.98,-1.75,237.00,567.00,146.00,209.00,592.00,1075.00,894.00,1072.00,,,,,,,,,,,,0,0,0,,-2960,15892,1684,-78,91,-119
12.808,12.72,-1.58,4.96,-9.36,10.18,-14.17,-4.19,-0.40,-3.43,0.58,331.00,540.00,259.00,162.00,545.00,1195.00,854.00,1199.00,,,,,,,,,,,,0,0,0,,-2984,15716,1688,1,121,-152
12.87,12.78,-1.74,-6.39,-0.44,-15.78,1.28,-4.78,2.69,-2.42,2.18,251.00,666.00,180.00,299.00,466.00,1126.00,769.00,1104.00,,,,,,,,,,,,0,0,0,,-2980,15912,1788,88,144,-176
12.932,12.83,-1.48,-7.90,7.27,-17.53,15.29,3.38,-5.62,5.17,-4.44,170.00,575.00,87.00,220.00,630.00,1019.00,958.00,976.00,,,,,,,,,,,,0,0,0,,-3052,15836,1692,-113,155,-92
13.014,12.89,-1.63,12.92,-14.88,24.86,-22.07,-4.40,-0.83,-4.81,1.06,386.00,457.00,304.00,112.00,560.00,1219.00,853.00,1250.00,,,,,,,,,,,,0,0,0,,-3012,15728,1680,-158,182,-98
13.034,12.94,-1.80,-7.86,0.35,-15.50,-0.01,-5.07,3.35,-3.04,3.60,247.00,691.00,192.00,306.00,452.00,1119.00,720.00,1089.00,,,,,,,,,,,,0,0,0,,-2924,15900,1608,-50,183,-192
13.095,13.00,-1.62,-7.36,6.34,-16.87,11.08,1.74,-4.54,3.83,-3.77,177.00,577.00,108.00,240.00,612.00,1056.00,947.00,1011.00,,,,,,,,,,,,0,0,0,,-2972,15836,1484,37,118,-118
13.156,13.05,-1.66,7.04,-9.03,10.86,-11.56,-2.26,-1.48,-1.54,-0.29,313.00,493.00,222.00,147.00,558.00,1140.00,865.00,1139.00,,,,,,,,,,,,0,0,0,,-2980,15904,1520,3,117,-136
13.197,13.11,-1.75,-3.88,-0.68,-6.32,-3.38,-3.58,0.62,-1.77,1.18,243.00,607.00,195.00,233.00,510.00,1135.00,802.00,1105.00,,,,,,,,,,,,0,0,0,,-3036,15904,1688,-56,138,-200
13.258,13.16,-1.77,-2.03,-1.46,-8.32,-1.54,-2.07,-0.74,-0.25,-0.08,245.00,576.00,183.00,240.00,534.00,1109.00,835.00,1076.00,,,,,,,,,,,,0,0,0,,-2940,15792,1528,9,124,-230
13.32,13.22,-1.65,-1.84,-0.75,-6.59,0.71,0.66,-3.50,1.79,-2.06,235.00,561.00,157.00,211.00,590.00,1072.00,896.00,1047.00,,,,,,,,,,,,0,0,0,,-3084,15836,1556,86,65,-191
13.381,13.27,-1.76,5.43,-9.63,8.60,-13.64,-3.83,-0.56,-3.42,0.95,333.00,534.00,259.00,170.00,546.00,1183.00,837.00,1187.00,,,,,,,,,,,,0,0,0,,-3016,15964,1480,-41,38,-204
13.463,13.33,-1.88,-6.02,-0.41,-14.19,-0.06,-4.29,2.41,-2.34,2.39,249.00,656.00,188.00,291.00,469.00,1113.00,759.00,1094.00,,,,,,,,,,,,0,0,0,,-2980,15848,1548,-211,65,-182
13.504,13.38,-1.60,-7.44,7.11,-15.20,12.88,3.68,-5.67,5.26,-4.60,170.00,567.00,95.00,214.00,628.00,1008.00,965.00,977.00,,,,,,,,,,,,0,0,0,,-2932,15832,1620,-233,75,-203
13.525,13.44,-1.75,12.82,-14.89,24.32,-21.27,-4.42,-0.82,-4.78,0.99,387.00,459.00,294.00,112.00,560.00,1220.00,856.00,1251.00,,,,,,,,,,,,0,0,0,,-2944,15844,1508,-115,93,-209
13.587,13.49,-1.94,-8.14,0.08,-17.04,0.61,-5.61,3.82,-3.30,3.43,252.00,704.00,191.00,320.00,445.00,1129.00,730.00,1105.00,,,,,,,,,,,,0,0,0,,-3032,15916,1512,-115,88,-201
13.647,13.55,-1.75,-8.29,6.76,-16.02,10.28,1.83,-4.78,3.08,-3.71,176.00,592.00,111.00,237.00,619.00,1059.00,957.00,1040.00,,,,,,,,,,,,0,0,0,,-2996,15824,1444,-132,23,-199
13.689,13.60,-1.79,7.27,-10.42,10.69,-12.55,-2.60,-1.44,-2.22,-0.26,336.00,507.00,235.00,152.00,560.00,1154.00,874.00,1169.00,,,,,,,,,,,,0,0,0,,-2952,15748,1688,-23,77,-246
13.751,13.66,-1.91,-3.75,-1.90,-7.32,-2.86,-4.07,1.15,-2.40,1.37,259.00,624.00,193.00,239.00,500.00,1141.00,803.00,1127.00,,,,,,,,,,,,0,0,0,,-2864,15960,1724,77,164,-112
13.833,13.71,-1.92,-2.79,-1.35,-8.72,-0.79,-2.19,-0.56,-0.82,-0.06,247.00,592.00,177.00,239.00,530.00,1109.00,843.00,1100.00,,,,,,,,,,,,0,0,0,,-2904,15776,1536,-98,196,-168
13.853,13.77,-1.79,-1.73,-1.18,-6.70,1.22,0.64,-3.30,1.55,-2.02,240.00,565.00,153.00,209.00,584.00,1067.00,898.00,1056.00,,,,,,,,,,,,0,0,0,,-2924,15800,1516,-183,142,-152
13.935,13.82,-1.89,5.34,-9.44,10.12,-15.66,-3.77,-0.54,-3.21,0.64,330.00,533.00,281.00,169.00,545.00,1180.00,848.00,1187.00,,,,,,,,,,,,0,0,0,,-2992,15884,1692,-23,187,-148
13.976,13.88,-2.01,-6.15,-0.22,-15.52,1.40,-4.26,2.55,-1.78,2.25,247.00,656.00,178.00,295.00,465.00,1107.00,757.00,1074.00,,,,,,,,,,,,0,0,0,,-3044,15776,1484,85,157,-151
14.036,13.93,-1.73,-6.47,6.15,-14.52,11.71,3.55,-5.48,5.24,-4.46,176.00,560.00,100.00,215.00,623.00,1008.00,958.00,974.00,,,,,,,,,,,,0,0,0,,-3120,15948,1624,76,53,-223
14.098,13.99,-1.85,12.69,-14.22,24.04,-20.86,-4.07,-0.94,-4.62,1.24,374.00,453.00,289.00,112.00,560.00,1207.00,842.00,1235.00,,,,,,,,,,,,0,0,0,,-2960,15872,1588,-81,99,-216
14.138,14.04,-2.01,-8.05,0.42,-16.96,0.48,-5.04,3.50,-3.03,3.44,247.00,695.00,192.00,320.00,448.00,1113.00,726.00,1093.00,,,,,,,,,,,,0,0,0,,-3068,15924,1376,-43,120,-228
14.22,14.10,-1.80,-7.97,7.18,-16.56,12.21,2.11,-4.72,3.84,-3.85,171.00,578.00,101.00,230.00,614.00,1046.00,951.00,1013.00,,,,,,,,,,,,0,0,0,,-3092,15880,1516,43,53,-198
14.242,14.15,-1.82,7.75,-10.30,11.36,-12.30,-2.06,-1.55,-1.91,-0.17,331.00,496.00,229.00,147.00,558.00,1133.00,865.00,1152.00,,,,,,,,,,,,0,0,0,,-3136,15856,1468,-40,63,-161
14.302,14.21,-1.90,-3.46,-1.79,-6.71,-2.96,-3.47,1.02,-2.40,1.60,256.00,615.00,192.00,234.00,498.00,1118.00,793.00,1120.00,,,,,,,,,,,,0,0,0,,-2988,15864,1544,-172,148,-159
14.384,14.26,-1.93,-2.26,-1.75,-9.18,-0.74,-2.52,0.23,-0.45,-0.23,250.00,586.00,178.00,243.00,511.00,1100.00,845.00,1089.00,,,,,,,,,,,,0,0,0,,-3020,15836,1536,-227,147,-131
14.405,14.32,-1.80,-1.79,-1.16,-7.57,2.51,0.67,-3.06,1.50,-2.03,240.00,566.00,145.00,209.00,576.00,1059.00,899.00,1058.00,,,,,,,,,,,,0,0,0,,-2936,15872,1536,-226,135,-157
14.467,14.37,-1.90,5.02,-9.10,10.41,-13.82,-3.76,-0.38,-3.51,0.74,326.00,535.00,253.00,159.00,540.00,1174.00,848.00,1198.00,,,,,,,,,,,,0,0,0,,-3024,15912,1592,-158,84,-171
14.57,14.43,-2.01,-6.37,-0.07,-15.43,1.26,-4.24,2.63,-2.32,2.26,246.00,659.00,179.00,295.00,463.00,1104.00,764.00,1097.00,,,,,,,,,,,,0,0,0,,-2844,15840,1588,-209,37,-172
14.59,14.48,-1.73,-6.91,5.88,-14.27,12.57,3.66,-5.60,4.46,-4.37,180.00,574.00,95.00,208.00,626.00,1007.00,967.00,1002.00,,,,,,,,,,,,0,0,0,,-2996,15944,1616,-43,8,-214
14.632,14.54,-1.88,11.38,-13.98,34.94,-24.40,-4.66,-0.45,-5.35,1.01,378.00,474.00,287.00,80.00,551.00,1219.00,864.00,1279.00,,,,,,,,,,,,0,0,0,,-3036,15864,1420,91,61,-119
14.674,14.59,-2.06,-8.06,-0.09,-17.53,1.56,-5.47,3.94,-3.83,3.71,254.00,705.00,183.00,318.00,441.00,1119.00,726.00,1120.00,,,,,,,,,,,,0,0,0,,-3076,15808,1580,-124,120,-215
14.735,14.65,-1.84,-8.07,7.32,-17.90,13.22,2.24,-4.73,3.22,-3.82,170.00,578.00,98.00,236.00,613.00,1041.00,960.00,1037.00,,,,,,,,,,,,0,0,0,,-3056,15848,1576,-249,181,-161
14.797,14.70,-1.85,7.41,-9.74,11.52,-12.27,-1.97,-1.55,-2.18,0.01,323.00,495.00,228.00,146.00,557.00,1129.00,861.00,1159.00,,,,,,,,,,,,0,0,0,,-3068,15740,1684,-169,309,-57
14.839,14.76,-1.91,-3.40,-1.15,-5.51,-3.94,-3.12,0.98,-2.20,1.67,247.00,603.00,198.00,229.00,496.00,1104.00,787.00,1109.00,,,,,,,,,,,,0,0,0,,-3040,15780,1484,15,463,-97
14.942,14.81,-1.90,-2.36,-0.96,-7.84,-0.98,-1.69,-0.48,-0.36,-0.32,240.00,576.00,176.00,232.00,523.00,1085.00,848.00,1088.00,,,,,,,,,,,,0,0,0,,-2912,15944,1428,133,293,-73
14.963,14.87,-1.77,-0.89,-1.69,-5.79,1.16,0.77,-2.93,1.16,-1.67,243.00,554.00,151.00,202.00,571.00,1051.00,887.00,1062.00,,,,,,,,,,,,0,0,0,,-3072,15920,1484,98,74,-62
15.005,14.92,-1.86,5.35,-9.10,12.38,-14.56,-3.63,-0.14,-3.44,0.91,324.00,528.00,254.00,150.00,532.00,1161.00,839.00,1189.00,,,,,,,,,,,,0,0,0,,-2904,15828,1660,65,59,-137
15.066,14.98,-1.97,-6.24,0.19,-14.83,1.27,-4.07,2.89,-2.28,2.54,242.00,651.00,177.00,288.00,455.00,1089.00,752.00,1087.00,,,,,,,,,,,,0,0,0,,-2964,15888,1452,174,169,-151
15.127,15.03,-1.67,-7.05,6.87,-14.27,12.57,4.15,-5.53,5.24,-4.54,171.00,562.00,95.00,208.00,618.00,986.00,962.00,976.00,,,,,,,,,,,,0,0,0,,-2892,15972,1116,99,134,-199
15.189,15.09,-1.79,12.05,-13.75,27.20,-21.67,-4.09,-0.67,-4.92,1.08,369.00,459.00,285.00,101.00,552.00,1199.00,854.00,1255.00,,,,,,,,,,,,0,0,0,,-2960,15944,1316,-37,24,-206
15.292,15.14,-1.93,-7.81,-0.25,-16.16,0.60,-4.67,3.46,-3.55,3.67,255.00,701.00,188.00,309.00,446.00,1098.00,724.00,1109.00,,,,,,,,,,,,0,0,0,,-2912,15848,1424,-138,80,-186
15.312,15.20,-1.72,-8.80,8.92,-16.71,12.26,2.27,-4.74,3.32,-3.85,158.00,570.00,101.00,231.00,613.00,1040.00,960.00,1034.00,,,,,,,,,,,,0,0,0,,-3036,15836,1264,-100,125,-157
15.352,15.25,-1.74,7.48,-9.99,11.43,-12.40,-2.15,-1.22,-2.57,0.09,327.00,497.00,230.00,147.00,549.00,1127.00,863.00,1174.00,,,,,,,,,,,,0,0,0,,-2980,15828,1256,-85,86,-214
15.414,15.31,-1.84,-3.35,-1.82,-7.59,-1.98,-3.62,1.15,-2.52,1.62,256.00,613.00,185.00,236.00,496.00,1121.00,794.00,1125.00,,,,,,,,,,,,0,0,0,,-2908,16012,1304,-90,-33,-227
15.454,15.36,-1.83,-2.21,-1.32,-7.65,-0.94,-1.66,-0.63,-0.79,-0.33,244.00,578.00,175.00,230.00,527.00,1088.00,855.00,1107.00,,,,,,,,,,,,0,0,0,,-2960,15824,1324,-143,-110,-453
15.515,15.42,-1.70,-2.28,-0.76,-6.93,2.29,0.72,-3.14,0.70,-1.92,237.00,571.00,145.00,205.00,578.00,1059.00,907.00,1089.00,,,,,,,,,,,,0,0,0,,-2908,15940,1284,-129,-151,-501
15.576,15.47,-1.79,5.02,-9.10,11.90,-14.82,-3.50,-0.57,-3.57,0.76,326.00,535.00,260.00,154.00,543.00,1168.00,848.00,1200.00,,,,,,,,,,,,0,0,0,,-3004,15820,1376,-126,-213,-528
15.698,15.53,-1.89,-5.32,-0.65,-14.29,0.47,-3.79,2.48,-2.30,2.50,249.00,642.00,183.00,288.00,463.00,1089.00,754.00,1089.00,,,,,,,,,,,,0,0,0,,-3056,15996,1384,-190,-381,-707
15.719,15.58,-1.58,-7.42,7.54,-14.44,12.82,4.25,-5.26,5.34,-4.57,166.00,560.00,94.00,208.00,608.00,975.00,962.00,973.00,,,,,,,,,,,,0,0,0,,-3156,15952,1552,-400,-462,-869
15.739,15.64,-1.71,12.23,-13.87,26.53,-21.05,-4.19,-0.40,-4.78,1.07,370.00,457.00,279.00,102.00,545.00,1195.00,852.00,1248.00,,,,,,,,,,,,0,0,0,,-3236,15948,1476,-247,-567,-1028
15.78,15.69,-1.87,-7.61,0.05,-16.03,0.66,-4.91,3.92,-3.51,3.81,250.00,690.00,187.00,307.00,437.00,1095.00,718.00,1103.00,,,,,,,,,,,,0,0,0,,-3344,15924,1676,-398,-749,-1118
15.842,15.75,-1.64,-9.39,9.59,-18.11,14.66,2.71,-4.56,3.63,-3.92,154.00,573.00,91.00,229.00,602.00,1017.00,958.00,1023.00,,,,,,,,,,,,0,0,0,,-3512,15812,1680,-581,-800,-1118
15.903,15.80,-1.66,8.30,-10.21,12.04,-12.53,-2.03,-1.19,-2.07,-0.16,326.00,484.00,229.00,144.00,547.00,1121.00,867.00,1159.00,,,,,,,,,,,,0,0,0,,-3572,15796,1712,-857,-834,-954
15.943,15.86,-1.75,-3.73,-0.66,-5.10,-3.22,-3.42,1.42,-2.18,1.32,242.00,603.00,189.00,221.00,487.00,1104.00,802.00,1119.00,,,,,,,,,,,,0,0,0,,-3604,15664,1888,-1095,-915,-1040
16.067,15.91,-1.76,-2.58,-0.18,-8.08,0.52,-1.98,0.04,-0.52,-0.05,231.00,569.00,163.00,225.00,511.00,1082.00,838.00,1087.00,,,,,,,,,,,,0,0,0,,-3712,15624,2244,-1468,-786,-1034
16.087,15.97,-1.61,-1.37,-1.37,-6.06,1.38,1.24,-3.15,0.58,-1.47,241.00,560.00,150.00,203.00,573.00,1038.00,887.00,1081.00,,,,,,,,,,,,0,0,0,,-3892,15440,2288,-1760,-679,-911
16.128,16.02,-1.65,4.98,-8.98,11.02,-14.24,-2.42,-0.62,-3.72,0.83,324.00,534.00,256.00,157.00,534.00,1121.00,847.00,1205.00,,,,,,,,,,,,0,0,0,,-3972,15156,2368,-1944,-767,-568
16.191,16.08,-1.77,-5.96,-0.51,-11.60,-3.50,-4.02,2.96,-2.72,2.28,250.00,656.00,216.00,288.00,453.00,1085.00,769.00,1114.00,,,,,,,,,,,,0,0,0,,-3824,15048,2528,-2073,-850,-139
16.232,16.13,-1.46,-6.91,6.40,-17.01,16.44,4.42,-5.59,4.66,-4.36,175.00,566.00,81.00,209.00,617.00,977.00,963.00,994.00,,,,,,,,,,,,0,0,0,,-3704,15140,2992,-2382,-801,153
16.293,16.19,-1.60,12.65,-14.64,25.48,-21.28,-4.21,-0.39,-5.48,1.22,383.00,459.00,288.00,107.00,545.00,1196.00,856.00,1278.00,,,,,,,,,,,,0,0,0,,-3752,15296,3240,-2596,-581,72
16.355,16.24,-1.77,-7.85,-0.45,-17.40,1.72,-5.03,4.17,-3.89,3.61,258.00,706.00,181.00,315.00,432.00,1093.00,731.00,1126.00,,,,,,,,,,,,0,0,0,,-3760,15480,3684,-2801,-283,-46
16.395,16.30,-1.57,-7.96,6.65,-15.49,10.78,2.33,-4.18,2.98,-3.56,176.00,586.00,107.00,229.00,594.00,1022.00,951.00,1040.00,,,,,,,,,,,,0,0,0,,-3620,15136,3948,-2734,-126,-343
16.457,16.35,-1.58,8.34,-10.72,11.83,-12.21,-1.77,-1.08,-2.26,0.18,335.00,490.00,226.00,144.00,541.00,1106.00,854.00,1157.00,,,,,,,,,,,,0,0,0,,-3696,14968,4408,-2602,-98,-344
16.517,16.41,-1.64,-2.82,-2.00,-5.66,-3.22,-2.87,1.12,-2.30,1.66,256.00,603.00,191.00,226.00,490.00,1089.00,789.00,1114.00,,,,,,,,,,,,0,0,0,,-3548,14928,4464,-2291,47,-137
16.578,16.46,-1.65,-1.50,-1.25,-8.07,-0.48,-1.82,0.50,-0.50,-0.01,240.00,561.00,172.00,231.00,497.00,1062.00,836.00,1085.00,,,,,,,,,,,,0,0,0,,-3612,14840,4632,-1979,135,-186
16.639,16.52,-1.48,-1.30,-1.01,-6.56,2.30,1.76,-2.90,1.28,-1.66,236.00,553.00,144.00,202.00,560.00,1010.00,885.00,1057.00,,,,,,,,,,,,0,0,0,,-3692,15092,4728,-1844,37,-436
16.66,16.57,-1.58,5.30,-9.03,15.00,-16.63,-3.49,0.55,-3.48,1.03,323.00,528.00,271.00,143.00,511.00,1133.00,834.00,1187.00,,,,,,,,,,,,0,0,0,,-3692,14756,4948,-1580,-119,-575
16.722,16.63,-1.67,-5.29,-0.28,-14.58,1.29,-3.44,3.22,-2.20,2.56,244.00,635.00,176.00,285.00,442.00,1053.00,750.00,1083.00,,,,,,,,,,,,0,0,0,,-3728,14408,5488,-1582,-111,-145
16.804,16.68,-1.33,-7.32,7.74,-16.50,16.04,5.10,-5.55,5.14,-4.39,164.00,555.00,82.00,207.00,608.00,950.00,956.00,976.00,,,,,,,,,,,,0,0,0,,-3672,14524,5700,-1464,28,-26
16.825,16.74,-1.46,14.56,-15.29,29.26,-22.42,-3.84,0.07,-5.39,1.83,383.00,433.00,286.00,95.00,528.00,1164.00,827.00,1253.00,,,,,,,,,,,,0,0,0,,-3456,14588,5852,-1142,236,-76
16.886,16.79,-1.60,-7.55,-0.05,-16.91,2.07,-4.31,3.93,-3.49,3.75,251.00,690.00,176.00,306.00,432.00,1069.00,720.00,1104.00,,,,,,,,,,,,0,0,0,,-3632,14636,5700,-907,208,-282
16.948,16.85,-1.38,-7.34,6.97,-14.18,10.52,2.91,-3.97,3.38,-3.54,171.00,567.00,106.00,219.00,581.00,993.00,943.00,1023.00,,,,,,,,,,,,0,0,0,,-3600,14496,5740,-741,137,-298
17.009,16.90,-1.38,8.19,-9.88,11.77,-11.61,-1.54,-0.81,-2.02,-0.00,321.00,482.00,219.00,142.00,531.00,1088.00,859.00,1152.00,,,,,,,,,,,,0,0,0,,-3636,14388,5944,-676,21,-263
17.051,16.96,-1.45,-2.62,-1.93,-4.63,-3.57,-2.72,1.49,-2.73,1.67,254.00,597.00,191.00,219.00,479.00,1072.00,795.00,1133.00,,,,,,,,,,,,0,0,0,,-3692,14360,5888,-328,16,-305
17.132,17.01,-1.45,-2.15,-0.96,-7.13,-1.22,-1.48,0.35,-0.94,0.03,239.00,571.00,176.00,227.00,498.00,1052.00,841.00,1103.00,,,,,,,,,,,,0,0,0,,-3660,14380,5868,-397,-69,-290
17.153,17.07,-1.27,-1.05,-1.17,-6.02,2.24,2.16,-3.00,1.30,-1.63,237.00,550.00,143.00,198.00,559.00,997.00,883.00,1055.00,,,,,,,,,,,,0,0,0,,-3652,14332,6036,-509,-40,-306
17.215,17.12,-1.35,6.86,-9.66,13.72,-14.49,-2.85,0.34,-3.52,1.25,325.00,505.00,247.00,142.00,511.00,1111.00,825.00,1182.00,,,,,,,,,,,,0,0,0,,-3852,14096,6056,-275,105,-235
17.277,17.18,-1.45,-5.24,0.01,-13.59,1.17,-3.41,3.63,-1.91,2.51,240.00,629.00,174.00,275.00,432.00,1040.00,748.00,1072.00,,,,,,,,,,,,0,0,0,,-3768,14476,5924,-172,155,-252
17.34,17.23,-1.11,-7.25,8.17,-14.34,15.09,5.50,-5.22,5.54,-4.37,160.00,547.00,83.00,195.00,593.00,927.00,948.00,960.00,,,,,,,,,,,,0,0,0,,-3716,14444,6012,69,143,-109
17.399,17.29,-1.22,14.88,-15.15,32.31,-23.64,-3.40,0.13,-4.76,1.53,378.00,426.00,289.00,87.00,522.00,1142.00,831.00,1232.00,,,,,,,,,,,,0,0,0,,-3772,14360,6092,-62,71,-138
17.441,17.34,-1.37,-6.70,0.19,-15.64,1.44,-4.25,4.65,-3.08,3.69,244.00,663.00,178.00,296.00,415.00,1046.00,717.00,1088.00,,,,,,,,,,,,0,0,0,,-3648,14392,6312,-46,119,2
17.501,17.40,-1.14,-6.47,6.15,-13.57,10.31,3.21,-3.69,3.89,-3.56,176.00,560.00,106.00,215.00,569.00,974.00,935.00,1003.00,,,,,,,,,,,,0,0,0,,-3688,14368,6168,200,248,-47
17.563,17.45,-1.13,9.18,-9.93,13.83,-11.35,-0.93,-0.81,-2.03,0.24,316.00,464.00,208.00,130.00,525.00,1062.00,848.00,1145.00,,,,,,,,,,,,0,0,0,,-3716,14416,5872,251,197,-119
17.625,17.51,-1.19,-1.92,-1.94,-3.44,-3.58,-2.30,1.42,-1.88,1.40,251.00,581.00,187.00,209.00,477.00,1056.00,794.00,1103.00,,,,,,,,,,,,0,0,0,,-3660,14392,5624,240,87,-186
17.666,17.56,-1.19,-1.44,-1.27,-5.02,-1.61,-1.27,0.54,-0.53,0.31,240.00,560.00,173.00,211.00,491.00,1038.00,822.00,1077.00,,,,,,,,,,,,0,0,0,,-3688,14512,5720,62,-11,-216
17.727,17.62,-1.03,-0.95,-1.05,-6.84,3.44,2.08,-2.81,1.38,-1.74,235.00,546.00,136.00,198.00,554.00,995.00,887.00,1055.00,,,,,,,,,,,,0,0,0,,-3628,14288,5964,94,44,-173
17.789,17.67,-1.11,6.39,-9.33,12.02,-13.77,-2.61,-0.21,-3.76,1.26,322.00,510.00,245.00,149.00,524.00,1117.00,828.00,1193.00,,,,,,,,,,,,0,0,0,,-3796,14572,5900,198,230,-84
17.871,17.73,-1.23,-5.09,-0.05,-13.17,0.81,-3.59,3.69,-2.33,2.68,240.00,626.00,176.00,273.00,432.00,1046.00,747.00,1085.00,,,,,,,,,,,,0,0,0,,-3780,14456,5756,215,213,-116
17.891,17.78,-0.91,-8.67,10.34,-8.51,4.98,5.33,-5.13,5.66,-4.58,146.00,546.00,129.00,203.00,592.00,931.00,957.00,961.00,,,,,,,,,,,,0,0,0,,-3620,14580,5868,152,191,-11
17.952,17.84,-1.04,15.50,-15.36,32.96,-23.73,-3.60,0.16,-5.03,1.85,378.00,418.00,287.00,85.00,523.00,1150.00,821.00,1235.00,,,,,,,,,,,,0,0,0,,-3604,14488,5692,152,207,-143
17.974,17.89,-1.20,-8.50,3.13,-14.92,1.40,-4.16,4.49,-3.19,3.65,215.00,658.00,176.00,288.00,418.00,1047.00,720.00,1094.00,,,,,,,,,,,,0,0,0,,-3632,14404,5684,225,151,-65
18.036,17.95,-0.98,-6.47,6.15,-15.74,10.19,3.17,-3.70,3.37,-2.98,176.00,560.00,111.00,235.00,570.00,976.00,915.00,1008.00,,,,,,,,,,,,0,0,0,,-3628,14520,5672,230,143,-230
18.118,18.00,-0.99,9.30,-10.02,14.16,-11.55,-1.24,-0.20,-1.59,0.11,317.00,463.00,209.00,129.00,511.00,1058.00,847.00,1129.00,,,,,,,,,,,,0,0,0,,-3544,14524,5660,56,112,-89
18.139,18.06,-1.06,-1.51,-2.15,-3.60,-3.52,-2.36,1.41,-1.91,1.48,252.00,575.00,187.00,210.00,478.00,1059.00,791.00,1102.00,,,,,,,,,,,,0,0,0,,-3628,14432,5592,192,189,-109
18.241,18.11,-1.09,-0.94,-1.21,-6.34,-0.18,-1.66,0.98,-0.52,0.15,237.00,548.00,164.00,214.00,483.00,1042.00,829.00,1081.00,,,,,,,,,,,,0,0,0,,-3588,14656,5604,241,226,-80
18.261,18.17,-0.91,-0.99,-0.23,-5.71,2.93,2.51,-3.16,1.82,-2.07,225.00,535.00,137.00,192.00,560.00,987.00,896.00,1046.00,,,,,,,,,,,,0,0,0,,-3580,14564,5588,259,183,-172
18.343,18.22,-1.01,6.67,-9.32,13.00,-13.95,-2.82,0.47,-3.43,1.01,320.00,504.00,243.00,144.00,507.00,1106.00,834.00,1185.00,,,,,,,,,,,,0,0,0,,-3552,14636,5456,179,100,-68
18.364,18.28,-1.14,-5.35,0.04,-13.17,0.81,-3.59,3.69,-1.49,2.27,240.00,631.00,176.00,273.00,432.00,1046.00,752.00,1061.00,,,,,,,,,,,,0,0,0,,-3728,14464,5456,37,150,-75
18.425,18.33,-0.83,-8.25,9.57,-16.87,18.06,4.89,-5.05,5.54,-4.60,151.00,548.00,74.00,199.00,594.00,945.00,960.00,966.00,,,,,,,,,,,,0,0,0,,-3648,14460,5416,8,235,-92
18.486,18.39,-0.98,14.68,-15.37,32.50,-23.06,-3.85,0.14,-5.13,1.32,384.00,432.00,279.00,85.00,526.00,1162.00,846.00,1257.00,,,,,,,,,,,,0,0,0,,-3740,14692,5416,55,182,-148
18.526,18.44,-1.15,-6.42,0.17,-15.93,1.74,-4.37,4.51,-3.36,3.55,243.00,656.00,176.00,297.00,419.00,1055.00,726.00,1104.00,,,,,,,,,,,,0,0,0,,-3508,14532,5280,-57,64,-120
18.63,18.50,-0.94,-6.59,6.18,-12.54,8.78,3.20,-3.72,3.50,-3.17,176.00,562.00,113.00,215.00,570.00,975.00,922.00,1008.00,,,,,,,,,,,,0,0,0,,-3608,14572,5404,-120,62,-225
18.652,18.55,-0.94,8.71,-9.23,13.65,-11.38,-0.96,-0.94,-1.88,0.34,307.00,464.00,209.00,131.00,529.00,1067.00,841.00,1135.00,,,,,,,,,,,,0,0,0,,-3712,14760,5544,86,149,-137
18.692,18.61,-0.99,-2.23,-1.16,-2.48,-4.10,-1.99,0.82,-1.73,1.19,242.00,576.00,189.00,204.00,490.00,1060.00,801.00,1103.00,,,,,,,,,,,,0,0,0,,-3640,14684,5272,155,156,-12
18.752,18.66,-0.99,-1.85,-0.67,-7.50,0.32,-1.06,0.78,-0.59,0.46,234.00,560.00,163.00,221.00,483.00,1023.00,816.00,1075.00,,,,,,,,,,,,0,0,0,,-3612,14628,5360,-5,158,-273
18.813,18.72,-0.81,-0.73,-0.49,-7.44,4.34,2.59,-3.38,1.94,-1.97,227.00,533.00,131.00,198.00,566.00,990.00,889.00,1038.00,,,,,,,,,,,,0,0,0,,-3680,14536,5336,-31,90,-182
18.874,18.77,-0.92,7.20,-9.49,15.05,-14.56,-3.03,0.54,-3.41,1.12,320.00,496.00,242.00,135.00,507.00,1113.00,829.00,1181.00,,,,,,,,,,,,0,0,0,,-3776,14612,5252,5,99,-156
18.916,18.83,-1.07,-5.34,0.27,-13.61,1.60,-3.75,3.74,-2.72,3.16,237.00,627.00,170.00,272.00,432.00,1051.00,733.00,1088.00,,,,,,,,,,,,0,0,0,,-3664,14632,5448,55,155,-201
18.979,18.88,-0.76,-9.19,10.77,-15.35,16.57,5.05,-5.32,5.60,-4.48,144.00,551.00,78.00,195.00,601.00,946.00,953.00,961.00,,,,,,,,,,,,0,0,0,,-3708,14572,5360,58,104,-164
19.04,18.94,-0.92,14.67,-14.94,34.65,-24.43,-3.94,0.28,-4.71,1.34,375.00,427.00,289.00,81.00,523.00,1162.00,839.00,1236.00,,,,,,,,,,,,0,0,0,,-3748,14668,5368,-60,75,-181
19.081,18.99,-1.12,-6.44,0.03,-13.83,0.32,-4.89,4.69,-3.65,3.78,245.00,659.00,183.00,284.00,419.00,1072.00,721.00,1110.00,,,,,,,,,,,,0,0,0,,-3632,14632,5436,-130,120,-132
19.143,19.05,-0.93,-7.20,6.50,-20.23,19.44,2.69,-3.61,2.96,-2.93,175.00,571.00,73.00,219.00,572.00,992.00,919.00,1023.00,,,,,,,,,,,,0,0,0,,-3644,14616,5380,-135,125,-165
19.206,19.10,-0.94,8.17,-9.23,10.48,-10.23,-1.14,-0.81,-2.23,0.37,310.00,474.00,208.00,144.00,527.00,1071.00,845.00,1150.00,,,,,,,,,,,,0,0,0,,-3604,14832,5248,-87,118,-153
19.265,19.16,-0.99,-1.06,-2.88,-2.07,-4.33,-1.94,0.51,-1.93,0.92,260.00,576.00,190.00,202.00,498.00,1067.00,816.00,1120.00,,,,,,,,,,,,0,0,0,,-3720,14564,5296,-269,23,-209
19.348,19.21,-1.03,-1.72,-0.79,-6.42,-0.92,-1.81,1.37,-0.68,0.49,235.00,559.00,171.00,219.00,474.00,1037.00,816.00,1078.00,,,,,,,,,,,,0,0,0,,-3668,14520,5380,-298,15,-286
19.368,19.27,-0.84,-1.88,0.74,-7.37,5.18,2.73,-3.59,2.38,-2.51,217.00,540.00,125.00,193.00,571.00,990.00,908.00,1035.00,,,,,,,,,,,,0,0,0,,-3688,14660,5388,-78,113,-268
19.43,19.32,-0.95,7.36,-9.43,17.12,-15.63,-3.08,0.49,-3.30,1.02,318.00,492.00,247.00,128.00,509.00,1117.00,832.00,1179.00,,,,,,,,,,,,0,0,0,,-3584,14524,5316,-61,115,-220
19.472,19.38,-1.09,-5.12,0.12,-12.93,0.73,-3.76,3.83,-1.86,2.90,238.00,624.00,176.00,271.00,430.00,1049.00,732.00,1059.00,,,,,,,,,,,,0,0,0,,-3692,14832,5288,-215,59,-451
19.534,19.43,-0.75,-8.23,10.44,-17.65,20.15,5.78,-5.96,6.18,-4.91,144.00,535.00,67.00,194.00,614.00,935.00,965.00,950.00,,,,,,,,,,,,0,0,0,,-3832,14436,5412,-558,-92,-405
19.616,19.49,-0.89,15.46,-15.30,35.83,-24.76,-3.57,0.15,-4.50,1.42,377.00,418.00,288.00,78.00,523.00,1149.00,832.00,1223.00,,,,,,,,,,,,0,0,0,,-3700,14416,5680,-369,-129,-229
19.637,19.54,-1.05,-5.68,-0.23,-7.73,-1.94,-3.97,3.82,-3.20,3.63,245.00,644.00,185.00,237.00,432.00,1058.00,721.00,1095.00,,,,,,,,,,,,0,0,0,,-3648,14632,5844,-38,116,-154
19.719,19.60,-0.85,-6.37,5.80,-12.53,8.94,2.77,-3.31,3.57,-3.13,179.00,563.00,112.00,214.00,562.00,981.00,919.00,1004.00,,,,,,,,,,,,0,0,0,,-3648,14488,5508,16,185,-193
19.738,19.65,-0.87,8.66,-9.16,11.44,-8.68,-1.11,-0.89,-1.62,0.12,306.00,464.00,188.00,133.00,529.00,1072.00,847.00,1130.00,,,,,,,,,,,,0,0,0,,-3744,14528,5696,37,137,-174
19.801,19.71,-0.92,-0.65,-2.44,0.10,-5.45,-1.92,0.13,-1.68,0.47,252.00,560.00,194.00,191.00,508.00,1077.00,832.00,1122.00,,,,,,,,,,,,0,0,0,,-3780,14612,5440,31,70,-185
19.861,19.76,-0.96,-1.62,-1.21,-7.69,-0.39,-1.77,0.83,-1.04,0.57,240.00,563.00,170.00,227.00,488.00,1051.00,818.00,1091.00,,,,,,,,,,,,0,0,0,,-3676,14572,5228,-184,11,-310
19.901,19.82,-0.76,-1.74,0.18,-7.20,5.12,3.00,-4.28,2.32,-2.95,223.00,545.00,125.00,192.00,590.00,998.00,931.00,1050.00,,,,,,,,,,,,0,0,0,,-3792,14612,5476,-292,-89,-294
19.963,19.87,-0.91,7.29,-9.41,16.56,-15.67,-3.66,0.61,-3.97,1.20,318.00,493.00,250.00,131.00,511.00,1139.00,834.00,1205.00,,,,,,,,,,,,0,0,0,,-3760,14480,5556,-320,-52,-77
20.025,19.93,-1.06,-5.32,-0.35,-13.65,0.97,-4.02,3.75,-2.71,2.93,245.00,637.00,176.00,277.00,434.00,1062.00,742.00,1094.00,,,,,,,,,,,,0,0,0,,-3776,14708,5720,-286,44,-335
20.086,19.98,-0.73,-8.78,10.63,-16.93,18.33,5.68,-6.25,6.10,-5.19,144.00,544.00,73.00,198.00,625.00,946.00,981.00,960.00,,,,,,,,,,,,0,0,0,,-3680,14500,5636,-307,113,-217
20.127,20.04,-0.85,15.66,-15.51,31.17,-22.81,-3.24,-0.24,-4.51,1.40,380.00,417.00,282.00,89.00,531.00,1146.00,833.00,1224.00,,,,,,,,,,,,0,0,0,,-3592,14348,5844,-27,100,-108
20.19,20.09,-0.99,-6.31,0.75,-13.45,1.23,-3.61,2.94,-2.99,3.08,235.00,643.00,173.00,273.00,450.00,1068.00,740.00,1102.00,,,,,,,,,,,,0,0,0,,-3720,14504,5556,50,118,-236
20.251,20.15,-0.81,-6.06,6.01,-11.60,8.63,2.58,-3.18,3.50,-2.94,176.00,553.00,112.00,208.00,560.00,985.00,911.00,1002.00,,,,,,,,,,,,0,0,0,,-3888,14608,5564,-90,91,-159
20.312,20.20,-0.81,8.06,-8.28,11.23,-9.48,-0.81,-1.33,-1.15,-0.04,295.00,464.00,197.00,137.00,539.00,1072.00,847.00,1114.00,,,,,,,,,,,,0,0,0,,-3676,14528,5676,-236,56,-311
20.352,20.26,-0.87,0.14,-3.00,2.33,-6.10,-1.95,0.03,-1.38,0.44,256.00,551.00,193.00,178.00,511.00,1081.00,829.00,1110.00,,,,,,,,,,,,0,0,0,,-3684,14452,5996,-68,93,-240
20.455,20.31,-0.93,-1.91,-0.65,-6.29,-1.29,-2.11,1.32,-1.03,0.84,234.00,561.00,174.00,220.00,478.00,1051.00,806.00,1083.00,,,,,,,,,,,,0,0,0,,-3760,14560,5660,9,226,-159
20.475,20.37,-0.75,-2.27,1.65,-7.54,6.62,2.65,-3.91,2.56,-2.95,208.00,535.00,116.00,187.00,582.00,1002.00,927.00,1040.00,,,,,,,,,,,,0,0,0,,-3788,14576,5548,123,158,-286
20.537,20.42,-0.87,6.87,-9.38,18.43,-16.07,-3.20,0.03,-4.05,1.49,320.00,501.00,247.00,123.00,523.00,1136.00,822.00,1199.00,,,,,,,,,,,,0,0,0,,-3952,14416,5540,7,246,52
20.577,20.48,-1.04,-6.05,0.67,-14.23,1.70,-4.13,3.91,-2.72,3.16,235.00,638.00,171.00,278.00,431.00,1062.00,733.00,1088.00,,,,,,,,,,,,0,0,0,,-3860,14480,5496,-16,427,137
20.618,20.53,-0.70,-8.96,10.69,-18.26,19.55,5.65,-6.47,6.39,-5.62,144.00,547.00,70.00,202.00,633.00,953.00,999.00,960.00,,,,,,,,,,,,0,0,0,,-3804,14676,5320,-17,361,-2
20.679,20.59,-0.85,14.85,-15.19,30.73,-22.98,-3.59,-0.02,-4.51,1.16,379.00,427.00,287.00,91.00,528.00,1155.00,844.00,1232.00,,,,,,,,,,,,0,0,0,,-3688,14612,5420,-3,89,-149
20.742,20.64,-1.00,-5.80,-0.85,-12.90,-0.40,-3.87,2.62,-3.06,2.34,254.00,658.00,187.00,279.00,460.00,1088.00,771.00,1127.00,,,,,,,,,,,,0,0,0,,-3692,14512,5512,-47,-54,-220
20.822,20.70,-0.85,-6.40,5.91,-11.48,8.10,2.02,-2.99,2.65,-2.76,178.00,562.00,115.00,210.00,560.00,1002.00,916.00,1031.00,,,,,,,,,,,,0,0,0,,-3660,14320,5484,67,71,-304
20.842,20.75,-0.87,7.33,-8.47,10.32,-9.99,-1.36,-1.08,-1.71,0.02,302.00,480.00,206.00,144.00,537.00,1088.00,853.00,1137.00,,,,,,,,,,,,0,0,0,,-3716,14684,5376,178,135,-267
20.904,20.81,-0.94,-0.52,-2.70,2.93,-6.78,-2.28,0.15,-1.75,0.54,255.00,561.00,198.00,177.00,511.00,1092.00,830.00,1123.00,,,,,,,,,,,,0,0,0,,-3772,14592,5568,-34,109,-271
20.944,20.86,-1.01,-1.50,-1.25,-6.77,-0.91,-2.20,1.31,-0.82,0.84,240.00,561.00,172.00,222.00,479.00,1055.00,803.00,1074.00,,,,,,,,,,,,0,0,0,,-3780,14340,5536,-16,99,-317
21.005,20.92,-0.81,-1.96,1.54,-7.59,5.70,2.89,-4.28,3.22,-3.31,208.00,530.00,122.00,192.00,591.00,1002.00,934.00,1023.00,,,,,,,,,,,,0,0,0,,-3868,14468,5600,743,357,224
21.065,20.97,-0.95,9.63,-10.60,20.36,-16.42,-3.61,0.63,-3.71,1.18,325.00,464.00,243.00,115.00,510.00,1136.00,831.00,1193.00,,,,,,,,,,,,0,0,0,,-3680,14508,5256,536,322,119
21.126,21.03,-1.13,-5.21,-0.16,-14.14,1.04,-4.53,4.22,-2.81,3.39,242.00,631.00,177.00,282.00,427.00,1070.00,725.00,1085.00,,,,,,,,,,,,0,0,0,,-3776,14636,5092,73,81,-63
21.207,21.08,-0.79,-9.89,12.75,-18.39,20.68,5.65,-6.24,7.28,-6.89,131.00,537.00,66.00,197.00,625.00,947.00,1053.00,959.00,,,,,,,,,,,,0,0,0,,-3764,14716,5264,-284,-30,-73
21.227,21.14,-0.91,14.62,-14.77,32.50,-23.06,-3.26,-0.30,-4.18,1.22,372.00,426.00,279.00,85.00,533.00,1149.00,836.00,1214.00,,,,,,,,,,,,0,0,0,,-3732,14728,5412,-140,69,-191
21.289,21.19,-1.07,-5.62,-0.84,-11.76,-1.27,-4.00,2.75,-2.87,2.40,253.00,653.00,192.00,273.00,458.00,1090.00,766.00,1117.00,,,,,,,,,,,,0,0,0,,-3780,14668,5172,-5,96,-278
21.329,21.25,-0.92,-5.88,5.95,-10.75,7.38,1.80,-2.82,3.19,-2.82,176.00,550.00,118.00,208.00,557.00,1006.00,910.00,1011.00,,,,,,,,,,,,0,0,0,,-3848,14692,5348,-101,18,-323
21.391,21.30,-0.91,6.90,-7.83,9.43,-8.68,-0.63,-1.60,-1.28,-0.14,294.00,480.00,195.00,144.00,545.00,1072.00,854.00,1123.00,,,,,,,,,,,,0,0,0,,-3792,14648,5344,-20,21,-266
21.453,21.36,-0.97,0.21,-3.38,3.91,-8.02,-2.16,0.11,-2.18,0.68,261.00,555.00,208.00,176.00,511.00,1088.00,830.00,1138.00,,,,,,,,,,,,0,0,0,,-3880,14636,5328,-40,111,-159
21.554,21.41,-1.06,-2.23,-1.16,-8.41,-0.15,-2.73,1.53,-1.68,1.24,242.00,576.00,170.00,232.00,478.00,1071.00,798.00,1099.00,,,,,,,,,,,,0,0,0,,-3856,14564,5284,-8,254,-77
21.574,21.47,-0.88,-2.96,1.70,-6.64,4.50,2.63,-4.19,2.27,-3.09,210.00,549.00,128.00,191.00,591.00,1010.00,939.00,1056.00,,,,,,,,,,,,0,0,0,,-3676,14420,5176,26,238,-95
21.615,21.52,-1.02,8.96,-10.71,21.95,-17.77,-3.68,0.12,-4.38,1.18,331.00,478.00,254.00,112.00,525.00,1155.00,841.00,1225.00,,,,,,,,,,,,0,0,0,,-3652,14736,5172,17,137,-102
21.677,21.58,-1.19,-5.46,-0.38,-12.84,0.18,-4.47,4.07,-3.11,3.50,246.00,641.00,181.00,274.00,430.00,1072.00,725.00,1095.00,,,,,,,,,,,,0,0,0,,-3688,14628,5456,-158,57,-127
21.72,21.63,-0.85,-9.30,11.06,-18.19,19.27,5.68,-6.28,6.44,-5.45,142.00,549.00,71.00,203.00,626.00,947.00,989.00,954.00,,,,,,,,,,,,0,0,0,,-3812,14628,5324,-44,157,-102
21.78,21.69,-0.97,14.37,-14.48,22.51,-18.61,-3.26,-0.34,-3.94,0.97,368.00,427.00,263.00,112.00,534.00,1150.00,844.00,1211.00,,,,,,,,,,,,0,0,0,,-3608,14732,5292,-24,175,-226
21.842,21.74,-1.12,-5.29,-1.39,-10.45,-2.37,-3.98,2.86,-2.42,2.20,259.00,654.00,199.00,267.00,455.00,1086.00,768.00,1103.00,,,,,,,,,,,,0,0,0,,-3788,14652,5188,104,178,-120
21.925,21.80,-0.98,-5.88,5.95,-11.88,9.23,1.72,-2.69,3.07,-2.54,176.00,550.00,109.00,207.00,554.00,1006.00,898.00,1008.00,,,,,,,,,,,,0,0,0,,-3804,14580,5128,31,78,-166
21.946,21.85,-0.93,6.22,-7.60,7.98,-7.81,0.01,-1.98,-0.62,-0.39,294.00,490.00,191.00,149.00,550.00,1056.00,855.00,1101.00,,,,,,,,,,,,0,0,0,,-3764,14732,5356,-2,60,-198
22.008,21.91,-0.99,0.38,-3.15,1.68,-5.98,-2.16,0.11,-2.01,0.56,257.00,548.00,194.00,182.00,511.00,1088.00,833.00,1134.00,,,,,,,,,,,,0,0,0,,-3760,14768,5272,30,111,-144
22.071,21.96,-1.05,-2.57,-0.66,-8.98,1.52,-2.17,0.81,-1.30,1.16,237.00,576.00,157.00,227.00,492.00,1068.00,796.00,1085.00,,,,,,,,,,,,0,0,0,,-3692,14740,5168,73,139,-253
22.112,22.02,-0.90,-2.61,1.94,-8.95,7.91,1.92,-3.02,3.20,-3.29,206.00,538.00,111.00,191.00,562.00,1007.00,933.00,1023.00,,,,,,,,,,,,0,0,0,,-3672,14716,5120,73,55,-258
22.173,22.07,-1.02,9.54,-11.01,21.85,-17.96,-3.33,-0.14,-4.01,0.97,333.00,471.00,257.00,113.00,529.00,1147.00,845.00,1214.00,,,,,,,,,,,,0,0,0,,-3748,14692,5184,175,99,-287
22.296,22.13,-1.19,-6.24,0.19,-13.44,0.80,-4.47,4.07,-3.47,3.72,242.00,651.00,177.00,276.00,430.00,1072.00,721.00,1104.00,,,,,,,,,,,,0,0,0,,-3752,14812,5084,123,186,-234
22.318,22.18,-0.86,-9.65,11.31,-19.15,19.59,5.41,-6.28,5.76,-5.30,141.00,553.00,71.00,209.00,629.00,957.00,993.00,976.00,,,,,,,,,,,,0,0,0,,-3804,14800,5028,106,165,-346
22.338,22.24,-1.00,13.35,-14.69,25.23,-20.21,-3.52,-0.22,-4.32,0.94,379.00,447.00,273.00,105.00,533.00,1158.00,851.00,1230.00,,,,,,,,,,,,0,0,0,,-3840,14772,5000,165,136,-84
22.378,22.29,-1.13,-4.89,-1.80,-10.82,-2.24,-3.62,2.26,-2.94,2.40,263.00,651.00,199.00,270.00,467.00,1088.00,767.00,1120.00,,,,,,,,,,,,0,0,0,,-3812,14584,5096,42,126,-190
22.461,22.35,-1.00,-5.91,6.06,-11.01,7.95,1.44,-2.46,2.91,-2.48,175.00,549.00,115.00,207.00,550.00,1011.00,898.00,1013.00,,,,,,,,,,,,0,0,0,,-3704,14712,5332,9,168,-105
22.503,22.40,-0.96,5.34,-6.60,6.17,-6.61,-0.23,-1.60,-0.31,-0.47,283.00,494.00,185.00,155.00,541.00,1055.00,854.00,1090.00,,,,,,,,,,,,0,0,0,,-3660,14712,4996,126,254,-53
22.542,22.46,-1.02,0.48,-2.75,2.97,-6.41,-2.16,0.11,-1.61,0.47,251.00,540.00,194.00,175.00,511.00,1088.00,831.00,1119.00,,,,,,,,,,,,0,0,0,,-3788,14604,4928,101,201,-76
22.643,22.51,-1.10,-2.37,-0.88,-8.82,-0.65,-2.63,1.81,-1.45,1.49,239.00,575.00,176.00,239.00,470.00,1059.00,784.00,1082.00,,,,,,,,,,,,0,0,0,,-3740,14908,4764,102,240,-167
22.663,22.57,-0.89,-2.99,1.89,-7.57,5.10,3.12,-4.39,3.61,-3.52,208.00,547.00,126.00,195.00,592.00,996.00,938.00,1013.00,,,,,,,,,,,,0,0,0,,-3900,14788,4908,97,216,-138
22.705,22.62,-1.01,9.93,-11.03,21.95,-17.77,-3.31,-0.01,-3.71,1.00,331.00,464.00,254.00,112.00,525.00,1142.00,839.00,1199.00,,,,,,,,,,,,0,0,0,,-3692,14760,4900,54,116,-112
22.765,22.68,-1.22,-6.12,0.30,-13.88,1.05,-5.15,5.13,-3.01,3.61,240.00,646.00,176.00,279.00,411.00,1070.00,719.00,1087.00,,,,,,,,,,,,0,0,0,,-3832,14800,4812,185,149,-162
22.826,22.73,-0.89,-10.92,13.38,-17.48,20.10,5.38,-6.12,5.95,-5.15,129.00,550.00,67.00,193.00,624.00,954.00,982.00,965.00,,,,,,,,,,,,0,0,0,,-3728,14836,4812,98,146,-204
22.888,22.79,-1.01,12.57,-13.63,26.32,-20.37,-3.41,-0.18,-3.92,0.87,363.00,448.00,270.00,101.00,531.00,1152.00,848.00,1213.00,,,,,,,,,,,,0,0,0,,-3752,14780,4620,0,119,-186
22.928,22.84,-1.14,-4.03,-2.37,-7.58,-3.70,-3.45,2.32,-2.76,2.43,267.00,639.00,203.00,247.00,464.00,1079.00,763.00,1111.00,,,,,,,,,,,,0,0,0,,-3840,14804,4820,-110,153,-128
23.011,22.90,-1.01,-6.47,6.15,-11.60,8.63,1.33,-2.56,2.06,-2.03,176.00,560.00,112.00,208.00,554.00,1018.00,890.00,1035.00,,,,,,,,,,,,0,0,0,,-3828,14956,4660,-228,166,-73
23.053,22.95,-0.98,3.46,-6.10,1.38,-4.29,-0.45,-1.66,-0.90,-0.38,285.00,525.00,178.00,176.00,545.00,1066.00,859.00,1113.00,,,,,,,,,,,,0,0,0,,-3748,14788,4840,-185,106,-47
23.093,23.01,-1.05,0.70,-3.82,3.84,-7.27,-2.29,-0.28,-1.95,0.41,265.00,551.00,200.00,173.00,523.00,1105.00,839.00,1136.00,,,,,,,,,,,,0,0,0,,-3740,14704,4852,-112,161,-56
23.154,23.06,-1.15,-3.86,-0.46,-7.97,-4.02,-2.99,2.13,-1.56,1.27,240.00,603.00,208.00,253.00,465.00,1065.00,795.00,1093.00,,,,,,,,,,,,0,0,0,,-3648,15056,4760,-83,155,-167
23.236,23.12,-0.90,-3.64,2.38,-8.63,5.90,3.68,-4.73,4.00,-3.65,205.00,554.00,123.00,199.00,597.00,983.00,938.00,1001.00,,,,,,,,,,,,0,0,0,,-3624,14844,4800,-186,126,-148
23.296,23.17,-1.02,10.03,-11.18,19.36,-12.95,-3.27,-0.12,-3.81,1.21,333.00,464.00,205.00,109.00,528.00,1144.00,831.00,1197.00,,,,,,,,,,,,0,0,0,,-3684,14700,4772,-178,82,-131
23.317,23.23,-1.25,-6.62,0.47,-15.60,1.63,-5.47,5.79,-2.95,3.59,240.00,656.00,176.00,294.00,399.00,1065.00,719.00,1085.00,,,,,,,,,,,,0,0,0,,-3776,14804,4828,-124,120,-178
23.379,23.28,-0.91,-9.88,12.19,-21.24,23.40,5.49,-6.01,6.24,-5.16,135.00,545.00,60.00,205.00,619.00,947.00,977.00,954.00,,,,,,,,,,,,0,0,0,,-3792,14836,4880,-70,141,-88
23.44,23.34,-0.99,12.63,-13.29,22.20,-18.15,-2.62,-0.83,-3.63,0.84,356.00,443.00,258.00,112.00,542.00,1136.00,845.00,1200.00,,,,,,,,,,,,0,0,0,,-3760,14836,4812,-130,131,-143
23.502,23.39,-1.11,-3.81,-1.81,-7.68,-2.64,-3.35,2.49,-2.63,2.51,258.00,624.00,192.00,241.00,459.00,1070.00,758.00,1103.00,,,,,,,,,,,,0,0,0,,-3820,14876,5036,-104,111,-68
23.563,23.45,-1.00,-6.22,6.38,-10.48,8.25,1.08,-1.83,2.22,-1.69,173.00,551.00,112.00,201.00,535.00,1008.00,871.00,1019.00,,,,,,,,,,,,0,0,0,,-3612,14848,4816,3,119,-162
23.624,23.50,-0.93,1.78,-4.46,-1.13,-3.24,0.43,-1.92,0.43,-0.93,269.00,537.00,176.00,189.00,544.00,1037.00,864.00,1072.00,,,,,,,,,,,,0,0,0,,-3640,14780,4708,103,76,-230
23.645,23.56,-0.98,1.41,-3.78,6.23,-7.41,-1.96,-0.50,-2.06,0.58,261.00,535.00,193.00,158.00,526.00,1097.00,833.00,1136.00,,,,,,,,,,,,0,0,0,,-3816,14812,4876,-15,68,-232
23.704,23.61,-1.09,-5.60,0.83,-12.26,0.72,-3.20,2.20,-1.43,1.39,231.00,624.00,174.00,264.00,465.00,1072.00,788.00,1084.00,,,,,,,,,,,,0,0,0,,-3744,14904,4956,-142,78,-240
23.788,23.67,-0.83,-4.31,3.43,-10.41,8.90,4.25,-5.41,3.93,-3.73,196.00,553.00,108.00,197.00,613.00,979.00,943.00,1006.00,,,,,,,,,,,,0,0,0,,-3704,14760,4928,-168,118,-197
23.809,23.72,-0.97,10.10,-11.20,22.47,-17.88,-3.69,0.33,-4.08,1.17,333.00,463.00,253.00,110.00,519.00,1149.00,837.00,1211.00,,,,,,,,,,,,0,0,0,,-3664,14780,4928,-216,111,-202
23.872,23.78,-1.17,-7.75,0.47,-16.69,2.00,-4.97,4.45,-3.49,3.75,245.00,686.00,176.00,304.00,425.00,1082.00,720.00,1104.00,,,,,,,,,,,,0,0,0,,-3768,14864,4812,-190,72,-32
23.914,23.83,-0.90,-11.63,13.76,-20.36,21.91,4.32,-5.41,5.37,-4.85,128.00,560.00,64.00,206.00,612.00,976.00,976.00,979.00,,,,,,,,,,,,0,0,0,,-3728,14728,4872,-96,121,-92
23.977,23.89,-0.99,9.98,-12.45,16.62,-15.76,-2.73,-0.75,-3.15,0.14,357.00,481.00,251.00,131.00,541.00,1139.00,870.00,1200.00,,,,,,,,,,,,0,0,0,,-3656,14924,4824,-134,156,-258
24.039,23.94,-1.13,-3.62,-2.09,-8.56,-1.95,-3.75,2.66,-2.60,2.40,261.00,624.00,188.00,245.00,458.00,1082.00,762.00,1105.00,,,,,,,,,,,,0,0,0,,-3676,14796,5000,-134,103,-157
24.12,24.00,-1.03,-6.38,6.01,-11.92,8.58,0.69,-1.80,1.52,-1.45,177.00,560.00,113.00,211.00,538.00,1023.00,871.00,1041.00,,,,,,,,,,,,0,0,0,,-3792,14728,5048,-119,87,-200
24.141,24.05,-0.98,0.97,-2.91,-3.43,-0.23,0.15,-1.62,0.22,-0.63,251.00,532.00,156.00,191.00,538.00,1040.00,853.00,1072.00,,,,,,,,,,,,0,0,0,,-3668,14856,4984,70,151,-217
24.202,24.11,-1.06,3.04,-4.47,6.35,-7.83,-2.70,0.36,-2.12,0.73,263.00,511.00,197.00,159.00,509.00,1104.00,827.00,1134.00,,,,,,,,,,,,0,0,0,,-3788,14732,4844,91,83,-190
24.262,24.16,-1.14,-5.39,0.52,-17.97,8.17,-2.72,2.07,-1.31,1.56,234.00,624.00,129.00,271.00,464.00,1055.00,779.00,1074.00,,,,,,,,,,,,0,0,0,,-3688,14772,4976,-50,27,-282
24.303,24.22,-0.89,-4.30,4.29,-12.32,11.72,3.92,-4.81,4.50,-3.94,187.00,540.00,96.00,197.00,597.00,976.00,944.00,989.00,,,,,,,,,,,,0,0,0,,-3776,14792,4964,-143,68,-176
24.385,24.27,-1.02,11.18,-11.57,24.43,-18.32,-3.53,0.03,-4.01,1.26,333.00,448.00,250.00,103.00,526.00,1151.00,832.00,1205.00,,,,,,,,,,,,0,0,0,,-3752,14728,4900,-69,113,-197
24.445,24.33,-1.23,-8.00,1.17,-16.91,2.07,-5.13,5.04,-3.63,4.29,237.00,680.00,176.00,306.00,413.00,1072.00,701.00,1094.00,,,,,,,,,,,,0,0,0,,-3832,14868,4888,27,90,-230
24.486,24.38,-0.95,-11.03,13.27,-18.64,21.05,4.39,-5.12,5.53,-4.69,130.00,554.00,65.00,197.00,602.00,966.00,965.00,969.00,,,,,,,,,,,,0,0,0,,-3736,14884,4792,-18,75,-193
24.549,24.44,-1.00,9.68,-12.09,15.07,-14.87,-2.03,-1.30,-3.18,0.36,352.00,482.00,246.00,136.00,550.00,1124.00,860.00,1194.00,,,,,,,,,,,,0,0,0,,-3872,14760,4916,-59,129,-210
24.611,24.49,-1.15,-3.73,-1.33,-7.07,-1.96,-3.96,2.94,-3.12,2.70,251.00,614.00,183.00,231.00,453.00,1083.00,757.00,1119.00,,,,,,,,,,,,0,0,0,,-3712,14688,4884,-113,145,-137
24.631,24.55,-1.15,-6.65,5.69,-10.13,6.11,-1.05,-0.73,0.01,-0.84,181.00,571.00,125.00,210.00,524.00,1065.00,866.00,1087.00,,,,,,,,,,,,0,0,0,,-3804,14728,4868,-109,92,-173
24.693,24.60,-1.10,-0.22,-2.80,-4.55,0.26,-0.23,-1.73,-0.16,-0.76,255.00,556.00,155.00,197.00,545.00,1059.00,865.00,1092.00,,,,,,,,,,,,0,0,0,,-3884,14792,4832,-219,25,-161
24.754,24.66,-1.21,1.54,-4.59,6.47,-8.70,-3.34,0.04,-4.37,1.27,272.00,544.00,206.00,162.00,524.00,1142.00,837.00,1222.00,,,,,,,,,,,,0,0,0,,-3704,14824,4876,-97,57,-113
24.815,24.71,-1.33,-5.81,0.20,-13.24,1.05,-3.63,2.38,-2.17,1.50,240.00,640.00,174.00,272.00,464.00,1085.00,794.00,1113.00,,,,,,,,,,,,0,0,0,,-3736,14840,4920,-53,165,-115
24.856,24.77,-1.09,-5.52,4.80,-16.46,15.80,3.55,-4.87,3.93,-3.89,186.00,559.00,83.00,208.00,603.00,992.00,951.00,1010.00,,,,,,,,,,,,0,0,0,,-3792,14932,4888,-75,147,-296
24.918,24.82,-1.27,11.27,-11.71,25.52,-19.19,-4.62,0.36,-5.05,1.45,335.00,448.00,257.00,101.00,527.00,1191.00,839.00,1249.00,,,,,,,,,,,,0,0,0,,-3792,14772,4916,-171,97,-191
24.978,24.88,-1.48,-7.87,0.43,-18.93,3.39,-5.64,5.48,-3.41,4.01,246.00,690.00,170.00,320.00,407.00,1081.00,709.00,1093.00,,,,,,,,,,,,0,0,0,,-3704,14768,4828,45,168,-111
25.021,24.93,-1.25,-10.72,12.89,-20.36,21.91,3.11,-4.45,4.54,-4.26,132.00,553.00,64.00,206.00,594.00,998.00,960.00,996.00,,,,,,,,,,,,0,0,0,,-3756,14832,4908,-6,136,-269
25.084,24.99,-1.32,8.72,-10.91,12.87,-13.75,-2.65,-0.71,-2.65,0.38,336.00,485.00,241.00,144.00,539.00,1134.00,851.00,1169.00,,,,,,,,,,,,0,0,0,,-3832,14908,4856,9,97,-176
25.144,25.04,-1.44,-4.03,-0.71,-6.75,-1.45,-3.72,2.41,-2.70,2.51,244.00,611.00,177.00,225.00,464.00,1088.00,759.00,1106.00,,,,,,,,,,,,0,0,0,,-3820,14784,4804,-93,54,-189
25.225,25.10,-1.43,-4.58,3.43,-10.08,4.81,-1.08,-0.90,-0.30,-0.34,197.00,559.00,134.00,217.00,529.00,1071.00,848.00,1086.00,,,,,,,,,,,,0,0,0,,-3824,14848,5000,-114,134,-100
25.245,25.15,-1.33,-0.59,-1.79,-5.47,0.69,0.53,-2.26,0.13,-0.81,243.00,549.00,154.00,202.00,553.00,1042.00,863.00,1081.00,,,,,,,,,,,,0,0,0,,-3768,14864,4784,55,214,-175
25.307,25.21,-1.46,2.52,-4.92,9.81,-10.27,-4.06,0.74,-3.90,1.31,272.00,528.00,211.00,148.00,511.00,1153.00,828.00,1198.00,,,,,,,,,,,,0,0,0,,-3736,14796,4704,81,120,-224
25.348,25.26,-1.58,-5.66,0.38,-11.53,1.23,-3.79,2.96,-2.60,2.40,237.00,633.00,167.00,253.00,451.00,1075.00,762.00,1105.00,,,,,,,,,,,,0,0,0,,-3824,14792,4728,9,44,-232
25.408,25.32,-1.32,-6.36,6.32,-13.35,13.06,3.74,-4.81,4.06,-3.93,174.00,555.00,91.00,198.00,599.00,983.00,951.00,1006.00,,,,,,,,,,,,0,0,0,,-3796,14752,4864,-186,54,-208
25.47,25.37,-1.48,11.79,-12.64,28.00,-20.17,-4.65,0.13,-5.80,1.81,349.00,450.00,259.00,94.00,534.00,1200.00,834.00,1274.00,,,,,,,,,,,,0,0,0,,-3744,14808,4852,-154,137,-153
25.512,25.43,-1.68,-8.23,0.48,-17.52,1.66,-5.41,4.38,-4.00,4.00,247.00,699.00,182.00,317.00,430.00,1103.00,717.00,1119.00,,,,,,,,,,,,0,0,0,,-3772,14796,4756,-114,122,-106
25.594,25.48,-1.50,-9.98,10.40,-19.48,17.50,1.97,-4.10,3.01,-3.69,149.00,574.00,80.00,224.00,595.00,1034.00,957.00,1042.00,,,,,,,,,,,,0,0,0,,-3816,14772,4764,-78,115,-73
25.654,25.54,-1.55,7.99,-10.66,12.11,-12.63,-2.59,-0.84,-3.13,0.39,336.00,496.00,230.00,144.00,542.00,1135.00,858.00,1191.00,,,,,,,,,,,,0,0,0,,-3828,14904,4884,-13,135,-195
25.675,25.59,-1.69,-3.61,-1.81,-6.23,-2.54,-4.34,2.35,-3.34,2.36,257.00,619.00,186.00,227.00,471.00,1117.00,774.00,1139.00,,,,,,,,,,,,0,0,0,,-3744,14884,4796,80,162,-192
25.737,25.65,-1.75,-3.35,-0.08,-9.26,2.08,-2.79,0.87,-1.08,0.23,233.00,585.00,153.00,226.00,496.00,1093.00,834.00,1103.00,,,,,,,,,,,,0,0,0,,-3800,14712,4688,-46,82,-282
25.797,25.70,-1.62,-0.71,-2.35,-5.85,1.06,0.68,-2.47,0.52,-1.18,251.00,560.00,152.00,203.00,558.00,1042.00,874.00,1075.00,,,,,,,,,,,,0,0,0,,-3824,14768,4896,-89,54,-219
25.878,25.76,-1.76,4.49,-7.75,11.48,-12.97,-4.40,0.86,-3.81,1.14,306.00,527.00,237.00,149.00,511.00,1165.00,834.00,1199.00,,,,,,,,,,,,0,0,0,,-3752,14848,5044,-18,211,-152
25.959,25.81,-1.87,-5.41,-0.39,-14.00,1.09,-4.00,3.24,-2.61,2.65,246.00,640.00,176.00,280.00,446.00,1076.00,752.00,1098.00,,,,,,,,,,,,0,0,0,,-3944,14768,4724,11,180,-178
25.98,25.87,-1.60,-6.66,6.42,-16.38,16.22,3.61,-4.92,4.47,-3.97,174.00,560.00,81.00,205.00,604.00,991.00,946.00,991.00,,,,,,,,,,,,0,0,0,,-3708,14920,4716,-33,31,-298
26.021,25.92,-1.76,12.94,-14.25,29.20,-21.95,-4.84,0.40,-5.32,1.34,373.00,449.00,279.00,94.00,528.00,1200.00,848.00,1266.00,,,,,,,,,,,,0,0,0,,-3844,14772,4724,-67,28,-208
26.063,25.98,-1.94,-7.43,-0.38,-16.27,1.14,-5.26,4.33,-3.81,3.88,255.00,693.00,183.00,306.00,430.00,1098.00,719.00,1114.00,,,,,,,,,,,,0,0,0,,-3900,14820,4800,-31,145,-204
26.125,26.03,-1.75,-8.34,7.85,-16.86,13.64,1.74,-3.89,3.09,-3.66,166.00,576.00,94.00,224.00,591.00,1038.00,954.00,1038.00,,,,,,,,,,,,0,0,0,,-3752,15004,4784,18,156,-259
26.187,26.09,-1.79,7.43,-9.69,11.75,-12.11,-2.42,-0.65,-2.65,0.38,322.00,494.00,225.00,144.00,535.00,1122.00,851.00,1169.00,,,,,,,,,,,,0,0,0,,-3772,14824,4628,-61,0,-297
26.249,26.14,-1.88,-3.14,-1.89,-5.57,-3.35,-3.62,1.71,-2.92,1.85,256.00,609.00,192.00,226.00,481.00,1104.00,790.00,1136.00,,,,,,,,,,,,0,0,0,,-3884,14812,4904,-104,-26,-260
26.352,26.20,-1.92,-1.63,-2.11,-7.17,-0.99,-2.66,0.60,-0.96,0.19,252.00,577.00,174.00,226.00,502.00,1095.00,834.00,1099.00,,,,,,,,,,,,0,0,0,,-3828,14772,4788,-67,75,-195
26.373,26.25,-1.77,-1.50,-1.25,-7.36,2.57,1.00,-2.94,0.71,-1.60,240.00,561.00,144.00,207.00,569.00,1042.00,891.00,1079.00,,,,,,,,,,,,0,0,0,,-3936,14824,4716,-2,111,-211
26.415,26.31,-1.89,5.19,-9.50,11.59,-14.36,-4.15,0.17,-4.37,1.11,332.00,537.00,255.00,154.00,528.00,1175.00,844.00,1227.00,,,,,,,,,,,,0,0,0,,-3932,14736,4764,27,34,-243
26.455,26.36,-2.04,-6.02,-0.41,-13.94,-0.05,-4.84,3.52,-3.69,3.02,249.00,656.00,187.00,288.00,446.00,1104.00,752.00,1135.00,,,,,,,,,,,,0,0,0,,-3920,14672,4944,5,45,-188
26.517,26.42,-1.76,-7.58,6.73,-16.61,15.85,3.59,-5.16,4.14,-4.15,174.00,576.00,83.00,209.00,612.00,998.00,961.00,1009.00,,,,,,,,,,,,0,0,0,,-3944,14840,4876,20,109,-197
26.578,26.47,-1.93,12.47,-15.34,28.90,-23.43,-5.15,0.13,-5.52,1.19,399.00,471.00,304.00,99.00,539.00,1224.00,858.00,1281.00,,,,,,,,,,,,0,0,0,,-3888,14860,4784,-5,227,-61
26.641,26.53,-2.09,-7.21,-0.60,-15.84,0.99,-5.29,3.71,-4.22,3.67,257.00,691.00,183.00,302.00,445.00,1118.00,733.00,1139.00,,,,,,,,,,,,0,0,0,,-4020,14812,4668,-145,175,-231
26.702,26.58,-1.93,-7.13,5.05,-14.04,8.65,1.25,-3.35,2.26,-2.83,189.00,592.00,117.00,229.00,579.00,1043.00,926.00,1049.00,,,,,,,,,,,,0,0,0,,-3980,14844,4684,-156,152,-122
26.743,26.64,-1.93,7.95,-10.14,15.33,-16.33,-2.03,-1.26,-2.44,0.35,327.00,490.00,265.00,140.00,549.00,1123.00,849.00,1160.00,,,,,,,,,,,,0,0,0,,-3816,14800,4660,48,226,-104
26.803,26.69,-2.00,-2.14,-2.37,-4.53,-3.89,-3.34,0.54,-2.42,0.94,258.00,593.00,194.00,220.00,510.00,1127.00,822.00,1141.00,,,,,,,,,,,,0,0,0,,-3904,14748,4704,86,217,-160
26.865,26.75,-2.05,-2.16,-1.26,-6.84,-1.31,-2.85,0.89,-1.08,0.16,243.00,576.00,176.00,225.00,496.00,1095.00,837.00,1105.00,,,,,,,,,,,,0,0,0,,-3880,14984,4520,21,81,-220
26.886,26.80,-1.87,-1.94,-0.40,-7.00,2.57,1.42,-3.82,1.31,-2.17,231.00,558.00,143.00,204.00,592.00,1049.00,909.00,1070.00,,,,,,,,,,,,0,0,0,,-3896,14800,4620,-164,78,-104
26.949,26.86,-1.99,5.54,-9.45,12.51,-14.74,-4.12,0.20,-4.22,1.19,329.00,529.00,256.00,150.00,527.00,1173.00,838.00,1217.00,,,,,,,,,,,,0,0,0,,-3852,14804,4812,-146,124,-121
27.011,26.91,-2.13,-5.81,-0.56,-14.96,1.21,-4.81,3.47,-3.33,2.94,250.00,653.00,178.00,290.00,447.00,1104.00,750.00,1121.00,,,,,,,,,,,,0,0,0,,-3876,14924,4524,-59,223,-137
27.052,26.97,-1.81,-8.87,8.83,-17.52,16.84,4.25,-5.83,4.89,-4.74,159.00,573.00,80.00,211.00,627.00,990.00,979.00,995.00,,,,,,,,,,,,0,0,0,,-3916,14848,4684,-98,83,-223
27.115,27.02,-1.95,14.00,-15.90,30.07,-22.83,-4.56,-0.07,-5.31,1.36,400.00,450.00,288.00,93.00,539.00,1202.00,847.00,1265.00,,,,,,,,,,,,0,0,0,,-3928,14824,4764,-75,24,-125
27.198,27.08,-2.13,-6.86,-0.78,-13.62,-0.64,-5.59,3.86,-4.21,3.51,258.00,685.00,192.00,289.00,444.00,1127.00,739.00,1143.00,,,,,,,,,,,,0,0,0,,-3868,14804,4824,-111,151,-91
27.219,27.13,-1.97,-6.26,4.47,-13.04,8.00,1.01,-3.14,2.18,-2.74,192.00,581.00,119.00,224.00,575.00,1047.00,923.00,1050.00,,,,,,,,,,,,0,0,0,,-3756,14904,4828,-73,193,-63
27.299,27.19,-1.99,6.56,-8.93,10.20,-11.08,-2.36,-0.92,-2.51,0.21,314.00,501.00,219.00,149.00,542.00,1127.00,857.00,1168.00,,,,,,,,,,,,0,0,0,,-3668,14836,4760,-47,90,-161
27.361,27.24,-2.05,-1.17,-3.74,-1.72,-5.58,-3.10,-0.15,-2.51,0.42,273.00,592.00,202.00,206.00,527.00,1137.00,847.00,1161.00,,,,,,,,,,,,0,0,0,,-3860,14936,4880,-83,66,-156
27.422,27.30,-2.10,-2.70,-1.68,-8.73,-0.47,-3.21,1.01,-2.37,0.99,251.00,595.00,174.00,237.00,496.00,1107.00,819.00,1137.00,,,,,,,,,,,,0,0,0,,-3756,14944,4580,-29,149,-98
27.442,27.35,-1.92,-2.95,0.10,-8.81,4.52,1.57,-4.42,1.35,-2.92,229.00,573.00,133.00,208.00,610.00,1060.00,946.00,1090.00,,,,,,,,,,,,0,0,0,,-3860,14780,4592,49,215,-127
27.504,27.41,-2.04,5.94,-9.97,14.54,-15.42,-4.34,-0.18,-4.79,1.28,336.00,528.00,256.00,141.00,540.00,1195.00,843.00,1242.00,,,,,,,,,,,,0,0,0,,-3812,14916,4616,0,138,-249
27.584,27.46,-2.18,-6.27,-0.84,-14.38,0.60,-4.91,3.58,-3.26,2.87,256.00,670.00,182.00,288.00,445.00,1105.00,752.00,1120.00,,,,,,,,,,,,0,0,0,,-3900,14772,4752,-94,69,-120
27.605,27.52,-1.86,-10.15,10.58,-17.52,16.84,4.40,-6.32,5.14,-5.37,148.00,575.00,80.00,211.00,642.00,997.00,1008.00,1002.00,,,,,,,,,,,,0,0,0,,-3744,14784,4664,-57,188,-125
27.666,27.57,-1.99,12.63,-15.02,26.07,-21.09,-4.50,-0.09,-4.85,1.19,391.00,464.00,282.00,104.00,539.00,1200.00,848.00,1248.00,,,,,,,,,,,,0,0,0,,-3872,14908,4592,-2,209,-184
27.728,27.63,-2.12,-5.62,-2.18,-13.15,-1.09,-4.55,2.41,-3.26,2.31,272.00,677.00,195.00,287.00,471.00,1124.00,775.00,1137.00,,,,,,,,,,,,0,0,0,,-3760,14960,4608,40,149,-54
27.789,27.68,-1.95,-6.41,4.61,-12.88,8.10,1.12,-3.05,2.11,-2.50,191.00,582.00,118.00,222.00,571.00,1040.00,912.00,1046.00,,,,,,,,,,,,0,0,0,,-3888,14820,4632,-100,65,-159
27.85,27.74,-1.93,6.04,-8.15,8.26,-9.21,-1.56,-1.42,-1.79,-0.19,304.00,501.00,205.00,153.00,549.00,1107.00,864.00,1147.00,,,,,,,,,,,,0,0,0,,-3852,14900,4720,-139,137,-80
27.912,27.79,-1.99,-0.33,-3.96,2.39,-6.41,-2.99,-0.22,-2.49,0.59,272.00,576.00,196.00,179.00,528.00,1134.00,839.00,1155.00,,,,,,,,,,,,0,0,0,,-3788,14904,4632,-53,200,-91
27.933,27.85,-2.07,-3.06,-0.96,-8.82,-0.65,-3.59,1.66,-2.11,1.18,243.00,592.00,176.00,239.00,482.00,1104.00,807.00,1120.00,,,,,,,,,,,,0,0,0,,-3820,14800,4476,-125,186,-135
27.997,27.90,-1.84,-3.28,1.38,-7.55,3.02,2.39,-4.23,1.98,-3.01,215.00,561.00,141.00,206.00,595.00,1021.00,940.00,1066.00,,,,,,,,,,,,0,0,0,,-3796,14812,4680,-123,80,-137
28.058,27.96,-1.97,8.04,-10.73,19.01,-16.93,-4.33,0.13,-4.56,1.09,337.00,496.00,256.00,123.00,531.00,1185.00,848.00,1237.00,,,,,,,,,,,,0,0,0,,-3820,14812,4732,-158,128,-79
28.099,28.01,-2.15,-6.27,-0.84,-14.85,0.66,-5.50,4.29,-4.43,3.94,256.00,670.00,183.00,293.00,433.00,1110.00,725.00,1140.00,,,,,,,,,,,,0,0,0,,-3724,14796,4760,-201,206,-69
28.16,28.07,-1.82,-11.15,11.56,-18.26,18.28,4.32,-5.97,4.93,-5.20,143.00,583.00,75.00,209.00,631.00,991.00,1003.00,1006.00,,,,,,,,,,,,0,0,0,,-3840,14928,4920,77,244,-86
28.221,28.12,-1.93,12.54,-15.13,23.23,-19.67,-4.03,-0.39,-4.95,0.94,394.00,467.00,275.00,112.00,543.00,1187.00,861.00,1261.00,,,,,,,,,,,,0,0,0,,-3888,14964,4640,111,225,-64
28.284,28.18,-2.07,-5.17,-3.06,-11.14,-2.04,-4.67,2.30,-3.86,2.33,283.00,681.00,198.00,272.00,475.00,1133.00,783.00,1164.00,,,,,,,,,,,,0,0,0,,-3684,14800,4520,86,191,-5
28.325,28.23,-1.96,-6.18,3.97,-14.02,9.61,0.12,-2.35,1.21,-2.20,197.00,587.00,111.00,223.00,560.00,1062.00,912.00,1075.00,,,,,,,,,,,,0,0,0,,-3844,14816,4544,128,190,-114
28.388,28.29,-1.93,3.60,-7.69,1.79,-5.73,-1.39,-1.61,-1.92,-0.25,310.00,545.00,191.00,180.00,553.00,1105.00,869.00,1155.00,,,,,,,,,,,,0,0,0,,-3780,15124,4516,161,183,-169
28.451,28.34,-1.98,-0.37,-4.61,2.33,-6.10,-2.94,-0.55,-2.88,0.72,282.00,587.00,193.00,178.00,537.00,1142.00,839.00,1169.00,,,,,,,,,,,,0,0,0,,-3784,14908,4580,-15,187,-122
28.535,28.40,-2.07,-3.17,-2.10,-10.89,0.58,-3.71,1.78,-1.40,-0.23,259.00,613.00,171.00,251.00,480.00,1106.00,860.00,1131.00,,,,,,,,,,,,0,0,0,,-3676,15020,4616,16,275,-105
28.556,28.45,-1.83,-3.69,1.26,-10.08,6.39,2.70,-4.43,2.45,-3.25,218.00,572.00,123.00,208.00,598.00,1014.00,944.00,1053.00,,,,,,,,,,,,0,0,0,,-3776,14988,4628,111,298,-98
28.637,28.51,-1.94,8.18,-10.94,22.07,-17.96,-4.05,-0.07,-4.66,1.39,340.00,496.00,256.00,112.00,534.00,1178.00,836.00,1232.00,,,,,,,,,,,,0,0,0,,-3768,14992,4472,199,168,-60
28.658,28.56,-2.14,-7.04,-0.36,-14.79,0.44,-5.90,4.68,-4.04,3.96,253.00,682.00,185.00,294.00,427.00,1116.00,719.00,1122.00,,,,,,,,,,,,0,0,0,,-3720,15008,4528,82,87,-220
28.72,28.62,-1.84,-10.82,11.44,-20.91,20.44,3.83,-5.63,4.96,-4.92,143.00,577.00,70.00,219.00,625.00,1001.00,987.00,997.00,,,,,,,,,,,,0,0,0,,-3828,14980,4624,159,188,-87
28.763,28.67,-1.94,10.36,-13.09,20.40,-17.76,-3.85,-0.55,-4.43,0.66,367.00,482.00,261.00,119.00,546.00,1184.00,866.00,1245.00,,,,,,,,,,,,0,0,0,,-3724,15020,4620,336,289,-97
28.907,28.73,-2.05,-5.24,-1.96,-10.08,-1.64,-4.21,2.42,-3.58,2.59,267.00,663.00,190.00,258.00,468.00,1109.00,768.00,1143.00,,,,,,,,,,,,0,0,0,,-3776,15036,4152,296,261,-194
28.927,28.78,-1.95,-6.41,5.01,-12.72,8.36,0.13,-2.06,1.13,-1.90,187.00,576.00,116.00,219.00,551.00,1053.00,899.00,1070.00,,,,,,,,,,,,0,0,0,,-3828,14916,3940,230,99,-212
28.947,28.84,-1.88,0.54,-5.24,-1.53,-3.62,-0.73,-1.90,-1.12,-0.75,287.00,576.00,181.00,194.00,555.00,1085.00,880.00,1134.00,,,,,,,,,,,,0,0,0,,-3860,15000,4168,-2,29,-144
28.987,28.89,-1.96,-0.63,-3.51,4.00,-7.51,-3.36,-0.10,-3.01,0.46,267.00,576.00,202.00,173.00,528.00,1147.00,853.00,1183.00,,,,,,,,,,,,0,0,0,,-3836,15048,4260,-85,187,-45
29.05,28.95,-2.06,-6.62,0.01,-14.12,1.13,-4.05,2.01,-2.66,1.37,246.00,664.00,176.00,281.00,477.00,1114.00,807.00,1139.00,,,,,,,,,,,,0,0,0,,-3784,15124,4340,-37,218,-50
29.091,29.00,-1.85,-4.79,1.97,-10.89,7.59,2.28,-4.50,2.61,-3.60,214.00,586.00,117.00,208.00,605.00,1033.00,959.00,1056.00,,,,,,,,,,,,0,0,0,,-3760,15032,4280,50,186,-41
29.152,29.06,-1.98,8.10,-11.71,18.82,-16.65,-4.53,-0.05,-5.25,1.30,355.00,508.00,253.00,123.00,538.00,1200.00,849.00,1264.00,,,,,,,,,,,,0,0,0,,-3640,15140,4212,154,186,-89
29.214,29.11,-2.20,-8.75,-0.78,-19.28,2.87,-6.38,4.76,-4.76,3.87,267.00,738.00,176.00,329.00,429.00,1135.00,732.00,1157.00,,,,,,,,,,,,0,0,0,,-3852,15148,4092,150,188,-60
29.275,29.17,-1.95,-11.21,10.94,-21.50,22.01,2.84,-5.27,4.10,-4.61,148.00,594.00,65.00,215.00,624.00,1031.00,986.00,1023.00,,,,,,,,,,,,0,0,0,,-3756,14988,4228,-39,140,-183
29.337,29.22,-2.00,7.65,-12.27,12.86,-15.00,-3.00,-1.30,-3.94,0.18,369.00,525.00,258.00,149.00,560.00,1168.00,881.00,1237.00,,,,,,,,,,,,0,0,0,,-3656,15104,4192,-199,109,-120
29.379,29.28,-2.15,-4.38,-2.66,-9.01,-2.19,-4.89,2.73,-3.93,2.97,273.00,653.00,192.00,251.00,466.00,1130.00,757.00,1147.00,,,,,,,,,,,,0,0,0,,-3796,15048,4112,-83,218,-87
29.443,29.33,-2.10,-6.71,4.62,-13.10,7.26,-1.15,-1.43,0.06,-1.42,192.00,589.00,124.00,229.00,545.00,1089.00,893.00,1102.00,,,,,,,,,,,,0,0,0,,-3736,14944,4116,-21,214,-56
29.505,29.39,-1.98,0.36,-4.19,-4.86,-0.22,0.29,-3.34,-1.17,-0.61,272.00,564.00,160.00,202.00,589.00,1083.00,874.00,1132.00,,,,,,,,,,,,0,0,0,,-3708,15312,4056,-75,144,-205
29.526,29.44,-2.07,0.47,-4.23,3.44,-7.32,-3.78,0.05,-3.74,1.01,272.00,562.00,202.00,176.00,528.00,1162.00,839.00,1200.00,,,,,,,,,,,,0,0,0,,-3728,14984,4076,-80,83,-80
29.63,29.50,-2.17,-6.12,-0.38,-15.09,1.78,-4.19,2.49,-2.80,1.59,249.00,658.00,173.00,287.00,466.00,1106.00,799.00,1138.00,,,,,,,,,,,,0,0,0,,-3752,15164,4148,-159,126,-42
29.65,29.55,-2.04,-6.09,4.61,-13.76,11.83,0.49,-1.94,2.89,-3.69,190.00,575.00,98.00,208.00,544.00,1035.00,959.00,1047.00,,,,,,,,,,,,0,0,0,,-3712,15076,4212,2,201,-116
29.692,29.61,-2.17,8.66,-11.43,23.15,-18.54,-4.58,-0.06,-5.53,1.41,346.00,493.00,259.00,109.00,539.00,1203.00,848.00,1274.00,,,,,,,,,,,,0,0,0,,-3712,14992,3984,-6,70,-161
29.752,29.66,-2.36,-9.03,0.09,-17.27,0.59,-6.12,4.54,-4.63,4.13,256.00,729.00,192.00,323.00,432.00,1130.00,720.00,1143.00,,,,,,,,,,,,0,0,0,,-3672,14968,4160,-104,18,-92
29.814,29.72,-2.12,-11.43,11.65,-22.26,21.43,2.47,-5.08,2.96,-3.79,143.00,588.00,68.00,225.00,622.00,1041.00,963.00,1047.00,,,,,,,,,,,,0,0,0,,-3672,15024,4324,-221,170,-63
29.856,29.77,-2.19,6.48,-11.11,10.50,-13.48,-3.38,-0.74,-3.86,0.23,354.00,533.00,248.00,157.00,547.00,1168.00,877.00,1231.00,,,,,,,,,,,,0,0,0,,-3748,15168,4188,-235,218,-68
29.937,29.83,-2.33,-5.70,-0.89,-7.95,-2.55,-5.05,2.86,-3.92,2.44,254.00,656.00,192.00,243.00,464.00,1133.00,779.00,1163.00,,,,,,,,,,,,0,0,0,,-3616,15084,4308,-253,115,-44
29.999,29.88,-2.36,-6.93,3.39,-12.00,5.32,-2.87,-0.26,-1.82,-0.50,206.00,614.00,135.00,231.00,528.00,1130.00,879.00,1158.00,,,,,,,,,,,,0,0,0,,-3656,15196,4260,-212,68,-51
30.019,29.94,-2.27,-1.96,-2.58,-5.64,0.75,-0.74,-2.13,-1.25,-0.86,260.00,592.00,154.00,203.00,562.00,1092.00,887.00,1143.00,,,,,,,,,,,,0,0,0,,-3580,15112,4212,-144,196,4
30.081,29.99,-2.40,0.59,-5.39,5.01,-9.00,-4.75,0.27,-5.27,1.33,289.00,577.00,215.00,173.00,531.00,1200.00,848.00,1264.00,,,,,,,,,,,,1,0,0,,-3676,15024,4248,-230,223,-104
30.142,30.05,-2.53,-6.39,-0.44,-14.12,1.13,-5.10,3.16,-3.65,2.23,251.00,666.00,176.00,281.00,457.00,1126.00,784.00,1157.00,,,,,,,,,,,,1,0,0,,-3816,15008,4352,-380,270,102
30.203,30.10,-2.27,-7.79,6.59,-14.57,12.48,2.80,-4.62,2.94,-3.55,176.00,583.00,96.00,211.00,603.00,1015.00,951.00,1041.00,,,,,,,,,,,,1,0,0,,-3708,14844,4304,-402,491,317
30.264,30.16,-2.43,10.34,-12.36,26.63,-19.71,-5.49,0.45,-6.18,1.66,353.00,473.00,259.00,98.00,533.00,1230.00,847.00,1299.00,,,,,,,,,,,,1,0,0,,-3632,14932,4412,-363,691,374
30.306,30.21,-2.62,-8.12,-0.22,-18.25,1.80,-6.23,4.84,-5.01,4.08,256.00,709.00,183.00,325.00,426.00,1126.00,727.00,1162.00,,,,,,,,,,,,1,0,0,,-3644,15096,4384,-421,843,817
30.367,30.27,-2.41,-11.88,12.06,-19.64,18.74,1.46,-4.26,2.04,-3.52,141.00,592.00,75.00,218.00,606.00,1060.00,965.00,1078.00,,,,,,,,,,,,1,0,0,,-3620,14912,4428,-517,982,933
30.429,30.32,-2.44,7.12,-10.20,13.01,-13.17,-2.99,-0.74,-3.91,0.74,333.00,507.00,233.00,141.00,543.00,1150.00,854.00,1217.00,,,,,,,,,,,,1,0,0,,-3532,15036,4332,-529,1048,1183
30.49,30.38,-2.56,-4.62,-1.32,-4.27,-2.18,-4.76,2.52,-3.96,2.31,255.00,636.00,176.00,208.00,470.00,1130.00,785.00,1169.00,,,,,,,,,,,,1,0,0,,-3248,15088,4432,-455,1122,1218
30.53,30.43,-2.56,-3.74,0.05,-11.14,5.87,-2.64,0.27,-2.32,0.33,233.00,592.00,129.00,220.00,511.00,1104.00,848.00,1155.00,,,,,,,,,,,,1,0,0,,-3208,15144,4112,-322,949,1125
30.594,30.49,-2.44,-2.25,-1.00,-6.43,3.04,-0.15,-2.10,-0.58,-1.19,240.00,574.00,138.00,197.00,555.00,1066.00,892.00,1123.00,,,,,,,,,,,,1,0,0,,-3036,15176,4328,-281,805,966
30.654,30.54,-2.55,3.91,-8.56,12.06,-13.32,-4.62,0.40,-5.06,1.02,323.00,551.00,239.00,147.00,526.00,1190.00,859.00,1264.00,,,,,,,,,,,,1,0,0,,-3052,15188,4280,-354,753,953
30.737,30.60,-2.70,-6.50,-0.10,-14.22,2.36,-5.45,4.02,-3.75,2.48,247.00,663.00,165.00,273.00,439.00,1116.00,775.00,1154.00,,,,,,,,,,,,1,0,0,,-2784,15028,4496,-349,787,981
30.757,30.65,-2.42,-7.71,6.67,-17.98,16.99,2.77,-4.76,3.19,-4.41,175.00,580.00,80.00,214.00,608.00,1020.00,992.00,1055.00,,,,,,,,,,,,1,0,0,,-2688,15288,4392,-502,833,1008
30.798,30.71,-2.58,11.59,-14.05,28.97,-21.60,-5.55,0.47,-6.71,1.53,378.00,471.00,275.00,94.00,533.00,1232.00,861.00,1331.00,,,,,,,,,,,,1,0,0,,-2492,14952,4328,-489,813,985
30.862,30.76,-2.77,-8.85,0.39,-16.31,3.06,-6.44,4.65,-5.55,3.86,251.00,718.00,165.00,291.00,432.00,1141.00,743.00,1194.00,,,,,,,,,,,,1,0,0,,-2428,15456,4344,-605,640,874
30.902,30.82,-2.59,-8.45,6.81,-16.38,13.09,0.88,-3.51,1.19,-3.16,176.00,595.00,96.00,223.00,588.00,1063.00,961.00,1104.00,,,,,,,,,,,,1,0,0,,-2332,15240,4520,-738,422,842
30.963,30.87,-2.62,7.30,-9.64,13.33,-11.18,-3.26,-0.44,-3.96,0.35,322.00,496.00,208.00,132.00,537.00,1153.00,873.00,1232.00,,,,,,,,,,,,1,0,0,,-2216,15316,4460,-434,466,700
31.024,30.93,-2.71,-2.93,-2.32,-3.63,-2.39,-4.34,1.39,-3.83,1.58,261.00,611.00,176.00,204.00,496.00,1146.00,815.00,1186.00,,,,,,,,,,,,1,0,0,,-2164,15280,4288,-522,582,848
31.129,30.98,-2.75,-3.60,0.16,-7.35,0.62,-3.50,1.03,-2.60,0.50,231.00,587.00,160.00,218.00,498.00,1119.00,845.00,1163.00,,,,,,,,,,,,1,0,0,,-2084,15308,4244,-685,496,663
31.15,31.04,-2.61,-2.34,0.06,-6.17,4.20,0.04,-2.65,-0.21,-1.86,227.00,560.00,129.00,189.00,570.00,1074.00,919.00,1127.00,,,,,,,,,,,,1,0,0,,-1972,15392,4204,-1089,395,651
31.193,31.09,-2.72,5.11,-8.67,16.66,-14.95,-4.90,0.49,-5.16,1.16,318.00,527.00,240.00,128.00,526.00,1200.00,854.00,1264.00,,,,,,,,,,,,1,0,0,,-2060,15288,4468,-1062,334,598
31.253,31.15,-2.85,-6.03,0.35,-14.25,2.82,-5.20,3.48,-4.06,2.58,239.00,643.00,161.00,270.00,450.00,1121.00,775.00,1165.00,,,,,,,,,,,,1,0,0,,-1972,15380,4556,-1058,192,532
31.314,31.20,-2.55,-9.67,10.80,-18.22,21.78,3.18,-5.26,2.94,-4.22,145.00,561.00,62.00,190.00,620.00,1017.00,986.00,1060.00,,,,,,,,,,,,1,0,0,,-1740,15120,4520,-823,-20,338
31.376,31.26,-2.70,13.76,-14.28,35.45,-23.24,-5.55,0.47,-6.27,1.11,368.00,435.00,267.00,76.00,533.00,1232.00,874.00,1323.00,,,,,,,,,,,,1,0,0,,-1632,15148,4384,-890,-133,220
31.477,31.31,-2.86,-6.62,0.47,-13.48,1.13,-6.03,3.88,-5.00,2.90,240.00,656.00,174.00,274.00,447.00,1146.00,775.00,1199.00,,,,,,,,,,,,1,0,0,,-1824,15068,4676,-1067,-86,407
31.497,31.37,-2.71,-6.88,6.28,-11.54,9.46,0.12,-2.78,0.47,-2.56,176.00,567.00,107.00,203.00,573.00,1074.00,943.00,1118.00,,,,,,,,,,,,1,0,0,,-1640,14964,4832,-1394,60,565
31.517,31.42,-2.73,6.82,-7.86,11.92,-8.24,-3.05,-0.58,-3.85,0.12,295.00,482.00,182.00,129.00,539.00,1148.00,882.00,1234.00,,,,,,,,,,,,1,0,0,,-1460,15116,5020,-1249,27,433
31.579,31.48,-2.79,-1.75,-2.00,0.28,-3.71,-3.85,0.17,-3.92,0.38,251.00,578.00,176.00,181.00,525.00,1161.00,871.00,1229.00,,,,,,,,,,,,1,0,0,,-1420,15356,5276,-1166,-63,529
31.62,31.53,-2.85,-2.88,-0.00,-6.97,1.80,-4.00,1.27,-3.21,0.70,230.00,573.00,149.00,208.00,496.00,1134.00,845.00,1185.00,,,,,,,,,,,,1,0,0,,-1244,15020,5532,-1331,-185,165
31.682,31.59,-2.67,-1.88,1.43,-6.87,7.88,0.61,-3.61,-0.06,-2.73,209.00,530.00,107.00,176.00,594.00,1077.00,961.00,1147.00,,,,,,,,,,,,1,0,0,,-1204,14960,6012,-1456,-78,47
31.745,31.64,-2.78,6.38,-8.21,16.55,-14.21,-4.83,0.37,-5.56,1.15,303.00,495.00,231.00,126.00,529.00,1201.00,861.00,1285.00,,,,,,,,,,,,1,0,0,,-1188,14796,6488,-1480,178,-34
31.849,31.70,-2.91,-5.92,1.43,-14.43,4.07,-5.43,3.72,-4.69,2.94,225.00,622.00,151.00,263.00,446.00,1124.00,769.00,1183.00,,,,,,,,,,,,1,0,0,,-1096,14548,6468,-1287,215,-155
31.869,31.75,-2.59,-9.40,12.03,-18.06,22.33,3.67,-5.98,3.18,-4.85,135.00,537.00,60.00,186.00,639.00,1017.00,1016.00,1068.00,,,,,,,,,,,,1,0,0,,-1152,14544,6688,-1492,24,-156
31.89,31.81,-2.71,15.06,-14.26,104.61,-45.73,-5.00,0.21,-6.14,1.17,359.00,413.00,256.00,9.00,535.00,1214.00,869.00,1314.00,,,,,,,,,,,,1,0,0,,-1192,14504,6888,-1401,-207,-191
31.951,31.86,-2.84,-5.96,0.48,-11.70,0.32,-5.45,3.00,-4.71,2.38,237.00,639.00,176.00,261.00,464.00,1147.00,793.00,1202.00,,,,,,,,,,,,1,0,0,,-1072,14360,7264,-1333,-414,-209
32.013,31.92,-2.70,-6.66,7.86,-11.03,9.63,-0.01,-2.31,0.59,-2.51,161.00,539.00,105.00,198.00,560.00,1066.00,938.00,1111.00,,,,,,,,,,,,1,0,0,,-1180,14500,7428,-980,-496,-322
32.073,31.97,-2.69,6.98,-6.69,9.44,-7.10,-2.41,-1.17,-3.43,0.02,276.00,464.00,179.00,138.00,550.00,1137.00,880.00,1217.00,,,,,,,,,,,,1,0,0,,-1264,14276,7488,-900,-450,-523
32.115,32.03,-2.73,-0.57,-1.41,2.40,-5.14,-3.53,-0.00,-4.02,0.63,238.00,543.00,183.00,173.00,527.00,1152.00,861.00,1226.00,,,,,,,,,,,,1,0,0,,-1152,14112,7832,-943,-212,-450
32.197,32.08,-2.79,-2.89,0.74,-7.60,0.82,-4.01,1.69,-3.35,1.05,221.00,562.00,159.00,219.00,485.00,1122.00,831.00,1180.00,,,,,,,,,,,,1,0,0,,-1276,13764,7588,-977,-70,-684
32.238,32.14,-2.62,-3.40,3.31,-8.08,7.61,0.67,-3.63,0.39,-2.85,194.00,535.00,111.00,186.00,594.00,1075.00,959.00,1130.00,,,,,,,,,,,,1,0,0,,-1320,14200,7876,-806,8,-595
32.28,32.19,-2.74,8.81,-9.63,17.40,-12.38,-4.93,0.54,-5.67,1.16,313.00,467.00,206.00,116.00,525.00,1200.00,862.00,1290.00,,,,,,,,,,,,1,0,0,,-1280,13968,8028,-891,185,-338
32.342,32.25,-2.89,-5.50,0.80,-13.83,1.79,-5.86,4.45,-5.07,3.63,231.00,622.00,169.00,273.00,432.00,1121.00,746.00,1179.00,,,,,,,,,,,,1,0,0,,-1448,13948,7948,-583,402,-452
32.403,32.30,-2.54,-9.95,13.05,-19.00,22.34,4.05,-5.88,4.09,-5.18,129.00,534.00,61.00,193.00,631.00,999.00,1017.00,1039.00,,,,,,,,,,,,1,0,0,,-1416,14172,7772,-415,402,-354
32.445,32.36,-2.64,14.92,-14.77,25.90,-19.74,-4.55,0.13,-5.80,1.27,370.00,421.00,263.00,101.00,533.00,1195.00,859.00,1293.00,,,,,,,,,,,,1,0,0,,-1548,14240,7800,-516,149,-194
32.505,32.41,-2.75,-5.05,-0.81,-9.95,-1.39,-4.70,2.70,-4.05,1.99,250.00,638.00,187.00,255.00,465.00,1122.00,800.00,1183.00,,,,,,,,,,,,1,0,0,,-1420,13772,7932,-333,194,-225
32.587,32.47,-2.60,-2.75,1.81,-13.12,9.81,0.25,-2.23,0.55,-1.97,208.00,543.00,108.00,214.00,555.00,1053.00,912.00,1097.00,,,,,,,,,,,,1,0,0,,-1552,14136,7848,-224,268,-248
32.607,32.52,-2.55,6.49,-7.31,5.22,-5.68,-1.59,-1.31,-2.13,-0.39,288.00,481.00,179.00,157.00,546.00,1105.00,879.00,1169.00,,,,,,,,,,,,1,0,0,,-1396,14048,7732,-15,193,-286
32.669,32.58,-2.59,0.62,-3.16,3.21,-4.80,-3.40,0.13,-3.50,0.62,256.00,543.00,177.00,166.00,522.00,1142.00,853.00,1201.00,,,,,,,,,,,,1,0,0,,-1596,13948,7500,-230,85,-408
32.729,32.63,-2.65,-2.15,-0.96,-10.38,0.74,-3.82,2.01,-3.30,1.40,239.00,571.00,168.00,245.00,475.00,1104.00,815.00,1167.00,,,,,,,,,,,,1,0,0,,-1592,14032,7492,17,-34,-526
32.771,32.69,-2.43,-2.68,2.06,-10.15,8.14,1.76,-3.96,1.15,-3.03,205.00,538.00,112.00,199.00,593.00,1039.00,955.00,1102.00,,,,,,,,,,,,1,0,0,,-1576,14032,7616,-31,-77,-369
32.853,32.74,-2.55,9.53,-10.84,20.05,-16.91,-4.83,0.57,-5.58,1.34,330.00,469.00,251.00,118.00,523.00,1194.00,852.00,1279.00,,,,,,,,,,,,1,0,0,,-1644,14180,7600,319,99,-42
32.934,32.80,-2.71,-5.33,-0.87,-15.52,1.40,-5.70,4.79,-5.03,3.89,252.00,646.00,178.00,295.00,423.00,1104.00,735.00,1169.00,,,,,,,,,,,,1,0,0,,-1400,13972,7532,293,393,-36
32.954,32.85,-2.37,-9.94,12.35,-20.89,21.80,4.10,-5.69,3.81,-4.83,134.00,544.00,65.00,211.00,624.00,992.00,1003.00,1041.00,,,,,,,,,,,,1,0,0,,-1476,13968,7308,-83,330,-228
32.996,32.91,-2.46,12.79,-13.70,21.85,-17.96,-4.28,0.18,-4.91,0.80,363.00,445.00,257.00,113.00,529.00,1181.00,867.00,1264.00,,,,,,,,,,,,1,0,0,,-1584,14024,7416,214,112,-221
33.078,32.96,-2.57,-2.95,-3.08,-10.29,-1.76,-4.69,2.82,-3.88,2.38,272.00,624.00,192.00,261.00,462.00,1118.00,781.00,1163.00,,,,,,,,,,,,1,0,0,,-1684,13856,7516,168,62,-200
33.098,33.02,-2.46,-6.11,5.82,-13.58,9.30,-0.29,-1.51,0.47,-1.41,178.00,557.00,112.00,221.00,539.00,1055.00,886.00,1084.00,,,,,,,,,,,,1,0,0,,-1616,13928,7328,377,162,-2
33.16,33.07,-2.39,2.56,-5.27,-1.99,-2.95,-1.05,-1.35,-1.54,-0.42,277.00,532.00,176.00,194.00,542.00,1083.00,871.00,1143.00,,,,,,,,,,,,1,0,0,,-1548,13992,7292,231,274,233
33.22,33.13,-2.42,1.90,-4.71,3.30,-6.90,-3.06,0.05,-3.38,0.69,272.00,538.00,198.00,175.00,521.00,1129.00,848.00,1193.00,,,,,,,,,,,,1,0,0,,-1512,14184,7156,370,466,163
33.343,33.18,-2.49,-4.73,-0.40,-13.71,1.21,-3.68,2.28,-2.71,1.34,243.00,623.00,174.00,276.00,467.00,1090.00,809.00,1142.00,,,,,,,,,,,,1,0,0,,-1520,14104,7008,86,528,48
33.363,33.24,-2.25,-4.12,2.81,-11.69,9.85,2.27,-4.10,1.96,-3.12,202.00,558.00,105.00,202.00,592.00,1022.00,946.00,1070.00,,,,,,,,,,,,1,0,0,,-1488,14092,6960,-119,254,123
33.403,33.29,-2.37,10.65,-12.25,21.02,-17.39,-4.59,0.32,-5.34,1.29,349.00,466.00,253.00,115.00,528.00,1191.00,851.00,1269.00,,,,,,,,,,,,1,0,0,,-1344,14076,7172,-235,147,29
33.444,33.35,-2.55,-6.78,-0.52,-18.09,3.22,-6.12,4.97,-4.52,3.97,254.00,678.00,169.00,311.00,422.00,1117.00,725.00,1143.00,,,,,,,,,,,,1,0,0,,-1392,14428,7248,-141,343,3
33.485,33.40,-2.26,-11.10,13.58,-21.76,22.38,3.24,-5.01,4.23,-4.65,128.00,551.00,64.00,215.00,611.00,1008.00,986.00,1019.00,,,,,,,,,,,,1,0,0,,-1512,14104,7320,-291,451,-138
33.547,33.46,-2.32,10.24,-11.25,15.51,-15.24,-3.44,-0.55,-4.00,0.40,333.00,461.00,249.00,135.00,542.00,1165.00,871.00,1232.00,,,,,,,,,,,,1,0,0,,-1428,14268,7180,-200,391,-284
33.609,33.51,-2.43,-3.71,0.20,-9.63,-0.38,-4.53,2.68,-3.44,2.64,231.00,589.00,176.00,245.00,464.00,1115.00,764.00,1135.00,,,,,,,,,,,,1,0,0,,-1184,14044,6996,-63,269,-197
33.693,33.57,-2.35,-6.19,7.93,-13.44,9.09,-0.81,-1.16,0.33,-1.24,159.00,528.00,113.00,221.00,534.00,1067.00,880.00,1085.00,,,,,,,,,,,,1,0,0,,-1444,14220,7120,-198,6,-364
33.712,33.62,-2.27,1.22,-0.89,-4.55,0.26,-0.63,-1.60,-0.84,-0.47,224.00,499.00,155.00,197.00,545.00,1072.00,862.00,1113.00,,,,,,,,,,,,1,0,0,,-1364,13992,7460,-358,-35,-574
33.775,33.68,-2.35,2.02,-2.67,5.33,-7.01,-3.97,0.72,-3.25,0.84,243.00,507.00,192.00,162.00,511.00,1150.00,839.00,1182.00,,,,,,,,,,,,1,0,0,,-1336,14308,7664,-262,96,-316
33.834,33.73,-2.44,-4.98,2.83,-13.98,2.28,-4.07,2.41,-2.37,1.73,205.00,577.00,165.00,271.00,467.00,1103.00,787.00,1115.00,,,,,,,,,,,,1,0,0,,-1568,14216,7800,747,341,-508
33.876,33.79,-2.19,-4.62,7.87,-13.38,13.48,2.59,-4.27,2.94,-3.43,155.00,497.00,89.00,196.00,594.00,1014.00,945.00,1038.00,,,,,,,,,,,,1,0,0,,-1568,13840,7304,976,248,-404
33.977,33.84,-2.31,12.30,-9.64,25.73,-18.75,-4.73,0.44,-5.03,1.44,294.00,407.00,250.00,99.00,526.00,1194.00,839.00,1248.00,,,,,,,,,,,,1,0,0,,-1736,13856,7200,1304,187,-296
33.998,33.90,-2.48,-8.36,3.43,-15.93,1.74,-5.64,4.59,-4.57,4.11,211.00,649.00,176.00,297.00,427.00,1107.00,720.00,1141.00,,,,,,,,,,,,1,0,0,,-1636,14224,7196,1035,512,-142
34.038,33.95,-2.22,-9.35,13.88,-21.72,23.56,2.79,-4.68,3.75,-4.09,122.00,510.00,60.00,208.00,605.00,1017.00,965.00,1023.00,,,,,,,,,,,,1,0,0,,-1640,14748,6484,663,504,-92
34.098,34.01,-2.26,9.67,-9.01,13.96,-14.04,-3.04,-0.96,-3.01,-0.09,298.00,444.00,240.00,139.00,550.00,1159.00,879.00,1201.00,,,,,,,,,,,,1,0,0,,-1676,14384,6596,599,63,-461
34.179,34.06,-2.34,-2.42,0.16,-6.57,-1.72,-4.00,2.31,-3.67,3.08,226.00,560.00,179.00,225.00,469.00,1103.00,749.00,1132.00,,,,,,,,,,,,1,0,0,,-1836,14340,6672,747,-91,-662
34.2,34.12,-2.31,-6.19,7.93,-10.61,7.18,-1.72,-0.54,-0.43,-0.32,159.00,528.00,119.00,208.00,525.00,1088.00,849.00,1091.00,,,,,,,,,,,,1,0,0,,-2028,14408,6532,825,4,-567
34.262,34.17,-2.21,0.20,0.38,-4.96,2.02,-0.19,-2.25,0.23,-0.89,213.00,502.00,142.00,191.00,560.00,1072.00,865.00,1079.00,,,,,,,,,,,,1,0,0,,-1892,14580,6376,616,105,-463
34.326,34.23,-2.31,4.02,-3.03,8.49,-9.56,-4.19,0.36,-3.70,1.04,239.00,473.00,208.00,153.00,523.00,1171.00,837.00,1197.00,,,,,,,,,,,,1,0,0,,-1848,14516,6528,869,274,-639
34.406,34.28,-2.41,-5.24,3.28,-14.49,2.91,-4.31,2.73,-2.34,2.05,201.00,576.00,161.00,272.00,461.00,1104.00,773.00,1104.00,,,,,,,,,,,,1,0,0,,-2116,14504,6204,768,516,-435
34.427,34.34,-2.15,-5.12,8.16,-13.17,12.79,2.71,-4.74,2.73,-2.26,154.00,503.00,92.00,198.00,608.00,1022.00,890.00,1014.00,,,,,,,,,,,,1,0,0,,-2072,14612,5852,772,596,-436
34.489,34.39,-2.30,11.35,-9.94,24.88,-18.98,-5.23,0.15,-5.44,1.51,304.00,426.00,257.00,103.00,539.00,1227.00,842.00,1266.00,,,,,,,,,,,,1,0,0,,-2148,14124,6056,1038,640,-205
34.549,34.45,-2.47,-6.64,1.42,-16.97,1.68,-5.71,4.36,-3.99,3.92,228.00,640.00,180.00,310.00,433.00,1117.00,720.00,1121.00,,,,,,,,,,,,1,0,0,,-2100,14564,5496,469,465,-349
34.63,34.50,-2.27,-12.40,16.32,-20.60,19.31,1.57,-4.39,2.81,-3.68,113.00,539.00,74.00,223.00,609.00,1059.00,960.00,1050.00,,,,,,,,,,,,1,0,0,,-2312,14916,5776,339,210,-175
34.651,34.56,-2.31,9.33,-9.26,11.78,-12.92,-3.09,-0.97,-3.66,0.92,304.00,453.00,235.00,147.00,551.00,1162.00,842.00,1199.00,,,,,,,,,,,,1,0,0,,-2068,14968,6152,306,332,-273
34.712,34.61,-2.42,-3.24,-0.12,-7.44,-1.73,-4.54,2.10,-3.36,2.49,233.00,583.00,182.00,233.00,479.00,1133.00,769.00,1136.00,,,,,,,,,,,,1,0,0,,-2152,14608,5904,432,378,-502
34.774,34.67,-2.43,-3.50,3.54,-10.24,3.53,-2.58,0.25,-0.74,0.20,192.00,534.00,144.00,226.00,511.00,1102.00,830.00,1089.00,,,,,,,,,,,,1,0,0,,-2328,14668,6040,736,328,-114
34.814,34.72,-2.30,0.79,-1.95,-6.43,3.04,0.18,-2.80,0.57,-0.94,239.00,522.00,138.00,197.00,573.00,1072.00,862.00,1066.00,,,,,,,,,,,,1,0,0,,-2260,14596,5684,1059,489,167
34.876,34.78,-2.38,5.22,-5.27,8.61,-10.21,-3.94,-0.00,-3.73,1.52,264.00,479.00,215.00,155.00,531.00,1171.00,816.00,1183.00,,,,,,,,,,,,1,0,0,,-2300,14840,5584,754,513,102
34.936,34.83,-2.49,-3.83,0.56,-12.87,0.09,-4.43,3.01,-2.19,2.51,227.00,586.00,182.00,275.00,455.00,1101.00,752.00,1084.00,,,,,,,,,,,,1,0,0,,-2336,14976,5456,880,705,469
34.976,34.89,-2.16,-5.40,6.98,-16.54,16.28,4.04,-5.67,5.31,-4.21,165.00,525.00,81.00,206.00,624.00,994.00,944.00,965.00,,,,,,,,,,,,1,0,0,,-2116,14952,5116,1838,809,769
35.039,34.94,-2.28,14.38,-12.53,26.76,-19.89,-4.56,-0.41,-5.43,1.89,331.00,405.00,261.00,98.00,549.00,1213.00,825.00,1253.00,,,,,,,,,,,,1,0,0,,-1892,15300,5288,1719,737,139
35.1,35.00,-2.43,-7.03,2.04,-16.91,2.07,-5.19,3.60,-3.83,4.25,222.00,639.00,176.00,306.00,447.00,1117.00,705.00,1104.00,,,,,,,,,,,,1,0,0,,-1824,15532,4708,1286,610,-281
35.141,35.05,-2.22,-9.13,10.87,-16.98,13.48,1.68,-4.55,3.23,-3.65,143.00,548.00,95.00,226.00,613.00,1059.00,951.00,1032.00,,,,,,,,,,,,1,0,0,,-1788,15396,4684,921,226,-621
35.204,35.11,-2.25,9.46,-9.37,11.54,-11.78,-2.72,-1.30,-2.60,0.43,305.00,452.00,222.00,144.00,557.00,1155.00,848.00,1165.00,,,,,,,,,,,,1,0,0,,-2208,15384,4516,861,108,-911
35.265,35.16,-2.33,-2.60,-0.81,-5.37,-3.32,-3.99,1.20,-3.12,2.17,239.00,579.00,191.00,224.00,498.00,1136.00,779.00,1135.00,,,,,,,,,,,,1,0,0,,-2284,15288,4140,387,262,-697
35.328,35.22,-2.35,-1.25,-0.95,-8.91,-0.51,-2.61,-0.35,-1.15,0.23,235.00,551.00,175.00,239.00,528.00,1121.00,835.00,1106.00,,,,,,,,,,,,1,0,0,,-2452,15336,4284,-218,56,-555
35.369,35.27,-2.23,-1.33,-0.28,-7.25,2.40,0.01,-3.09,0.51,-1.30,227.00,543.00,145.00,207.00,584.00,1088.00,880.00,1079.00,,,,,,,,,,,,1,0,0,,-2376,15336,4360,-317,138,-200
35.45,35.33,-2.34,7.01,-8.84,12.08,-14.60,-4.38,-0.27,-4.05,1.40,310.00,491.00,256.00,152.00,543.00,1200.00,826.00,1202.00,,,,,,,,,,,,1,0,0,,-2264,14936,4912,-242,120,-559
35.512,35.38,-2.45,-4.38,-0.13,-17.62,5.39,-4.64,2.68,-2.91,3.12,238.00,610.00,149.00,288.00,465.00,1120.00,737.00,1097.00,,,,,,,,,,,,1,0,0,,-2156,14856,4560,55,221,-312
35.532,35.44,-2.15,-4.85,7.25,-16.07,15.23,3.60,-5.58,5.61,-4.27,161.00,510.00,85.00,208.00,626.00,1009.00,942.00,955.00,,,,,,,,,,,,1,0,0,,-2344,15236,4540,525,-82,-320
35.593,35.49,-2.28,15.97,-15.42,29.20,-22.72,-4.71,-0.53,-4.74,1.50,376.00,411.00,291.00,96.00,554.00,1224.00,832.00,1232.00,,,,,,,,,,,,1,0,0,,-2336,15240,4720,611,-311,-484
35.634,35.55,-2.44,-7.64,2.09,-16.15,1.20,-5.50,3.62,-3.58,3.78,224.00,654.00,182.00,304.00,449.00,1130.00,720.00,1107.00,,,,,,,,,,,,1,0,0,,-2292,15172,4504,298,104,-72
35.694,35.60,-2.26,-5.94,5.97,-13.28,9.20,1.04,-4.03,3.29,-3.16,176.00,551.00,112.00,219.00,603.00,1071.00,925.00,1016.00,,,,,,,,,,,,1,0,0,,-2016,15136,4216,-725,322,-75
35.755,35.66,-2.26,10.01,-9.85,10.64,-10.72,-2.26,-1.58,-2.30,0.37,310.00,448.00,213.00,145.00,561.00,1143.00,846.00,1153.00,,,,,,,,,,,,1,0,0,,-2404,15404,4020,302,220,-799
35.796,35.71,-2.30,-1.88,-1.81,-4.18,-3.72,-3.04,-0.31,-2.01,1.03,249.00,578.00,191.00,216.00,531.00,1139.00,812.00,1120.00,,,,,,,,,,,,1,0,0,,-2884,15280,3668,479,-59,-707
35.898,35.77,-2.32,-0.06,-1.81,-7.52,-1.30,-2.64,-0.34,-0.76,0.16,241.00,538.00,178.00,231.00,528.00,1122.00,832.00,1091.00,,,,,,,,,,,,1,0,0,,-2872,15208,3924,-300,-341,-265
35.919,35.82,-2.16,-1.24,0.69,-6.37,2.75,0.91,-4.07,1.57,-2.09,215.00,527.00,140.00,198.00,606.00,1078.00,901.00,1057.00,,,,,,,,,,,,1,0,0,,-2684,15284,4256,103,-136,-106
35.98,35.88,-2.25,6.79,-8.89,11.26,-13.89,-4.06,-0.65,-3.91,1.20,312.00,496.00,250.00,154.00,551.00,1197.00,833.00,1202.00,,,,,,,,,,,,1,0,0,,-2312,14880,4380,561,11,-11
36.022,35.93,-2.40,-4.65,-0.27,-14.46,1.25,-5.13,2.61,-3.02,2.81,241.00,619.00,176.00,284.00,471.00,1144.00,751.00,1111.00,,,,,,,,,,,,1,0,0,,-2360,15832,3408,1188,189,-293
36.084,35.99,-2.12,-6.91,7.94,-15.95,14.34,3.12,-5.97,4.73,-4.50,161.00,543.00,89.00,212.00,645.00,1039.00,969.00,995.00,,,,,,,,,,,,1,0,0,,-2576,15716,3256,640,-20,-785
36.146,36.04,-2.23,13.75,-15.11,21.79,-20.42,-4.32,-0.86,-4.24,0.92,385.00,445.00,294.00,121.00,560.00,1216.00,851.00,1227.00,,,,,,,,,,,,1,0,0,,-2616,15152,3644,74,-95,-889
36.247,36.10,-2.35,-3.73,-2.05,-11.64,-1.31,-4.70,2.08,-2.77,2.32,261.00,626.00,192.00,272.00,481.00,1141.00,768.00,1115.00,,,,,,,,,,,,1,0,0,,-2796,15348,3760,-315,-226,-904
36.289,36.15,-2.22,-3.81,3.17,-9.96,4.63,0.32,-3.44,2.33,-2.57,197.00,546.00,135.00,217.00,592.00,1085.00,912.00,1039.00,,,,,,,,,,,,1,0,0,,-2712,15244,3996,36,-168,-719
36.309,36.21,-2.23,7.54,-7.92,7.29,-8.97,-2.32,-1.70,-1.77,0.15,292.00,469.00,206.00,158.00,565.00,1149.00,848.00,1136.00,,,,,,,,,,,,1,0,0,,-2908,15440,4064,-337,-96,-794
36.35,36.26,-2.26,-0.38,-3.04,-1.40,-5.87,-2.89,-1.14,-1.61,0.40,259.00,563.00,204.00,205.00,554.00,1158.00,834.00,1121.00,,,,,,,,,,,,1,0,0,,-2808,15584,4044,-147,207,-964
36.412,36.32,-2.28,-1.51,-1.17,-8.40,-1.10,-2.67,-0.15,-0.85,0.39,239.00,560.00,179.00,238.00,523.00,1118.00,823.00,1088.00,,,,,,,,,,,,1,0,0,,-2780,15484,4048,482,654,-1122
36.473,36.37,-2.08,-1.00,0.27,-8.41,4.11,1.71,-5.15,2.53,-3.16,219.00,528.00,135.00,207.00,633.00,1075.00,938.00,1047.00,,,,,,,,,,,,1,0,0,,-2996,15472,3920,758,703,-1509
36.534,36.43,-2.19,9.31,-10.20,13.72,-15.01,-4.32,-0.86,-3.81,0.99,320.00,465.00,254.00,144.00,560.00,1216.00,841.00,1204.00,,,,,,,,,,,,1,0,0,,-3140,15412,3888,1322,285,-1881
36.616,36.48,-2.34,-4.93,-0.10,-14.15,0.53,-5.20,2.75,-2.79,2.71,240.00,623.00,182.00,286.00,468.00,1143.00,752.00,1104.00,,,,,,,,,,,,1,0,0,,-3628,15264,3328,1069,-229,-2105
36.636,36.54,-2.03,-8.90,10.67,-17.37,16.79,3.86,-7.06,5.92,-5.61,144.00,546.00,80.00,210.00,675.00,1039.00,1007.00,978.00,,,,,,,,,,,,1,0,0,,-3944,14692,3592,92,-426,-1530
36.679,36.59,-2.17,15.18,-15.15,28.97,-22.77,-4.75,-1.07,-5.08,1.05,376.00,421.00,293.00,97.00,571.00,1244.00,858.00,1264.00,,,,,,,,,,,,1,0,0,,-4120,14508,3472,-332,-260,-798
36.76,36.65,-2.31,-5.34,-0.79,-13.99,-0.61,-4.93,1.55,-3.15,2.09,251.00,645.00,193.00,293.00,497.00,1168.00,783.00,1139.00,,,,,,,,,,,,1,0,0,,-4364,14788,3384,-735,-311,-274
36.8,36.70,-2.15,-5.66,5.36,-13.96,7.25,0.83,-4.17,0.94,-2.25,181.00,554.00,126.00,237.00,610.00,1084.00,919.00,1088.00,,,,,,,,,,,,1,0,0,,-4236,15384,3840,-758,-411,266
36.862,36.76,-2.14,9.17,-10.16,8.62,-10.47,-1.92,-2.35,-1.65,-0.26,320.00,467.00,218.00,156.00,581.00,1151.00,865.00,1143.00,,,,,,,,,,,,1,0,0,,-4000,15336,4116,-227,54,526
36.904,36.81,-2.17,0.11,-2.62,0.90,-6.83,-2.74,-1.39,-1.88,0.41,251.00,546.00,206.00,192.00,560.00,1159.00,838.00,1133.00,,,,,,,,,,,,1,0,0,,-3816,15344,3772,42,340,151
36.984,36.87,-2.22,-1.18,-1.59,-8.18,-1.58,-3.22,-0.14,-0.98,0.48,243.00,559.00,183.00,239.00,528.00,1142.00,821.00,1091.00,,,,,,,,,,,,1,0,0,,-3688,15308,3480,-130,388,-230
37.006,36.92,-2.09,-2.38,1.95,-8.86,4.96,0.30,-4.70,2.76,-3.35,205.00,533.00,130.00,206.00,634.00,1123.00,944.00,1043.00,,,,,,,,,,,,1,0,0,,-3912,14904,3284,-314,276,243
37.065,36.98,-2.22,9.33,-10.15,17.64,-16.68,-4.53,-0.75,-4.16,1.28,319.00,464.00,259.00,129.00,559.00,1223.00,833.00,1211.00,,,,,,,,,,,,1,0,0,,-3788,15128,3308,-937,150,787
37.126,37.03,-2.37,-5.04,-0.06,-14.80,-0.05,-5.21,2.79,-2.93,3.23,240.00,625.00,190.00,298.00,467.00,1142.00,733.00,1095.00,,,,,,,,,,,,1,0,0,,-3604,15300,4088,-429,92,728
37.188,37.09,-2.02,-9.03,11.77,-18.63,18.65,4.47,-7.37,6.02,-5.64,136.00,533.00,74.00,210.00,679.00,1023.00,1007.00,975.00,,,,,,,,,,,,1,0,0,,-3272,15644,4248,-29,271,332
37.229,37.14,-2.13,16.44,-15.48,27.97,-22.44,-4.22,-1.19,-4.65,0.94,374.00,404.00,293.00,100.00,569.00,1222.00,856.00,1246.00,,,,,,,,,,,,1,0,0,,-3328,15380,4140,207,173,-153
37.291,37.20,-2.24,-5.59,-0.70,-12.80,-1.85,-4.32,1.16,-2.67,1.97,251.00,650.00,202.00,289.00,502.00,1152.00,781.00,1121.00,,,,,,,,,,,,1,0,0,,-3336,15304,4008,819,-72,-349
37.353,37.25,-2.10,-5.49,5.30,-11.86,6.25,0.58,-3.60,2.48,-2.72,181.00,551.00,128.00,224.00,594.00,1078.00,917.00,1037.00,,,,,,,,,,,,1,0,0,,-3404,15216,3824,861,27,125
37.415,37.31,-2.09,7.70,-7.91,7.03,-9.07,-1.83,-2.28,-1.68,-0.31,291.00,466.00,208.00,160.00,578.00,1145.00,868.00,1146.00,,,,,,,,,,,,1,0,0,,-2988,15456,3304,-388,-380,182
37.477,37.36,-2.14,1.60,-4.33,1.75,-7.29,-3.09,-1.11,-1.59,0.11,268.00,539.00,208.00,188.00,555.00,1166.00,847.00,1129.00,,,,,,,,,,,,1,0,0,,-3128,15396,3752,299,-308,-412
37.52,37.42,-2.18,-1.31,-1.47,-8.59,-1.45,-3.06,0.05,-1.09,0.66,242.00,560.00,183.00,242.00,521.00,1129.00,815.00,1091.00,,,,,,,,,,,,1,0,0,,-3096,15244,3612,-27,-244,-413
37.601,37.47,-2.00,-1.53,1.05,-9.46,5.30,1.60,-5.20,2.92,-3.41,212.00,528.00,129.00,209.00,636.00,1081.00,944.00,1038.00,,,,,,,,,,,,1,0,0,,-3252,15256,3604,-133,-308,-455
37.623,37.53,-2.08,9.60,-10.47,20.28,-17.57,-3.79,-1.36,-3.97,1.20,323.00,463.00,259.00,119.00,570.00,1207.00,834.00,1205.00,,,,,,,,,,,,1,0,0,,-3224,15456,3688,-290,-648,-405
37.724,37.58,-2.23,-4.72,-0.48,-14.92,0.38,-5.02,2.85,-3.03,3.44,244.00,624.00,186.00,296.00,464.00,1132.00,726.00,1093.00,,,,,,,,,,,,1,0,0,,-3292,15504,3708,371,-724,-231
37.744,37.64,-1.87,-8.85,11.57,-18.76,17.96,4.96,-7.51,6.37,-5.71,137.00,532.00,77.00,215.00,678.00,1007.00,1004.00,963.00,,,,,,,,,,,,1,0,0,,-3304,15364,3708,212,-291,-246
37.785,37.69,-1.97,15.07,-14.82,24.59,-20.66,-3.93,-1.22,-3.92,0.72,370.00,419.00,283.00,109.00,567.00,1209.00,855.00,1218.00,,,,,,,,,,,,1,0,0,,-3180,15524,3996,102,190,-111
37.847,37.75,-2.09,-3.69,-2.00,-10.94,-2.75,-4.21,1.16,-2.80,1.90,260.00,624.00,205.00,275.00,501.00,1147.00,786.00,1129.00,,,,,,,,,,,,1,0,0,,-3252,15520,3760,392,616,-216
37.888,37.80,-1.95,-5.07,5.78,-12.86,8.57,0.74,-3.59,2.37,-2.52,175.00,535.00,115.00,219.00,592.00,1071.00,909.00,1036.00,,,,,,,,,,,,1,0,0,,-3380,15408,3448,446,484,-335
37.949,37.86,-1.91,6.16,-6.74,5.95,-8.16,-1.32,-2.45,-0.94,-0.45,281.00,480.00,202.00,163.00,578.00,1127.00,863.00,1117.00,,,,,,,,,,,,1,0,0,,-3492,15200,3292,476,258,-274
38.01,37.91,-1.95,1.42,-3.92,1.64,-7.52,-2.69,-1.54,-2.09,0.32,263.00,537.00,211.00,190.00,564.00,1161.00,845.00,1145.00,,,,,,,,,,,,1,0,0,,-3416,15388,3784,540,435,-47
38.093,37.97,-2.02,-2.36,-0.96,-9.36,-0.47,-3.25,0.47,-1.70,0.90,240.00,576.00,176.00,243.00,511.00,1125.00,813.00,1110.00,,,,,,,,,,,,1,0,0,,-3304,15224,3312,550,732,-92
38.114,38.02,-1.81,-2.31,2.20,-8.42,4.67,2.19,-5.37,2.98,-3.56,202.00,528.00,131.00,204.00,635.00,1061.00,951.00,1040.00,,,,,,,,,,,,1,0,0,,-3468,15620,3084,192,570,-256
38.175,38.08,-1.92,10.29,-11.32,18.69,-17.94,-4.15,-0.95,-3.99,0.92,334.00,461.00,272.00,128.00,561.00,1211.00,847.00,1215.00,,,,,,,,,,,,1,0,0,,-3524,15576,3312,-84,592,-120
38.217,38.13,-2.10,-5.11,-0.19,-15.87,1.41,-5.37,3.33,-3.28,3.50,242.00,629.00,179.00,299.00,455.00,1133.00,727.00,1102.00,,,,,,,,,,,,1,0,0,,-3560,15108,2852,-86,524,-271
38.279,38.19,-1.75,-9.28,11.58,-20.76,20.39,4.83,-7.14,6.56,-5.82,138.00,541.00,70.00,218.00,666.00,1002.00,1007.00,959.00,,,,,,,,,,,,1,0,0,,-3792,15200,3300,-343,282,7
38.342,38.24,-1.83,14.79,-14.58,23.23,-19.67,-3.40,-1.75,-3.86,0.72,367.00,421.00,275.00,112.00,578.00,1201.00,854.00,1215.00,,,,,,,,,,,,1,0,0,,-3656,15528,3428,365,549,494
38.384,38.30,-1.94,-3.85,-1.51,-10.58,-2.87,-3.96,1.19,-2.13,1.74,254.00,620.00,205.00,272.00,498.00,1135.00,783.00,1104.00,,,,,,,,,,,,1,0,0,,-3460,15808,3196,192,679,534
38.486,38.35,-1.80,-4.92,6.05,-9.65,3.34,0.76,-3.41,2.79,-2.38,172.00,528.00,144.00,222.00,586.00,1065.00,895.00,1015.00,,,,,,,,,,,,1,0,0,,-3156,15956,3548,289,842,246
38.507,38.41,-1.75,5.23,-6.88,1.34,-5.67,-0.69,-2.53,-0.46,-0.78,288.00,500.00,192.00,183.00,574.00,1102.00,871.00,1106.00,,,,,,,,,,,,1,0,0,,-3004,15660,2692,440,691,-398
38.549,38.46,-1.78,1.60,-3.92,1.40,-7.17,-2.38,-1.51,-1.85,0.26,262.00,533.00,208.00,190.00,560.00,1146.00,844.00,1136.00,,,,,,,,,,,,1,0,0,,-3472,15216,2676,776,39,-539
38.61,38.52,-1.87,-2.79,-1.35,-11.45,0.23,-3.50,1.11,-1.70,1.11,247.00,592.00,176.00,259.00,496.00,1117.00,804.00,1104.00,,,,,,,,,,,,1,0,0,,-3612,15340,2616,87,-309,-194
38.671,38.57,-1.63,-2.31,2.20,-11.03,6.56,2.94,-5.77,3.48,-3.69,202.00,528.00,124.00,215.00,640.00,1041.00,949.00,1023.00,,,,,,,,,,,,1,0,0,,-3328,15488,2740,-158,-108,-21
38.71,38.63,-1.74,10.43,-11.37,31.10,-21.42,-3.87,-1.24,-4.24,0.85,334.00,459.00,262.00,86.00,567.00,1207.00,854.00,1229.00,,,,,,,,,,,,1,0,0,,-3448,15444,3080,-19,132,203
38.813,38.68,-1.92,-5.07,-1.24,-16.17,1.10,-5.35,3.40,-3.63,3.62,256.00,646.00,183.00,305.00,453.00,1130.00,727.00,1114.00,,,,,,,,,,,,1,0,0,,-3276,15644,2988,-413,184,269
38.834,38.74,-1.60,-9.64,12.66,-18.97,18.27,4.42,-6.75,5.82,-5.39,131.00,533.00,76.00,215.00,657.00,1008.00,997.00,976.00,,,,,,,,,,,,1,0,0,,-3056,15676,2972,-301,207,-97
38.896,38.79,-1.69,14.53,-14.29,21.79,-18.85,-3.32,-1.62,-3.42,0.45,363.00,422.00,270.00,116.00,573.00,1193.00,860.00,1203.00,,,,,,,,,,,,1,0,0,,-3196,15588,2864,-143,239,-154
38.938,38.85,-1.80,-3.67,-1.71,-8.82,-3.65,-3.84,1.41,-2.61,2.21,256.00,619.00,207.00,259.00,491.00,1123.00,770.00,1111.00,,,,,,,,,,,,1,0,0,,-3264,15484,2740,327,28,-29
39.001,38.90,-1.70,-6.17,7.12,-11.83,7.75,0.05,-2.33,2.55,-2.32,166.00,539.00,118.00,215.00,560.00,1064.00,896.00,1023.00,,,,,,,,,,,,1,0,0,,-3148,15740,2776,3,-126,-259
39.064,38.96,-1.64,3.47,-5.10,-1.91,-4.39,-0.37,-2.71,-0.72,-0.20,270.00,511.00,190.00,201.00,576.00,1093.00,848.00,1100.00,,,,,,,,,,,,1,0,0,,-3184,15432,2988,-76,-130,-215
39.106,39.01,-1.68,2.21,-4.47,3.36,-7.83,-2.52,-1.36,-1.79,0.18,267.00,528.00,208.00,179.00,557.00,1148.00,847.00,1136.00,,,,,,,,,,,,1,0,0,,-3244,15524,3004,-624,-140,-188
39.189,39.07,-1.74,-4.16,0.11,-12.51,-0.03,-2.79,0.39,-1.80,1.35,234.00,601.00,182.00,272.00,509.00,1107.00,795.00,1101.00,,,,,,,,,,,,1,0,0,,-3156,15576,3128,-101,159,-379
39.21,39.12,-1.48,-2.95,2.23,-9.79,6.14,3.38,-5.77,3.79,-3.97,204.00,541.00,124.00,207.00,635.00,1023.00,958.00,1018.00,,,,,,,,,,,,1,0,0,,-3276,15692,3004,-25,233,-626
39.273,39.18,-1.60,10.56,-10.91,18.84,-17.58,-3.91,-1.00,-4.08,0.86,325.00,451.00,266.00,126.00,560.00,1201.00,851.00,1221.00,,,,,,,,,,,,1,0,0,,-3732,15736,2828,-99,-2,-73
39.337,39.23,-1.79,-7.06,1.01,-17.62,1.69,-5.29,3.34,-3.50,3.52,235.00,658.00,182.00,318.00,454.00,1129.00,729.00,1111.00,,,,,,,,,,,,1,0,0,,-3264,15484,2680,-159,-284,175
39.379,39.29,-1.48,-10.20,13.14,-19.70,19.01,4.38,-6.87,5.74,-5.31,129.00,538.00,74.00,217.00,662.00,1013.00,994.00,977.00,,,,,,,,,,,,1,0,0,,-3268,15500,3000,-252,259,191
39.462,39.34,-1.57,12.42,-12.90,16.46,-17.19,-3.30,-1.40,-3.62,0.56,350.00,442.00,272.00,137.00,566.00,1185.00,858.00,1209.00,,,,,,,,,,,,1,0,0,,-2904,15748,3008,-191,346,-181
39.487,39.40,-1.69,-3.78,-1.31,-8.46,-3.59,-3.92,1.28,-2.44,2.23,251.00,615.00,205.00,255.00,495.00,1130.00,767.00,1103.00,,,,,,,,,,,,1,0,0,,-3252,15576,2964,105,269,-197
