Time_Host,Time_Arduino,easingdata,CH1_Oxy,CH1_Deoxy,CH2_Oxy,CH2_Deoxy,CH3_Oxy,CH3_Deoxy,CH4_Oxy,CH4_Deoxy,CH1_PD730,CH1_PD850,CH2_PD730,CH2_PD850,CH3_PD730,CH3_PD850,CH4_PD730,CH4_PD850,Answers,airplane_playstate,trail_times,frameRate,Airplane X,Airplane Y,Correct,Wrong,Slow,AnswerRate,CorrectRate,VFTstates,VFTchoose,VFTCount,Culfstates,ax,ay,az,gx,gy,gz
0.105,0.04,0.00,0.00,0.00,0.00,0.00,0.00,0.00,0.00,0.00,473.00,1410.00,475.00,746.00,988.00,1741.00,4095.00,4095.00,,,,,,,,,,,,0,1,0,,920,13504,7984,134,127,-238
0.166,0.10,0.00,0.00,0.00,0.00,0.00,0.00,0.00,0.00,0.00,698.00,1367.00,641.00,707.00,911.00,1870.00,4095.00,4095.00,,,,,,,,,,,,0,1,0,,776,13416,7856,-398,82,48
0.249,0.16,0.00,0.00,0.00,0.00,0.00,0.00,0.00,0.00,0.00,593.00,1490.00,562.00,791.00,861.00,1810.00,4095.00,4095.00,,,,,,,,,,,,0,1,0,,1072,13488,8136,-395,-44,136
0.27,0.21,0.00,0.00,0.00,0.00,0.00,0.00,0.00,0.00,0.00,523.00,1425.00,511.00,753.00,960.00,1781.00,4095.00,4095.00,,,,,,,,,,,,0,1,0,,1124,13644,8308,-606,-205,35
0.332,0.27,0.00,0.00,0.00,0.00,0.00,0.00,0.00,0.00,0.00,604.00,1424.00,558.00,741.00,913.00,1817.00,4095.00,4095.00,,,,,,,,,,,,0,1,0,,1124,13592,8412,-641,-292,-74
0.434,0.32,0.00,0.00,0.00,0.00,0.00,0.00,0.00,0.00,0.00,603.00,1451.00,575.00,741.00,902.00,1847.00,4095.00,4095.00,,,,,,,,,,,,0,1,0,,1200,13512,8608,-143,-240,-246
0.455,0.37,0.00,0.00,0.00,0.00,0.00,0.00,0.00,0.00,0.00,585.00,1520.00,555.00,794.00,887.00,1827.00,4095.00,4095.00,,,,,,,,,,,,0,1,0,,1000,13388,8568,-151,-50,-143
0.497,0.43,0.00,0.00,0.00,0.00,0.00,0.00,0.00,0.00,0.00,555.00,1468.00,532.00,752.00,967.00,1778.00,4095.00,4095.00,,,,,,,,,,,,0,1,0,,1160,13488,8452,-112,143,5
0.558,0.49,0.00,0.00,0.00,0.00,0.00,0.00,0.00,0.00,0.00,674.00,1417.00,623.00,699.00,910.00,1905.00,4095.00,4095.00,,,,,,,,,,,,0,1,0,,1100,13460,8096,-282,120,33
0.619,0.54,0.00,0.00,0.00,0.00,0.00,0.00,0.00,0.00,0.00,590.00,1590.00,557.00,820.00,838.00,1823.00,4095.00,4095.00,,,,,,,,,,,,0,1,0,,1248,13576,8212,-611,-54,-107
0.663,0.60,0.15,-3.88,6.14,-2.45,3.98,3.06,-2.60,0.00,0.00,454.00,1440.00,471.00,747.00,995.00,1729.00,4095.00,4095.00,,,,,,,,,,,,0,1,0,,1244,13308,8312,-882,-157,-61
0.766,0.65,0.09,6.05,-5.04,6.13,-4.62,-1.18,0.57,0.00,0.00,694.00,1312.00,642.00,670.00,905.00,1878.00,4095.00,4095.00,,,,,,,,,,,,0,1,0,,1228,13336,8524,-1127,-344,-61
0.807,0.70,0.05,-0.59,-0.06,-2.21,0.38,-0.72,1.62,0.00,0.00,598.00,1493.00,570.00,815.00,848.00,1793.00,4095.00,4095.00,,,,,,,,,,,,0,1,0,,1248,13364,8716,-160,-339,-356
0.827,0.76,0.12,-0.61,2.07,-1.41,2.20,1.60,-0.72,0.00,0.00,533.00,1411.00,509.00,752.00,923.00,1742.00,4095.00,4095.00,,,,,,,,,,,,0,1,0,,1288,13172,8712,16,-126,-321
0.869,0.81,0.11,3.39,-2.47,2.80,-2.35,-0.07,0.47,0.00,0.00,634.00,1361.00,603.00,719.00,892.00,1802.00,4095.00,4095.00,,,,,,,,,,,,0,1,0,,1264,13296,8424,138,112,-334
0.952,0.87,0.08,0.87,-0.46,0.12,-0.60,-0.46,0.70,0.00,0.00,595.00,1424.00,576.00,763.00,887.00,1819.00,4095.00,4095.00,,,,,,,,,,,,0,1,0,,1196,13252,8408,47,38,-174
0.993,0.93,0.07,-0.13,0.32,-0.99,0.26,-0.23,0.77,0.00,0.00,581.00,1451.00,561.00,779.00,880.00,1799.00,4095.00,4095.00,,,,,,,,,,,,0,1,0,,1136,13244,8420,-250,-29,-31
1.074,0.98,0.13,0.12,0.92,-0.24,0.71,1.38,-1.13,0.00,0.00,560.00,1414.00,540.00,747.00,947.00,1776.00,4095.00,4095.00,,,,,,,,,,,,0,1,0,,1160,13352,8500,-267,42,-150
1.094,1.03,0.05,3.97,-3.69,3.74,-2.99,-1.53,1.21,0.00,0.00,670.00,1374.00,614.00,705.00,880.00,1872.00,4095.00,4095.00,,,,,,,,,,,,0,1,0,,1304,13424,8520,-282,207,-198
1.156,1.09,-0.03,-1.64,0.48,-3.20,1.34,-1.52,2.44,0.00,0.00,592.00,1534.00,551.00,826.00,823.00,1810.00,4095.00,4095.00,,,,,,,,,,,,0,1,0,,1256,13400,8596,-206,180,-303
1.217,1.14,0.12,-2.84,4.12,-2.22,3.29,2.89,-2.40,0.00,0.00,497.00,1459.00,487.00,754.00,987.00,1731.00,4095.00,4095.00,,,,,,,,,,,,0,1,0,,1260,13104,8672,-116,4,-235
1.278,1.20,0.01,4.87,-5.40,5.71,-4.88,-1.97,1.33,0.00,0.00,723.00,1388.00,656.00,686.00,881.00,1898.00,4095.00,4095.00,,,,,,,,,,,,0,1,0,,1232,13532,8576,37,43,-214
1.319,1.25,-0.06,-2.68,0.37,-3.53,0.63,-1.54,2.05,0.00,0.00,607.00,1603.00,576.00,853.00,841.00,1831.00,4095.00,4095.00,,,,,,,,,,,,0,1,0,,1232,13328,8536,22,22,-274
1.381,1.31,0.01,-2.05,1.85,-2.29,1.89,1.34,-0.80,0.00,0.00,554.00,1503.00,526.00,785.00,931.00,1763.00,4095.00,4095.00,,,,,,,,,,,,0,1,0,,1212,13276,8764,-166,65,-285
1.443,1.36,-0.03,2.94,-2.95,2.44,-2.38,-0.77,0.91,0.00,0.00,656.00,1403.00,608.00,730.00,882.00,1831.00,4095.00,4095.00,,,,,,,,,,,,0,1,0,,1212,13196,8652,119,186,-72
1.484,1.42,-0.05,0.48,-0.57,-0.83,-0.21,-0.33,1.12,0.00,0.00,603.00,1451.00,574.00,784.00,865.00,1789.00,4095.00,4095.00,,,,,,,,,,,,0,1,0,,1188,13320,8368,8,281,-69
1.546,1.47,-0.05,0.45,-0.22,-0.97,-0.00,-0.13,1.03,0.00,0.00,592.00,1439.00,569.00,784.00,866.00,1779.00,4095.00,4095.00,,,,,,,,,,,,0,1,0,,1156,13400,8608,-155,237,-19
1.608,1.53,0.01,0.25,0.64,-0.83,0.51,1.13,-0.47,0.00,0.00,567.00,1417.00,552.00,769.00,918.00,1762.00,4095.00,4095.00,,,,,,,,,,,,0,1,0,,1320,13380,8424,-267,199,-76
1.67,1.58,-0.07,3.68,-3.34,2.28,-2.74,-1.47,1.61,0.00,0.00,661.00,1377.00,622.00,742.00,860.00,1847.00,4095.00,4095.00,,,,,,,,,,,,0,1,0,,1216,13416,8416,-235,199,-105
1.711,1.64,-0.13,-1.41,0.40,-3.74,1.16,-1.36,2.43,0.00,0.00,592.00,1523.00,562.00,848.00,821.00,1799.00,4095.00,4095.00,,,,,,,,,,,,0,1,0,,1220,13284,8448,-366,202,-41
1.772,1.70,-0.01,-1.89,3.28,-2.93,2.93,2.24,-1.40,0.00,0.00,511.00,1437.00,503.00,783.00,946.00,1729.00,4095.00,4095.00,,,,,,,,,,,,0,1,0,,1216,13364,8376,-353,147,-25
1.833,1.75,-0.13,6.58,-6.35,4.95,-5.15,-2.32,1.83,0.00,0.00,738.00,1331.00,675.00,712.00,863.00,1899.00,4095.00,4095.00,,,,,,,,,,,,0,1,0,,1260,13376,8524,-287,39,-141
1.895,1.80,-0.22,-1.68,-0.45,-4.82,1.16,-2.05,3.17,0.00,0.00,623.00,1575.00,573.00,885.00,799.00,1813.00,4095.00,4095.00,,,,,,,,,,,,0,1,0,,1316,13236,8568,-83,-17,-156
1.916,1.86,-0.15,-1.73,1.97,-1.98,0.60,1.31,-1.00,0.00,0.00,547.00,1479.00,561.00,803.00,942.00,1775.00,4095.00,4095.00,,,,,,,,,,,,0,1,0,,1344,13332,8696,-145,66,-143
1.978,1.91,-0.20,3.41,-3.80,2.02,-2.86,-1.27,1.48,0.00,0.00,681.00,1409.00,629.00,752.00,863.00,1839.00,4095.00,4095.00,,,,,,,,,,,,0,1,0,,1232,13260,8704,-158,232,-187
2.042,1.97,-0.27,-1.07,-0.38,-2.42,-0.74,-1.60,2.31,0.00,0.00,614.00,1535.00,608.00,847.00,830.00,1822.00,4095.00,4095.00,,,,,,,,,,,,0,1,0,,1216,13280,8712,-63,308,-214
2.083,2.02,-0.31,-0.69,-0.36,-2.41,0.35,-0.99,1.49,0.00,0.00,609.00,1511.00,573.00,822.00,858.00,1818.00,4095.00,4095.00,,,,,,,,,,,,0,1,0,,1216,13364,8412,-153,221,-224
2.146,2.08,-0.29,-0.18,-0.44,-1.43,-0.07,0.06,0.59,0.00,0.00,606.00,1484.00,576.00,800.00,884.00,1787.00,4095.00,4095.00,,,,,,,,,,,,0,1,0,,1160,13164,8612,-230,83,-142
2.208,2.13,-0.36,2.89,-3.41,0.94,-2.67,-1.63,1.80,0.00,0.00,673.00,1423.00,635.00,781.00,854.00,1850.00,4095.00,4095.00,,,,,,,,,,,,0,1,0,,1164,13244,8664,-92,127,-118
2.291,2.19,-0.42,-1.13,0.22,-3.87,0.78,-1.54,2.74,0.00,0.00,595.00,1514.00,575.00,861.00,810.00,1797.00,4095.00,4095.00,,,,,,,,,,,,0,1,0,,1096,13224,8848,-179,113,-121
2.312,2.25,-0.30,-0.97,2.27,-3.58,3.01,1.89,-0.72,0.00,0.00,531.00,1424.00,507.00,802.00,918.00,1722.00,4095.00,4095.00,,,,,,,,,,,,0,1,0,,1184,13252,8736,-265,100,-106
2.375,2.30,-0.41,5.81,-5.22,3.99,-4.30,-2.52,2.10,0.00,0.00,704.00,1331.00,656.00,723.00,854.00,1901.00,4095.00,4095.00,,,,,,,,,,,,0,1,0,,1216,13252,8700,-204,213,-104
2.416,2.35,-0.50,-2.40,0.74,-5.16,0.99,-2.27,3.57,0.00,0.00,592.00,1570.00,582.00,901.00,785.00,1809.00,4095.00,4095.00,,,,,,,,,,,,0,1,0,,1096,13308,8764,-190,192,-85
2.477,2.41,-0.42,-2.45,3.80,-3.66,2.89,1.23,-0.84,0.00,0.00,502.00,1449.00,511.00,807.00,935.00,1773.00,4095.00,4095.00,,,,,,,,,,,,0,1,0,,1132,13228,8608,-268,146,-28
2.54,2.46,-0.47,4.09,-3.98,3.01,-3.57,-1.51,1.35,0.00,0.00,679.00,1378.00,642.00,737.00,873.00,1863.00,4095.00,4095.00,,,,,,,,,,,,0,1,0,,1232,13216,8796,-253,140,2
2.664,2.52,-0.54,-0.68,0.22,-3.14,0.28,-1.84,2.73,0.00,0.00,590.00,1487.00,583.00,848.00,815.00,1819.00,4095.00,4095.00,,,,,,,,,,,,0,1,0,,1280,13260,8720,-342,119,-44
2.684,2.58,-0.55,-0.76,1.15,-2.50,0.80,-0.73,1.32,0.00,0.00,562.00,1455.00,560.00,815.00,862.00,1808.00,4095.00,4095.00,,,,,,,,,,,,0,1,0,,1192,13212,8688,-403,88,-153
2.705,2.63,-0.54,0.33,-0.43,-1.15,-0.49,-0.34,0.75,0.00,0.00,600.00,1454.00,586.00,800.00,883.00,1808.00,4095.00,4095.00,,,,,,,,,,,,0,1,0,,1192,13136,8968,-283,95,-137
2.746,2.68,-0.61,1.15,-1.52,0.13,-1.63,-1.90,1.74,0.00,0.00,627.00,1449.00,609.00,784.00,861.00,1873.00,4095.00,4095.00,,,,,,,,,,,,0,1,0,,1180,13192,8800,-184,133,-65
2.827,2.74,-0.67,-2.09,0.63,-4.04,0.64,-1.92,2.62,0.00,0.00,592.00,1555.00,581.00,870.00,821.00,1830.00,4095.00,4095.00,,,,,,,,,,,,0,1,0,,1344,13108,8752,-216,149,-53
2.868,2.79,-0.59,-1.51,1.70,-3.31,1.95,0.95,-0.49,0.00,0.00,553.00,1477.00,534.00,816.00,922.00,1776.00,4095.00,4095.00,,,,,,,,,,,,0,1,0,,1268,13264,8792,-277,101,-231
2.91,2.85,-0.70,4.71,-4.56,2.65,-3.79,-2.65,2.27,0.00,0.00,693.00,1366.00,654.00,752.00,848.00,1902.00,4095.00,4095.00,,,,,,,,,,,,0,1,0,,1180,13112,8924,-322,72,-144
3.012,2.90,-0.78,-2.37,0.89,-5.65,1.34,-2.43,4.07,0.00,0.00,587.00,1562.00,576.00,910.00,766.00,1796.00,4095.00,4095.00,,,,,,,,,,,,0,1,0,,1256,13096,8928,-53,105,-227
3.032,2.96,-0.64,-2.45,4.82,-4.39,3.68,1.99,-0.90,0.00,0.00,475.00,1410.00,496.00,813.00,925.00,1723.00,4095.00,4095.00,,,,,,,,,,,,0,1,0,,1176,13256,8996,102,292,-203
3.073,3.02,-0.69,4.59,-4.09,2.01,-3.58,-1.54,1.66,0.00,0.00,677.00,1355.00,654.00,767.00,859.00,1850.00,4095.00,4095.00,,,,,,,,,,,,0,1,0,,1148,13092,8940,-155,397,-168
3.133,3.07,-0.74,0.38,-0.96,-3.64,0.57,-1.82,2.90,0.00,0.00,617.00,1472.00,579.00,858.00,807.00,1809.00,4095.00,4095.00,,,,,,,,,,,,0,1,0,,1200,13172,8644,-290,380,-137
3.194,3.12,-0.70,-1.06,2.40,-2.90,1.58,0.06,0.67,0.00,0.00,528.00,1424.00,541.00,811.00,880.00,1783.00,4095.00,4095.00,,,,,,,,,,,,0,1,0,,1128,13228,8824,-99,178,-211
3.257,3.18,-0.70,1.11,-0.38,-1.53,-0.39,-0.65,1.21,0.00,0.00,590.00,1408.00,587.00,810.00,866.00,1808.00,4095.00,4095.00,,,,,,,,,,,,0,1,0,,1088,13016,8688,-167,-201,-117
3.317,3.23,-0.75,1.45,-0.99,-1.06,-0.68,-1.59,1.93,0.00,0.00,606.00,1412.00,591.00,801.00,847.00,1840.00,4095.00,4095.00,,,,,,,,,,,,0,1,0,,1176,13124,8836,-225,-200,-106
3.378,3.29,-0.77,-1.34,0.82,-3.91,0.76,-1.31,2.33,0.00,0.00,578.00,1502.00,576.00,863.00,825.00,1801.00,4095.00,4095.00,,,,,,,,,,,,0,1,0,,1276,13100,9100,-235,-6,-180
3.418,3.35,-0.68,-0.90,2.14,-1.37,1.06,1.12,-0.36,0.00,0.00,534.00,1425.00,541.00,774.00,913.00,1758.00,4095.00,4095.00,,,,,,,,,,,,0,1,0,,1192,13012,8928,-204,119,-174
3.481,3.40,-0.76,4.45,-4.02,2.79,-3.90,-2.22,2.13,0.00,0.00,676.00,1360.00,656.00,750.00,848.00,1877.00,4095.00,4095.00,,,,,,,,,,,,0,1,0,,1120,13084,8876,-135,150,-65
3.543,3.45,-0.84,-3.22,1.52,-5.53,1.21,-2.51,3.91,0.00,0.00,576.00,1588.00,579.00,909.00,774.00,1810.00,4095.00,4095.00,,,,,,,,,,,,0,1,0,,1228,13084,8892,-77,175,3
3.563,3.51,-0.69,-3.49,4.90,-4.03,3.34,2.20,-1.65,0.00,0.00,482.00,1466.00,502.00,809.00,960.00,1744.00,4095.00,4095.00,,,,,,,,,,,,0,1,0,,1304,13064,8780,-53,134,-54
3.625,3.56,-0.76,4.02,-4.70,2.41,-4.08,-2.11,1.81,0.00,0.00,707.00,1409.00,667.00,765.00,861.00,1885.00,4095.00,4095.00,,,,,,,,,,,,0,1,0,,1376,13352,8804,-131,80,-138
3.728,3.62,-0.82,-0.94,-0.58,-3.96,0.27,-1.93,3.04,0.00,0.00,619.00,1535.00,592.00,876.00,803.00,1811.00,4095.00,4095.00,,,,,,,,,,,,0,1,0,,1240,13116,8960,-213,-4,-211
3.748,3.67,-0.75,-1.15,2.43,-3.42,2.17,0.63,0.40,0.00,0.00,528.00,1428.00,529.00,815.00,884.00,1756.00,4095.00,4095.00,,,,,,,,,,,,0,1,0,,1096,13036,8988,-50,102,-199
3.789,3.73,-0.75,1.81,-0.99,-0.91,-0.85,-0.67,1.62,0.00,0.00,602.00,1392.00,595.00,800.00,847.00,1789.00,4095.00,4095.00,,,,,,,,,,,,0,1,0,,1056,13100,8980,-113,232,-87
3.872,3.79,-0.76,1.44,-0.52,-0.76,-0.84,-1.08,2.07,0.00,0.00,591.00,1395.00,593.00,795.00,833.00,1797.00,4095.00,4095.00,,,,,,,,,,,,0,1,0,,1216,13092,8840,-111,81,-127
3.892,3.84,-0.77,-0.55,0.69,-3.22,0.53,-0.90,2.25,0.00,0.00,574.00,1461.00,576.00,845.00,822.00,1775.00,4095.00,4095.00,,,,,,,,,,,,0,1,0,,1236,13148,8752,6,12,-88
3.955,3.90,-0.66,-0.11,1.87,-1.86,1.02,1.48,-0.32,0.00,0.00,534.00,1391.00,547.00,790.00,905.00,1731.00,4095.00,4095.00,,,,,,,,,,,,0,1,0,,1124,13144,8896,-31,123,-156
4.016,3.95,-0.71,4.52,-3.51,2.47,-3.27,-1.78,2.13,0.00,0.00,657.00,1338.00,638.00,747.00,841.00,1844.00,4095.00,4095.00,,,,,,,,,,,,0,1,0,,1264,13032,8756,-148,143,-194
4.14,4.00,-0.77,-1.12,0.53,-4.55,0.98,-1.84,3.68,0.00,0.00,585.00,1501.00,576.00,880.00,774.00,1773.00,4095.00,4095.00,,,,,,,,,,,,0,1,0,,1248,13160,8684,-106,22,-244
4.161,4.06,-0.60,-2.50,5.07,-3.87,3.43,2.69,-1.41,0.00,0.00,469.00,1403.00,498.00,802.00,939.00,1699.00,4095.00,4095.00,,,,,,,,,,,,0,1,0,,1312,13140,8720,-175,-45,-243
4.181,4.12,-0.66,6.14,-5.25,4.37,-4.76,-1.84,2.06,0.00,0.00,701.00,1315.00,668.00,721.00,845.00,1852.00,4095.00,4095.00,,,,,,,,,,,,0,1,0,,1248,13160,8728,-147,70,-233
4.243,4.17,-0.69,-0.89,0.23,-3.39,0.08,-1.22,2.57,0.00,0.00,592.00,1499.00,592.00,861.00,813.00,1783.00,4095.00,4095.00,,,,,,,,,,,,0,1,0,,1192,13012,8844,-267,180,-112
4.284,4.22,-0.60,-1.42,2.59,-2.78,2.06,0.99,0.36,0.00,0.00,526.00,1437.00,526.00,797.00,880.00,1733.00,4095.00,4095.00,,,,,,,,,,,,0,1,0,,1188,13140,8884,-321,132,-35
4.345,4.28,-0.61,3.51,-2.60,0.89,-2.21,-0.82,1.85,0.00,0.00,637.00,1359.00,620.00,773.00,839.00,1789.00,4095.00,4095.00,,,,,,,,,,,,0,1,0,,1288,13164,8840,-190,-8,-96
4.408,4.33,-0.64,0.55,-0.81,-1.55,-0.42,-1.19,2.33,0.00,0.00,610.00,1456.00,588.00,811.00,823.00,1792.00,4095.00,4095.00,,,,,,,,,,,,0,1,0,,1256,13004,9048,-39,12,-301
4.469,4.39,-0.67,-1.07,0.45,-2.80,0.48,-1.14,2.45,0.00,0.00,587.00,1501.00,573.00,832.00,817.00,1783.00,4095.00,4095.00,,,,,,,,,,,,0,1,0,,1296,13200,9108,-52,140,-280
4.53,4.45,-0.56,0.19,0.80,-2.09,0.67,1.39,0.18,0.00,0.00,563.00,1415.00,560.00,805.00,882.00,1714.00,4095.00,4095.00,,,,,,,,,,,,0,1,0,,1140,12972,8892,40,168,-211
4.592,4.50,-0.61,4.45,-3.66,2.28,-3.24,-1.52,2.46,0.00,0.00,663.00,1347.00,639.00,752.00,822.00,1809.00,4095.00,4095.00,,,,,,,,,,,,0,1,0,,1060,13132,8992,-15,226,-133
4.613,4.55,-0.66,-1.09,0.80,-4.36,0.94,-1.54,3.99,0.00,0.00,576.00,1488.00,575.00,874.00,757.00,1738.00,4095.00,4095.00,,,,,,,,,,,,0,1,0,,1216,13076,8804,-84,194,-123
4.675,4.61,-0.47,-1.80,4.68,-3.55,3.32,3.04,-1.17,0.00,0.00,473.00,1379.00,498.00,794.00,921.00,1665.00,4095.00,4095.00,,,,,,,,,,,,0,1,0,,1244,13152,8852,-228,54,-164
4.737,4.66,-0.53,6.80,-5.66,4.45,-4.87,-1.68,2.45,0.00,0.00,708.00,1295.00,671.00,721.00,825.00,1821.00,4095.00,4095.00,,,,,,,,,,,,0,1,0,,1208,13160,8908,-15,53,-240
4.8,4.72,-0.57,-1.55,1.48,-3.68,0.33,-1.19,3.16,0.00,0.00,560.00,1488.00,587.00,865.00,787.00,1753.00,4095.00,4095.00,,,,,,,,,,,,0,1,0,,1172,13064,8600,-92,132,-232
4.861,4.78,-0.46,-0.87,2.94,-2.41,1.79,1.53,0.43,0.00,0.00,511.00,1393.00,530.00,791.00,868.00,1693.00,4095.00,4095.00,,,,,,,,,,,,0,1,0,,1136,13156,8792,-151,31,-176
4.902,4.83,-0.46,3.92,-2.80,1.86,-2.57,-0.48,1.94,0.00,0.00,639.00,1344.00,621.00,751.00,830.00,1761.00,4095.00,4095.00,,,,,,,,,,,,0,1,0,,1168,13248,8960,-7,0,-207
4.944,4.88,-0.47,0.76,-0.11,-1.03,-0.53,-0.68,2.18,0.00,0.00,585.00,1417.00,586.00,797.00,822.00,1763.00,4095.00,4095.00,,,,,,,,,,,,0,1,0,,1136,13044,9004,-119,122,-198
5.008,4.94,-0.48,0.01,0.44,-2.34,0.52,-0.57,2.28,0.00,0.00,576.00,1439.00,567.00,816.00,816.00,1751.00,4095.00,4095.00,,,,,,,,,,,,0,1,0,,1184,13036,8776,-165,210,-53
5.068,5.00,-0.40,0.10,1.02,-1.74,0.62,1.14,0.31,0.00,0.00,557.00,1411.00,558.00,795.00,880.00,1725.00,4095.00,4095.00,,,,,,,,,,,,0,1,0,,1136,13148,8860,-51,143,-175
5.109,5.05,-0.47,3.73,-3.39,2.19,-3.07,-1.91,2.73,0.00,0.00,662.00,1376.00,634.00,751.00,816.00,1824.00,4095.00,4095.00,,,,,,,,,,,,0,1,0,,1308,13248,8912,-28,103,-77
5.253,5.11,-0.53,-1.86,0.78,-4.28,1.05,-1.67,3.82,0.00,0.00,585.00,1535.00,571.00,869.00,766.00,1755.00,4095.00,4095.00,,,,,,,,,,,,0,1,0,,1172,13144,8988,-6,88,-199
5.274,5.16,-0.37,-2.53,3.86,-3.60,2.94,2.79,-1.28,0.00,0.00,501.00,1451.00,509.00,804.00,931.00,1687.00,4095.00,4095.00,,,,,,,,,,,,0,1,0,,1180,13204,8852,77,107,-296
5.294,5.21,-0.44,5.27,-5.63,4.43,-5.06,-1.91,2.02,0.00,0.00,727.00,1375.00,678.00,725.00,848.00,1859.00,4095.00,4095.00,,,,,,,,,,,,0,1,0,,1132,13128,8788,-11,8,-228
5.335,5.27,-0.50,-2.50,0.56,-5.23,1.30,-1.65,3.45,0.00,0.00,599.00,1584.00,573.00,896.00,781.00,1771.00,4095.00,4095.00,,,,,,,,,,,,0,1,0,,1032,13044,8928,-202,-13,-181
5.397,5.33,-0.41,-1.13,2.42,-2.83,1.76,1.46,0.50,0.00,0.00,528.00,1427.00,535.00,805.00,866.00,1695.00,4095.00,4095.00,,,,,,,,,,,,0,1,0,,1212,13260,8980,20,161,-185
5.439,5.38,-0.42,3.82,-2.65,1.66,-2.32,-0.73,2.13,0.00,0.00,635.00,1344.00,615.00,752.00,825.00,1769.00,4095.00,4095.00,,,,,,,,,,,,0,1,0,,1164,13140,8748,101,205,-233
5.501,5.43,-0.42,0.79,0.01,-2.28,0.66,-0.46,2.38,0.00,0.00,581.00,1411.00,562.00,811.00,810.00,1739.00,4095.00,4095.00,,,,,,,,,,,,0,1,0,,1128,13248,8648,-79,153,-198
5.582,5.49,-0.42,0.67,0.37,-2.13,0.35,-0.28,2.41,0.00,0.00,571.00,1404.00,570.00,813.00,806.00,1725.00,4095.00,4095.00,,,,,,,,,,,,0,1,0,,1068,13060,8980,-13,26,-166
5.603,5.54,-0.33,0.68,0.73,-1.37,0.59,1.23,0.51,0.00,0.00,560.00,1390.00,555.00,784.00,869.00,1710.00,4095.00,4095.00,,,,,,,,,,,,0,1,0,,1104,13252,8964,64,102,-202
5.664,5.60,-0.38,4.15,-3.31,1.88,-2.90,-1.30,2.62,0.00,0.00,654.00,1350.00,632.00,757.00,812.00,1786.00,4095.00,4095.00,,,,,,,,,,,,0,1,0,,1164,13252,8648,-30,212,-34
5.726,5.66,-0.43,-1.09,0.77,-3.77,0.81,-1.38,4.01,0.00,0.00,577.00,1489.00,573.00,857.00,754.00,1726.00,4095.00,4095.00,,,,,,,,,,,,0,1,0,,1180,13172,8588,60,156,-93
5.788,5.71,-0.26,-2.28,4.80,-3.22,3.36,2.99,-0.91,0.00,0.00,474.00,1401.00,494.00,783.00,909.00,1657.00,4095.00,4095.00,,,,,,,,,,,,0,1,0,,1080,13300,8644,-5,118,-121
5.869,5.76,-0.34,6.37,-5.54,5.09,-5.09,-1.87,2.72,0.00,0.00,709.00,1313.00,671.00,707.00,816.00,1822.00,4095.00,4095.00,,,,,,,,,,,,0,1,0,,1040,13292,8600,-142,116,-158
5.889,5.82,-0.41,-2.43,1.16,-4.37,0.91,-1.61,3.97,0.00,0.00,579.00,1554.00,576.00,875.00,759.00,1744.00,4095.00,4095.00,,,,,,,,,,,,0,1,0,,1136,13256,8728,-95,99,-232
5.931,5.87,-0.31,-1.65,2.46,-3.00,1.95,1.50,0.44,0.00,0.00,532.00,1455.00,531.00,806.00,868.00,1695.00,4095.00,4095.00,,,,,,,,,,,,0,1,0,,1084,13180,8656,-150,60,-94
5.993,5.93,-0.36,3.79,-3.04,1.68,-2.36,-1.23,2.46,0.00,0.00,649.00,1360.00,616.00,752.00,818.00,1789.00,4095.00,4095.00,,,,,,,,,,,,0,1,0,,1148,13256,8628,-131,122,-78
6.054,5.99,-0.38,0.02,-0.39,-1.76,-0.19,-0.89,2.46,0.00,0.00,602.00,1470.00,583.00,813.00,813.00,1765.00,4095.00,4095.00,,,,,,,,,,,,0,1,0,,1188,13300,8680,-152,111,-145
6.115,6.04,-0.39,-0.56,0.12,-2.67,0.83,-0.61,2.25,0.00,0.00,592.00,1484.00,561.00,820.00,818.00,1755.00,4095.00,4095.00,,,,,,,,,,,,0,1,0,,1104,13272,8628,-277,32,-332
6.176,6.09,-0.32,0.01,0.44,-1.83,0.51,1.07,0.63,0.00,0.00,576.00,1439.00,562.00,800.00,866.00,1715.00,4095.00,4095.00,,,,,,,,,,,,0,1,0,,1136,13140,8780,-266,31,-194
6.217,6.15,-0.38,4.03,-3.32,1.92,-2.71,-1.48,2.70,0.00,0.00,656.00,1357.00,625.00,752.00,811.00,1795.00,4095.00,4095.00,,,,,,,,,,,,0,1,0,,1132,13220,8756,-158,138,-206
6.32,6.20,-0.39,-1.01,0.94,-4.07,1.17,-0.53,3.60,0.00,0.00,571.00,1478.00,565.00,859.00,759.00,1687.00,4095.00,4095.00,,,,,,,,,,,,0,1,0,,1180,13172,8628,-254,113,-243
6.34,6.26,-0.23,-1.31,3.75,-3.20,3.28,2.74,-0.46,0.00,0.00,493.00,1387.00,496.00,784.00,891.00,1653.00,4095.00,4095.00,,,,,,,,,,,,0,1,0,,1156,13116,9056,-212,34,-204
6.382,6.32,-0.32,7.35,-6.00,5.14,-5.16,-1.97,3.05,0.00,0.00,714.00,1279.00,673.00,707.00,803.00,1813.00,4095.00,4095.00,,,,,,,,,,,,0,1,0,,1148,13192,8728,-39,126,-129
6.444,6.37,-0.39,-1.48,0.81,-4.72,1.23,-1.73,4.52,0.00,0.00,580.00,1511.00,570.00,880.00,738.00,1726.00,4095.00,4095.00,,,,,,,,,,,,0,1,0,,1172,13084,8696,-156,143,-56
6.504,6.42,-0.28,-0.89,2.27,-2.85,1.98,1.75,0.44,0.00,0.00,530.00,1419.00,529.00,801.00,864.00,1678.00,4095.00,4095.00,,,,,,,,,,,,0,1,0,,1152,13156,8860,-129,111,-28
6.545,6.48,-0.30,4.18,-3.17,2.26,-2.47,-0.74,2.34,0.00,0.00,649.00,1344.00,613.00,737.00,816.00,1760.00,4095.00,4095.00,,,,,,,,,,,,0,1,0,,1208,13312,8744,-145,97,-165
6.606,6.54,-0.34,0.11,-0.11,-2.02,0.19,-1.03,3.10,0.00,0.00,592.00,1454.00,574.00,813.00,787.00,1744.00,4095.00,4095.00,,,,,,,,,,,,0,1,0,,1136,13156,8732,-160,73,-230
6.667,6.59,-0.33,0.23,0.39,-2.09,0.67,-0.11,2.28,0.00,0.00,575.00,1428.00,560.00,805.00,809.00,1719.00,4095.00,4095.00,,,,,,,,,,,,0,1,0,,1116,13276,8868,-136,82,-176
6.728,6.64,-0.29,0.07,0.54,-1.54,0.55,0.47,1.37,0.00,0.00,572.00,1431.00,558.00,790.00,841.00,1722.00,4095.00,4095.00,,,,,,,,,,,,0,1,0,,1228,13240,8900,-194,89,-180
6.769,6.70,-0.35,3.09,-3.06,1.46,-2.53,-1.45,2.73,0.00,0.00,658.00,1399.00,624.00,762.00,809.00,1791.00,4095.00,4095.00,,,,,,,,,,,,0,1,0,,1148,13124,8892,-153,77,-112
6.829,6.75,-0.41,-1.83,0.74,-4.19,1.34,-1.60,4.01,0.00,0.00,586.00,1535.00,561.00,859.00,757.00,1741.00,4095.00,4095.00,,,,,,,,,,,,0,1,0,,1168,13192,8808,-80,182,-19
6.871,6.81,-0.34,-2.55,3.80,-3.59,3.34,1.07,0.33,0.00,0.00,503.00,1455.00,498.00,795.00,880.00,1729.00,4095.00,4095.00,,,,,,,,,,,,0,1,0,,1216,13268,8664,-145,210,-163
6.932,6.87,-0.43,5.66,-5.99,4.43,-5.06,-2.29,2.93,0.00,0.00,736.00,1367.00,678.00,725.00,813.00,1842.00,4095.00,4095.00,,,,,,,,,,,,0,1,0,,1096,13248,8680,-277,31,-312
6.995,6.92,-0.50,-2.48,1.02,-4.82,1.16,-1.82,4.56,0.00,0.00,584.00,1563.00,573.00,885.00,738.00,1731.00,4095.00,4095.00,,,,,,,,,,,,0,1,0,,1148,13028,8892,-149,-28,-187
7.037,6.97,-0.39,-0.83,2.22,-2.93,2.03,1.85,0.37,0.00,0.00,531.00,1418.00,528.00,802.00,866.00,1675.00,4095.00,4095.00,,,,,,,,,,,,0,1,0,,1172,13236,8856,-90,44,-321
7.162,7.03,-0.41,4.52,-3.23,2.61,-2.88,-0.82,2.73,0.00,0.00,647.00,1328.00,623.00,735.00,800.00,1747.00,4095.00,4095.00,,,,,,,,,,,,0,1,0,,1084,13088,8840,-37,58,-329
7.183,7.08,-0.43,0.61,-0.12,-2.20,0.18,-0.95,3.48,0.00,0.00,587.00,1426.00,576.00,819.00,770.00,1721.00,4095.00,4095.00,,,,,,,,,,,,0,1,0,,1052,13092,8732,-112,90,-201
7.225,7.14,-0.42,0.76,0.50,-1.61,0.60,-0.12,2.52,0.00,0.00,566.00,1394.00,557.00,791.00,799.00,1709.00,4095.00,4095.00,,,,,,,,,,,,0,1,0,,1120,13120,8840,-132,220,-63
7.267,7.20,-0.37,0.85,0.67,-1.02,0.51,0.63,1.63,0.00,0.00,560.00,1383.00,554.00,775.00,827.00,1699.00,4095.00,4095.00,,,,,,,,,,,,0,1,0,,1152,13196,8664,-131,160,-128
7.329,7.25,-0.41,3.81,-3.08,1.40,-2.15,-1.24,3.01,0.00,0.00,650.00,1360.00,612.00,756.00,794.00,1763.00,4095.00,4095.00,,,,,,,,,,,,0,1,0,,1120,13164,8944,-265,26,-119
7.412,7.30,-0.45,-0.81,0.61,-3.80,1.24,-1.27,4.15,0.00,0.00,579.00,1479.00,560.00,848.00,747.00,1712.00,4095.00,4095.00,,,,,,,,,,,,0,1,0,,1104,13184,8904,-180,77,-169
7.452,7.36,-0.30,-1.52,3.78,-3.24,3.29,2.49,0.00,0.00,0.00,494.00,1397.00,496.00,785.00,873.00,1649.00,4095.00,4095.00,,,,,,,,,,,,0,1,0,,1032,13096,8748,-144,93,-182
7.472,7.41,-0.39,6.39,-5.39,4.89,-4.63,-1.95,3.02,0.00,0.00,703.00,1307.00,657.00,704.00,804.00,1813.00,4095.00,4095.00,,,,,,,,,,,,0,1,0,,1216,13144,8896,-196,49,-115
7.534,7.47,-0.47,-2.16,0.78,-4.65,1.20,-2.02,4.95,0.00,0.00,588.00,1553.00,570.00,878.00,725.00,1726.00,4095.00,4095.00,,,,,,,,,,,,0,1,0,,1060,13116,8768,-160,122,-123
7.595,7.53,-0.36,-1.94,3.30,-3.32,3.14,1.76,0.25,0.00,0.00,511.00,1439.00,501.00,791.00,873.00,1686.00,4095.00,4095.00,,,,,,,,,,,,0,1,0,,1064,13184,9004,-140,154,-164
7.656,7.58,-0.40,3.68,-3.29,2.14,-2.49,-1.27,2.77,0.00,0.00,659.00,1375.00,615.00,741.00,805.00,1777.00,4095.00,4095.00,,,,,,,,,,,,0,1,0,,1084,13120,8872,-117,66,-120
7.697,7.63,-0.46,-1.07,0.32,-2.48,0.06,-1.48,3.73,0.00,0.00,591.00,1506.00,583.00,831.00,767.00,1746.00,4095.00,4095.00,,,,,,,,,,,,0,1,0,,1076,13136,8884,-135,111,-130
7.82,7.69,-0.46,-0.41,0.13,-2.39,0.60,-0.58,2.42,0.00,0.00,590.00,1475.00,565.00,816.00,810.00,1745.00,4095.00,4095.00,,,,,,,,,,,,0,1,0,,1112,13116,8824,-112,95,-155
7.839,7.75,-0.43,-0.23,0.01,-1.52,0.47,0.10,1.90,0.00,0.00,592.00,1469.00,560.00,791.00,823.00,1723.00,4095.00,4095.00,,,,,,,,,,,,0,1,0,,1092,13132,8924,-198,4,-227
7.859,7.80,-0.48,3.06,-2.99,1.13,-2.39,-1.40,2.99,0.00,0.00,656.00,1398.00,623.00,769.00,797.00,1775.00,4095.00,4095.00,,,,,,,,,,,,0,1,0,,1136,13064,8896,-83,52,-166
7.922,7.86,-0.52,-0.88,0.89,-3.91,1.28,-1.16,3.99,0.00,0.00,571.00,1472.00,560.00,851.00,752.00,1712.00,4095.00,4095.00,,,,,,,,,,,,0,1,0,,1172,12992,8832,-130,194,-159
7.983,7.91,-0.37,-1.00,3.31,-3.07,3.24,2.41,0.03,0.00,0.00,502.00,1386.00,496.00,781.00,873.00,1653.00,4095.00,4095.00,,,,,,,,,,,,0,1,0,,1116,13180,8908,-173,93,-219
8.025,7.96,-0.45,6.69,-5.10,4.65,-4.18,-2.06,3.08,0.00,0.00,688.00,1281.00,644.00,702.00,803.00,1818.00,4095.00,4095.00,,,,,,,,,,,,0,1,0,,1112,13084,8884,-179,-8,-231
8.086,8.02,-0.53,-2.09,1.53,-4.97,1.64,-2.00,5.07,0.00,0.00,564.00,1518.00,560.00,879.00,720.00,1719.00,4095.00,4095.00,,,,,,,,,,,,0,1,0,,1112,13132,8920,-48,117,-218
8.149,8.08,-0.41,-1.45,3.87,-3.91,4.05,1.96,0.22,0.00,0.00,491.00,1390.00,482.00,790.00,871.00,1674.00,4095.00,4095.00,,,,,,,,,,,,0,1,0,,1060,12992,8932,-138,166,-159
8.21,8.13,-0.45,4.72,-3.55,2.40,-2.57,-1.20,2.81,0.00,0.00,656.00,1329.00,615.00,735.00,802.00,1770.00,4095.00,4095.00,,,,,,,,,,,,0,1,0,,1148,13056,8876,-173,108,-124
8.25,8.19,-0.49,-0.33,0.64,-3.06,0.99,-1.37,4.06,0.00,0.00,573.00,1450.00,560.00,829.00,752.00,1723.00,4095.00,4095.00,,,,,,,,,,,,0,1,0,,1140,13156,8756,-184,86,-162
8.312,8.24,-0.48,0.06,1.04,-1.62,0.91,-0.21,2.48,0.00,0.00,557.00,1413.00,548.00,785.00,802.00,1717.00,4095.00,4095.00,,,,,,,,,,,,0,1,0,,976,13120,8876,-242,124,-107
8.374,8.30,-0.45,0.84,0.25,-1.12,0.51,0.17,2.03,0.00,0.00,573.00,1399.00,555.00,778.00,816.00,1712.00,4095.00,4095.00,,,,,,,,,,,,0,1,0,,976,13056,9064,-198,122,-77
8.436,8.35,-0.51,2.59,-2.12,1.02,-1.68,-1.79,3.36,0.00,0.00,631.00,1391.00,601.00,758.00,787.00,1785.00,4095.00,4095.00,,,,,,,,,,,,0,1,0,,1232,13152,8988,-172,75,-96
8.519,8.41,-0.56,-1.53,1.05,-3.84,1.25,-1.51,4.06,0.00,0.00,573.00,1504.00,560.00,849.00,754.00,1733.00,4095.00,4095.00,,,,,,,,,,,,0,1,0,,1132,13076,8932,-193,75,-171
8.54,8.46,-0.44,-1.82,3.26,-2.90,2.85,1.85,0.33,0.00,0.00,511.00,1434.00,505.00,784.00,868.00,1677.00,4095.00,4095.00,,,,,,,,,,,,0,1,0,,1128,13060,8840,-97,-4,-175
8.601,8.52,-0.55,4.88,-4.41,3.83,-3.70,-2.56,3.25,0.00,0.00,685.00,1351.00,637.00,716.00,803.00,1846.00,4095.00,4095.00,,,,,,,,,,,,0,1,0,,1296,13124,9012,-33,9,-206
8.642,8.57,-0.65,-3.17,1.22,-5.41,1.82,-2.50,4.96,0.00,0.00,585.00,1598.00,559.00,890.00,731.00,1759.00,4095.00,4095.00,,,,,,,,,,,,0,1,0,,1076,13012,8872,-188,139,-275
8.725,8.63,-0.55,-3.43,4.65,-4.37,4.17,1.37,0.23,0.00,0.00,488.00,1472.00,483.00,802.00,880.00,1713.00,4095.00,4095.00,,,,,,,,,,,,0,1,0,,1224,13176,8720,-125,155,-229
8.745,8.68,-0.58,3.47,-3.44,1.85,-2.66,-1.17,2.37,0.00,0.00,667.00,1392.00,624.00,753.00,821.00,1789.00,4095.00,4095.00,,,,,,,,,,,,0,1,0,,1040,13052,9012,-153,70,-92
8.806,8.74,-0.62,-0.65,0.66,-3.05,0.89,-1.51,4.06,0.00,0.00,576.00,1468.00,563.00,831.00,754.00,1733.00,4095.00,4095.00,,,,,,,,,,,,0,1,0,,1216,12964,8904,-115,206,-96
8.888,8.79,-0.62,-0.06,1.58,-2.64,1.80,-0.48,2.66,0.00,0.00,542.00,1399.00,532.00,798.00,798.00,1727.00,4095.00,4095.00,,,,,,,,,,,,0,1,0,,1136,13152,8860,-212,178,-110
8.909,8.85,-0.58,1.21,0.19,-1.14,0.35,0.21,2.00,0.00,0.00,571.00,1381.00,560.00,782.00,817.00,1711.00,4095.00,4095.00,,,,,,,,,,,,0,1,0,,1100,13160,8880,-107,75,-215
8.97,8.90,-0.63,2.60,-1.35,0.48,-1.22,-1.69,3.25,0.00,0.00,605.00,1362.00,592.00,765.00,790.00,1783.00,4095.00,4095.00,,,,,,,,,,,,0,1,0,,976,13088,8960,-73,52,-221
9.031,8.96,-0.67,0.21,0.40,-3.84,1.39,-1.50,4.10,0.00,0.00,575.00,1429.00,556.00,846.00,752.00,1730.00,4095.00,4095.00,,,,,,,,,,,,0,1,0,,980,13012,8964,-146,128,-227
9.072,9.01,-0.54,-1.14,3.36,-2.94,3.05,2.04,0.32,0.00,0.00,502.00,1392.00,500.00,781.00,865.00,1664.00,4095.00,4095.00,,,,,,,,,,,,0,1,0,,1024,13000,8868,-120,77,-52
9.132,9.07,-0.64,5.53,-4.16,3.44,-3.34,-2.52,3.35,0.00,0.00,668.00,1308.00,629.00,720.00,798.00,1838.00,4095.00,4095.00,,,,,,,,,,,,0,1,0,,1092,13132,8872,-120,117,-66
9.194,9.12,-0.72,-2.11,1.15,-5.41,1.95,-2.24,5.13,0.00,0.00,576.00,1535.00,555.00,887.00,721.00,1733.00,4095.00,4095.00,,,,,,,,,,,,0,1,0,,1176,13052,8808,-232,118,-130
9.256,9.18,-0.60,-2.92,5.29,-3.74,4.03,1.70,0.06,0.00,0.00,467.00,1418.00,481.00,785.00,883.00,1699.00,4095.00,4095.00,,,,,,,,,,,,0,1,0,,1060,13092,8944,-133,80,-171
9.338,9.23,-0.64,3.89,-3.27,1.98,-2.55,-1.43,2.73,0.00,0.00,656.00,1363.00,619.00,747.00,809.00,1790.00,4095.00,4095.00,,,,,,,,,,,,0,1,0,,1108,13092,8988,-115,74,-152
9.358,9.29,-0.68,-0.98,0.42,-3.17,1.03,-1.48,4.09,0.00,0.00,587.00,1497.00,560.00,832.00,752.00,1729.00,4095.00,4095.00,,,,,,,,,,,,0,1,0,,1124,13208,9040,-153,100,-141
9.4,9.34,-0.68,-1.51,2.20,-3.24,2.18,-0.75,2.59,0.00,0.00,538.00,1457.00,527.00,809.00,805.00,1749.00,4095.00,4095.00,,,,,,,,,,,,0,1,0,,1072,13100,8972,-142,69,-179
9.463,9.40,-0.68,0.21,-0.23,-1.54,0.32,-0.53,2.27,0.00,0.00,595.00,1453.00,565.00,795.00,816.00,1749.00,4095.00,4095.00,,,,,,,,,,,,0,1,0,,1076,13064,8956,-130,135,-147
9.526,9.45,-0.76,1.38,-1.56,-0.86,-0.17,-2.24,3.32,0.00,0.00,626.00,1438.00,573.00,784.00,795.00,1819.00,4095.00,4095.00,,,,,,,,,,,,0,1,0,,1128,12984,8972,-42,121,-156
9.628,9.51,-0.81,-2.48,1.21,-4.14,1.36,-1.94,4.03,0.00,0.00,578.00,1555.00,560.00,857.00,761.00,1764.00,4095.00,4095.00,,,,,,,,,,,,0,1,0,,992,13140,8656,-97,71,-155
9.649,9.56,-0.71,-1.68,2.44,-3.50,2.83,1.29,0.64,0.00,0.00,533.00,1458.00,511.00,803.00,862.00,1700.00,4095.00,4095.00,,,,,,,,,,,,0,1,0,,1196,12972,8876,-193,20,-197
9.71,9.62,-0.80,4.96,-4.08,3.39,-3.26,-2.52,3.53,0.00,0.00,672.00,1335.00,627.00,720.00,790.00,1829.00,4095.00,4095.00,,,,,,,,,,,,0,1,0,,1132,13176,8908,-53,178,-200
9.731,9.67,-0.88,-2.55,1.39,-5.56,1.84,-2.47,5.26,0.00,0.00,573.00,1552.00,560.00,895.00,719.00,1743.00,4095.00,4095.00,,,,,,,,,,,,0,1,0,,1028,12992,8856,-149,202,-183
9.793,9.73,-0.74,-2.61,5.11,-4.23,4.43,1.91,0.11,0.00,0.00,469.00,1408.00,475.00,792.00,877.00,1682.00,4095.00,4095.00,,,,,,,,,,,,0,1,0,,984,13068,8920,-168,58,-98
9.854,9.78,-0.78,4.60,-3.79,2.21,-2.84,-1.54,2.74,0.00,0.00,666.00,1344.00,626.00,746.00,810.00,1797.00,4095.00,4095.00,,,,,,,,,,,,0,1,0,,1132,13080,9056,-95,68,-84
9.895,9.84,-0.84,-0.84,0.82,-3.24,1.09,-1.93,4.42,0.00,0.00,573.00,1473.00,559.00,833.00,745.00,1745.00,4095.00,4095.00,,,,,,,,,,,,0,1,0,,1004,13132,8876,-44,135,-205
10.017,9.89,-0.82,-1.59,3.18,-3.80,3.01,-0.37,2.28,0.00,0.00,511.00,1424.00,509.00,809.00,813.00,1737.00,4095.00,4095.00,,,,,,,,,,,,0,1,0,,980,13024,8824,-156,115,-130
10.038,9.95,-0.79,0.91,-0.09,-1.17,0.29,-0.35,2.23,0.00,0.00,583.00,1408.00,562.00,784.00,815.00,1738.00,4095.00,4095.00,,,,,,,,,,,,0,1,0,,1092,13048,8968,-97,109,-84
10.08,10.00,-0.85,1.40,-0.76,-0.56,-0.37,-1.98,3.35,0.00,0.00,599.00,1406.00,576.00,779.00,790.00,1799.00,4095.00,4095.00,,,,,,,,,,,,0,1,0,,1020,13036,8944,-57,99,-163
10.142,10.06,-0.90,-1.49,1.07,-4.10,1.64,-1.84,4.09,0.00,0.00,572.00,1501.00,551.00,849.00,757.00,1754.00,4095.00,4095.00,,,,,,,,,,,,0,1,0,,1076,13048,8968,-116,71,-165
10.202,10.11,-0.80,-1.28,2.55,-3.51,3.13,1.08,0.74,0.00,0.00,526.00,1431.00,503.00,797.00,861.00,1710.00,4095.00,4095.00,,,,,,,,,,,,0,1,0,,1124,13016,9072,-88,113,-134
10.223,10.16,-0.90,4.31,-3.89,2.68,-2.94,-2.75,3.59,0.00,0.00,673.00,1363.00,624.00,734.00,791.00,1843.00,4095.00,4095.00,,,,,,,,,,,,0,1,0,,1144,12992,8988,19,184,-182
10.285,10.22,-1.00,-3.54,1.60,-6.03,2.02,-2.90,5.37,0.00,0.00,577.00,1605.00,559.00,907.00,720.00,1767.00,4095.00,4095.00,,,,,,,,,,,,0,1,0,,1064,13088,8904,-66,160,-122
10.389,10.28,-0.87,-3.63,4.87,-4.65,4.53,1.54,0.05,0.00,0.00,484.00,1475.00,476.00,803.00,886.00,1710.00,4095.00,4095.00,,,,,,,,,,,,0,1,0,,1180,13040,8928,-75,106,-77
10.41,10.33,-0.95,3.28,-4.00,1.70,-3.07,-2.41,2.90,0.00,0.00,690.00,1424.00,640.00,766.00,816.00,1852.00,4095.00,4095.00,,,,,,,,,,,,0,1,0,,1116,13128,8828,-17,31,-156
10.451,10.39,-1.02,-2.17,0.44,-4.43,1.39,-2.41,4.41,0.00,0.00,599.00,1568.00,562.00,866.00,752.00,1779.00,4095.00,4095.00,,,,,,,,,,,,0,1,0,,1028,13188,9044,-4,109,-68
10.514,10.44,-0.99,-2.11,1.83,-3.55,2.32,-0.33,1.89,0.00,0.00,555.00,1507.00,526.00,816.00,830.00,1753.00,4095.00,4095.00,,,,,,,,,,,,0,1,0,,1048,13188,8920,-134,166,-167
10.577,10.50,-0.98,0.54,-0.56,-1.86,0.13,-0.82,2.48,0.00,0.00,602.00,1447.00,574.00,809.00,811.00,1759.00,4095.00,4095.00,,,,,,,,,,,,0,1,0,,1008,13056,8960,63,177,-106
10.639,10.55,-1.01,1.09,-0.56,-1.02,-0.21,-1.64,3.10,0.00,0.00,596.00,1416.00,576.00,790.00,796.00,1787.00,4095.00,4095.00,,,,,,,,,,,,0,1,0,,1056,13188,8936,32,174,-151
10.722,10.61,-1.05,-1.03,0.69,-4.07,1.33,-1.65,3.93,0.00,0.00,579.00,1489.00,560.00,855.00,761.00,1748.00,4095.00,4095.00,,,,,,,,,,,,0,1,0,,1100,13236,8880,-71,133,-98
10.742,10.66,-0.95,-1.20,3.05,-3.49,3.19,0.85,1.05,0.00,0.00,511.00,1407.00,501.00,795.00,850.00,1711.00,4095.00,4095.00,,,,,,,,,,,,0,1,0,,1104,12932,8824,12,109,-117
10.803,10.72,-1.03,4.69,-3.79,2.55,-2.89,-2.51,3.58,0.00,0.00,665.00,1339.00,624.00,737.00,788.00,1826.00,4095.00,4095.00,,,,,,,,,,,,0,1,0,,1096,13160,8780,133,163,-155
10.844,10.77,-1.12,-3.03,1.46,-5.93,1.96,-2.78,5.38,0.00,0.00,576.00,1579.00,560.00,905.00,718.00,1758.00,4095.00,4095.00,,,,,,,,,,,,0,1,0,,1208,13108,8808,-58,91,-127
10.905,10.83,-0.96,-3.13,5.09,-4.81,4.82,2.00,-0.13,0.00,0.00,474.00,1438.00,470.00,802.00,887.00,1687.00,4095.00,4095.00,,,,,,,,,,,,0,1,0,,1172,13000,8792,-73,39,-166
10.989,10.88,-1.02,4.37,-4.53,1.65,-3.00,-2.19,3.14,0.00,0.00,696.00,1383.00,638.00,766.00,802.00,1824.00,4095.00,4095.00,,,,,,,,,,,,0,1,0,,1128,13264,8816,-84,58,-205
11.01,10.94,-1.08,-1.23,0.44,-3.94,1.19,-2.19,4.33,0.00,0.00,589.00,1511.00,563.00,854.00,752.00,1767.00,4095.00,4095.00,,,,,,,,,,,,0,1,0,,968,13168,8864,-89,-4,-221
11.093,10.99,-1.03,-2.43,3.47,-3.67,3.00,-0.09,1.71,0.00,0.00,511.00,1461.00,508.00,805.00,834.00,1744.00,4095.00,4095.00,,,,,,,,,,,,0,1,0,,976,13132,8784,-234,105,-133
11.114,11.05,-1.04,0.09,-0.29,-1.57,0.26,-1.16,2.50,0.00,0.00,598.00,1462.00,567.00,797.00,815.00,1782.00,4095.00,4095.00,,,,,,,,,,,,0,1,0,,1120,13248,8848,-172,206,-80
11.156,11.10,-1.09,0.12,-0.33,-1.54,-0.01,-2.16,3.53,0.00,0.00,599.00,1462.00,575.00,802.00,785.00,1803.00,4095.00,4095.00,,,,,,,,,,,,0,1,0,,1180,13140,8768,-26,140,-147
11.217,11.16,-1.14,-2.71,1.28,-5.32,1.85,-2.11,3.89,0.00,0.00,578.00,1566.00,557.00,886.00,769.00,1782.00,4095.00,4095.00,,,,,,,,,,,,0,1,0,,1000,13084,8860,-46,25,-168
11.279,11.21,-1.06,-1.89,2.06,-3.49,2.22,0.47,0.94,0.00,0.00,546.00,1485.00,528.00,816.00,861.00,1742.00,4095.00,4095.00,,,,,,,,,,,,0,1,0,,1040,13332,8868,-227,74,-253
11.32,11.27,-1.14,3.55,-3.85,1.92,-2.71,-2.66,3.51,0.00,0.00,681.00,1403.00,625.00,752.00,793.00,1840.00,4095.00,4095.00,,,,,,,,,,,,0,1,0,,1072,13040,8920,-281,26,-152
11.381,11.32,-1.19,-3.14,1.49,-5.88,1.81,-2.07,5.10,0.00,0.00,576.00,1584.00,564.00,907.00,720.00,1723.00,4095.00,4095.00,,,,,,,,,,,,0,1,0,,1132,13152,8936,-151,138,-114
11.464,11.38,-1.03,-3.02,5.13,-4.42,4.37,2.08,-0.09,0.00,0.00,472.00,1430.00,478.00,799.00,884.00,1680.00,4095.00,4095.00,,,,,,,,,,,,0,1,0,,1052,13040,8920,-243,201,-115
11.505,11.43,-1.08,4.69,-4.50,2.30,-3.28,-2.20,3.26,0.00,0.00,691.00,1365.00,640.00,752.00,797.00,1819.00,4095.00,4095.00,,,,,,,,,,,,0,1,0,,1100,13064,8960,-145,73,-47
11.546,11.49,-1.13,-0.84,0.18,-3.71,0.98,-1.93,4.25,0.00,0.00,593.00,1498.00,567.00,851.00,752.00,1753.00,4095.00,4095.00,,,,,,,,,,,,0,1,0,,1180,13220,8908,-75,48,-33
11.63,11.54,-1.06,-1.98,3.31,-4.15,3.38,0.19,1.75,0.00,0.00,511.00,1441.00,502.00,812.00,828.00,1723.00,4095.00,4095.00,,,,,,,,,,,,0,1,0,,1092,13160,9032,-110,156,-183
11.692,11.60,-1.06,0.77,-0.64,-1.37,0.06,-0.96,2.64,0.00,0.00,602.00,1437.00,571.00,795.00,806.00,1761.00,4095.00,4095.00,,,,,,,,,,,,0,1,0,,1104,13148,8828,-137,98,-177
11.713,11.65,-1.09,0.75,-0.51,-1.40,0.21,-1.66,3.15,0.00,0.00,598.00,1433.00,567.00,793.00,794.00,1786.00,4095.00,4095.00,,,,,,,,,,,,0,1,0,,1100,13096,8764,-206,35,-137
11.776,11.71,-1.13,-1.62,0.79,-4.51,1.81,-1.91,3.85,0.00,0.00,582.00,1520.00,550.00,859.00,768.00,1770.00,4095.00,4095.00,,,,,,,,,,,,0,1,0,,1152,13160,8892,-256,67,-176
11.817,11.76,-1.03,-1.47,2.33,-3.36,2.86,0.83,0.99,0.00,0.00,534.00,1450.00,509.00,798.00,853.00,1715.00,4095.00,4095.00,,,,,,,,,,,,0,1,0,,1136,13028,8920,-355,74,-164
11.878,11.82,-1.11,3.64,-3.58,2.33,-2.82,-2.72,3.60,0.00,0.00,670.00,1388.00,624.00,742.00,790.00,1840.00,4095.00,4095.00,,,,,,,,,,,,0,1,0,,1092,13024,8980,-454,106,-109
11.94,11.87,-1.21,-3.47,1.44,-5.67,1.87,-2.97,5.40,0.00,0.00,581.00,1607.00,560.00,898.00,720.00,1771.00,4095.00,4095.00,,,,,,,,,,,,0,1,0,,1108,13084,9180,-244,196,-142
12.001,11.93,-1.05,-4.02,5.19,-4.84,4.67,1.86,-0.12,0.00,0.00,479.00,1485.00,474.00,806.00,889.00,1696.00,4095.00,4095.00,,,,,,,,,,,,0,1,0,,1136,13088,8924,54,220,-190
12.062,11.98,-1.14,3.65,-4.52,2.70,-3.87,-2.70,3.25,0.00,0.00,705.00,1423.00,656.00,752.00,805.00,1856.00,4095.00,4095.00,,,,,,,,,,,,0,1,0,,1228,13096,8840,-124,68,-223
12.103,12.04,-1.20,-2.13,0.25,-4.64,1.79,-2.52,4.52,0.00,0.00,605.00,1574.00,552.00,864.00,749.00,1781.00,4095.00,4095.00,,,,,,,,,,,,0,1,0,,1092,13104,8900,-31,-57,-311
12.185,12.09,-1.14,-2.50,2.89,-4.06,3.20,0.04,1.85,0.00,0.00,528.00,1488.00,506.00,813.00,826.00,1729.00,4095.00,4095.00,,,,,,,,,,,,0,1,0,,1028,12976,9088,-93,-127,-184
12.206,12.15,-1.14,0.65,-0.29,-1.51,0.28,-1.08,2.86,0.00,0.00,592.00,1430.00,566.00,795.00,798.00,1759.00,4095.00,4095.00,,,,,,,,,,,,0,1,0,,1056,13120,8956,-207,-53,-174
12.267,12.20,-1.17,0.77,-0.05,-0.70,-0.26,-1.71,3.47,0.00,0.00,583.00,1414.00,574.00,781.00,781.00,1774.00,4095.00,4095.00,,,,,,,,,,,,0,1,0,,1092,13128,8892,-258,-18,-93
12.328,12.26,-1.15,-1.81,1.87,-3.80,1.24,-0.90,3.56,0.00,0.00,551.00,1488.00,560.00,848.00,766.00,1714.00,4095.00,4095.00,,,,,,,,,,,,0,1,0,,1112,13140,9092,-177,137,-94
12.39,12.31,-1.05,-1.20,3.05,-3.05,2.97,0.92,1.05,0.00,0.00,511.00,1407.00,503.00,786.00,849.00,1706.00,4095.00,4095.00,,,,,,,,,,,,0,1,0,,1116,13088,8960,-69,227,-80
12.451,12.37,-1.13,4.30,-3.41,2.36,-2.71,-2.63,3.69,0.00,0.00,656.00,1346.00,620.00,739.00,785.00,1829.00,4095.00,4095.00,,,,,,,,,,,,0,1,0,,1044,13120,8792,-79,236,-206
12.493,12.42,-1.21,-2.53,1.29,-5.25,1.83,-2.80,5.68,0.00,0.00,576.00,1555.00,557.00,884.00,707.00,1746.00,4095.00,4095.00,,,,,,,,,,,,0,1,0,,1060,12976,9068,-87,305,-21
12.555,12.48,-1.05,-3.16,5.49,-4.40,4.92,1.97,0.41,0.00,0.00,464.00,1424.00,464.00,787.00,862.00,1665.00,4095.00,4095.00,,,,,,,,,,,,0,1,0,,1140,13108,8852,47,325,65
12.615,12.53,-1.12,4.64,-4.32,2.91,-3.42,-2.34,3.45,0.00,0.00,685.00,1361.00,638.00,737.00,791.00,1820.00,4095.00,4095.00,,,,,,,,,,,,0,1,0,,1088,13072,8928,-50,191,-12
12.678,12.59,-1.16,-1.35,0.67,-3.39,0.91,-2.05,4.61,0.00,0.00,583.00,1509.00,566.00,842.00,739.00,1744.00,4095.00,4095.00,,,,,,,,,,,,0,1,0,,1116,13236,8936,-189,199,-70
12.699,12.64,-1.09,-2.31,3.64,-3.86,3.50,0.29,1.79,0.00,0.00,505.00,1447.00,496.00,800.00,825.00,1715.00,4095.00,4095.00,,,,,,,,,,,,0,1,0,,1076,13084,9000,-257,277,-35
12.782,12.70,-1.09,0.39,-0.38,-1.11,0.21,-1.06,2.81,0.00,0.00,598.00,1449.00,564.00,784.00,800.00,1760.00,4095.00,4095.00,,,,,,,,,,,,0,1,0,,1044,13140,8768,-306,146,-98
12.803,12.75,-1.13,0.26,-0.37,-1.68,0.43,-1.89,3.46,0.00,0.00,599.00,1456.00,563.00,797.00,784.00,1787.00,4095.00,4095.00,,,,,,,,,,,,0,1,0,,1108,13108,8920,-222,-153,-41
12.865,12.81,-1.17,-2.11,1.15,-4.41,2.02,-1.91,3.87,0.00,0.00,576.00,1535.00,543.00,851.00,767.00,1769.00,4095.00,4095.00,,,,,,,,,,,,0,1,0,,1228,13112,9040,75,-25,-206
12.989,12.86,-1.08,-1.77,2.26,-2.91,2.24,0.52,1.18,0.00,0.00,539.00,1470.00,522.00,797.00,849.00,1727.00,4095.00,4095.00,,,,,,,,,,,,0,1,0,,1148,12980,8844,-23,202,-144
13.009,12.91,-1.16,2.94,-3.37,2.24,-2.64,-2.62,3.66,0.00,0.00,671.00,1419.00,619.00,741.00,786.00,1830.00,4095.00,4095.00,,,,,,,,,,,,0,1,0,,1164,13028,8732,-48,139,-201
13.05,12.97,-1.24,-2.95,1.53,-5.85,2.30,-2.79,5.60,0.00,0.00,573.00,1571.00,549.00,894.00,710.00,1749.00,4095.00,4095.00,,,,,,,,,,,,0,1,0,,1056,13152,8980,-133,133,-85
13.091,13.03,-1.08,-3.12,5.72,-4.71,5.18,1.92,0.28,0.00,0.00,458.00,1413.00,460.00,791.00,869.00,1674.00,4095.00,4095.00,,,,,,,,,,,,0,1,0,,1056,13056,8900,-165,144,-124
13.132,13.08,-1.14,5.08,-4.20,3.20,-3.49,-2.15,3.48,0.00,0.00,675.00,1333.00,637.00,730.00,787.00,1805.00,4095.00,4095.00,,,,,,,,,,,,0,1,0,,1092,12988,8820,-314,90,-206
13.214,13.14,-1.17,-0.36,0.18,-3.82,1.31,-1.83,4.61,0.00,0.00,588.00,1470.00,558.00,847.00,736.00,1729.00,4095.00,4095.00,,,,,,,,,,,,0,1,0,,1156,12952,8956,-353,-24,-205
13.296,13.19,-1.09,-1.41,3.41,-3.20,3.28,0.44,1.92,0.00,0.00,503.00,1405.00,496.00,784.00,817.00,1699.00,4095.00,4095.00,,,,,,,,,,,,0,1,0,,1192,13188,8992,-195,108,-351
13.316,13.25,-1.07,1.25,-0.46,-0.75,0.15,-0.74,3.01,0.00,0.00,591.00,1403.00,562.00,774.00,787.00,1729.00,4095.00,4095.00,,,,,,,,,,,,0,1,0,,1088,12952,8848,-178,231,-271
13.356,13.30,-1.09,1.29,-0.41,-0.60,0.16,-1.33,3.44,0.00,0.00,589.00,1399.00,560.00,769.00,777.00,1749.00,4095.00,4095.00,,,,,,,,,,,,0,1,0,,1080,12908,8896,-119,141,-137
13.417,13.36,-1.11,-1.28,1.26,-3.74,1.69,-1.52,4.11,0.00,0.00,564.00,1481.00,546.00,836.00,752.00,1731.00,4095.00,4095.00,,,,,,,,,,,,0,1,0,,1176,13044,8960,-47,18,-174
13.479,13.41,-1.00,-0.67,2.48,-2.80,3.04,1.10,1.07,0.00,0.00,522.00,1399.00,499.00,777.00,845.00,1693.00,4095.00,4095.00,,,,,,,,,,,,0,1,0,,1036,12984,8928,-93,57,-255
13.542,13.47,-1.07,4.69,-3.91,2.85,-2.51,-2.37,3.72,0.00,0.00,669.00,1343.00,608.00,721.00,780.00,1809.00,4095.00,4095.00,,,,,,,,,,,,0,1,0,,1044,12944,9120,-87,146,-185
13.582,13.52,-1.14,-3.00,1.67,-5.54,2.43,-2.63,5.36,0.00,0.00,569.00,1568.00,542.00,880.00,717.00,1749.00,4095.00,4095.00,,,,,,,,,,,,0,1,0,,1012,12892,8968,-19,205,-93
13.665,13.58,-0.99,-3.50,5.61,-4.60,5.34,1.90,0.18,0.00,0.00,464.00,1439.00,455.00,784.00,874.00,1680.00,4095.00,4095.00,,,,,,,,,,,,0,1,0,,1132,13024,8940,-40,191,-168
13.685,13.63,-1.06,4.42,-4.33,2.70,-3.27,-2.40,3.52,0.00,0.00,688.00,1373.00,635.00,740.00,789.00,1821.00,4095.00,4095.00,,,,,,,,,,,,0,1,0,,1080,12868,8876,-39,157,-125
13.745,13.69,-1.11,-1.34,0.38,-2.41,-0.71,-2.07,4.64,0.00,0.00,592.00,1520.00,607.00,846.00,738.00,1744.00,4095.00,4095.00,,,,,,,,,,,,0,1,0,,1076,13064,8768,-23,185,-195
13.806,13.74,-1.05,-2.48,3.48,-3.82,3.49,0.08,1.86,0.00,0.00,511.00,1463.00,496.00,799.00,825.00,1726.00,4095.00,4095.00,,,,,,,,,,,,0,1,0,,1120,13060,8992,0,212,-346
13.868,13.80,-1.06,0.82,-0.41,-1.61,0.70,-1.08,3.14,0.00,0.00,594.00,1425.00,554.00,789.00,786.00,1746.00,4095.00,4095.00,,,,,,,,,,,,0,1,0,,980,13088,8812,126,95,-171
13.909,13.85,-1.10,1.33,-0.36,-0.82,0.31,-1.91,3.85,0.00,0.00,587.00,1395.00,558.00,773.00,768.00,1770.00,4095.00,4095.00,,,,,,,,,,,,0,1,0,,1016,13116,9032,243,152,-132
13.971,13.91,-1.12,-1.08,1.32,-4.31,2.26,-1.48,4.07,0.00,0.00,560.00,1467.00,535.00,842.00,753.00,1730.00,4095.00,4095.00,,,,,,,,,,,,0,1,0,,1016,13076,8712,15,172,-106
14.034,13.96,-1.01,-0.69,2.99,-2.52,2.90,1.10,1.32,0.00,0.00,508.00,1381.00,500.00,771.00,834.00,1682.00,4095.00,4095.00,,,,,,,,,,,,0,1,0,,1060,13136,8956,16,112,-134
14.076,14.02,-1.07,5.04,-3.40,2.92,-2.57,-2.33,4.02,0.00,0.00,647.00,1307.00,609.00,720.00,767.00,1792.00,4095.00,4095.00,,,,,,,,,,,,0,1,0,,1032,13276,8948,154,171,-106
14.138,14.07,-1.16,-2.36,1.88,-5.23,2.36,-2.80,5.92,0.00,0.00,556.00,1520.00,541.00,871.00,698.00,1735.00,4095.00,4095.00,,,,,,,,,,,,0,1,0,,1020,13140,8808,100,116,-158
14.198,14.13,-0.98,-2.87,6.04,-4.08,5.25,2.32,0.27,0.00,0.00,448.00,1387.00,453.00,770.00,863.00,1648.00,4095.00,4095.00,,,,,,,,,,,,0,1,0,,1024,13172,8692,21,61,-149
14.259,14.18,-1.04,5.49,-4.69,2.82,-2.98,-2.03,3.51,0.00,0.00,688.00,1329.00,624.00,731.00,784.00,1795.00,4095.00,4095.00,,,,,,,,,,,,0,1,0,,1076,13272,8712,-91,102,-116
14.32,14.24,-1.09,-0.63,0.65,-3.50,1.48,-2.00,4.84,0.00,0.00,576.00,1467.00,550.00,833.00,729.00,1730.00,4095.00,4095.00,,,,,,,,,,,,0,1,0,,1044,13632,8832,-96,284,-293
14.402,14.29,-1.02,-1.82,3.81,-3.23,3.33,0.17,2.05,0.00,0.00,496.00,1413.00,495.00,784.00,815.00,1711.00,4095.00,4095.00,,,,,,,,,,,,0,1,0,,976,13096,8720,-136,555,-257
14.422,14.35,-0.98,1.04,-0.01,-0.90,0.57,-0.24,2.74,0.00,0.00,579.00,1398.00,551.00,770.00,791.00,1707.00,4095.00,4095.00,,,,,,,,,,,,0,1,0,,876,13172,8644,74,191,-77
14.463,14.40,-1.02,1.28,-0.50,-1.02,0.31,-1.81,3.58,0.00,0.00,592.00,1403.00,560.00,779.00,778.00,1776.00,4095.00,4095.00,,,,,,,,,,,,0,1,0,,928,13152,8676,-151,53,-13
14.524,14.46,-1.06,-1.70,1.43,-4.24,2.17,-1.76,4.19,0.00,0.00,563.00,1499.00,537.00,842.00,752.00,1744.00,4095.00,4095.00,,,,,,,,,,,,0,1,0,,1136,13180,8752,-161,131,-79
14.565,14.51,-0.96,-1.26,2.54,-3.04,3.19,0.91,1.18,0.00,0.00,526.00,1430.00,497.00,781.00,843.00,1701.00,4095.00,4095.00,,,,,,,,,,,,0,1,0,,936,13368,8588,4,174,-142
14.626,14.57,-1.05,4.11,-3.52,2.62,-2.44,-2.74,4.06,0.00,0.00,662.00,1360.00,608.00,726.00,771.00,1819.00,4095.00,4095.00,,,,,,,,,,,,0,1,0,,928,13044,8636,-179,83,-126
14.687,14.62,-1.14,-2.54,1.78,-5.58,2.27,-2.71,5.81,0.00,0.00,561.00,1535.00,547.00,885.00,701.00,1734.00,4095.00,4095.00,,,,,,,,,,,,0,1,0,,1052,13208,8836,-198,53,-62
14.749,14.68,-0.97,-2.54,5.73,-4.14,4.67,2.19,0.40,0.00,0.00,453.00,1381.00,468.00,784.00,859.00,1651.00,4095.00,4095.00,,,,,,,,,,,,0,1,0,,1036,13220,8892,-309,54,-168
14.789,14.73,-1.01,5.37,-4.41,2.70,-3.06,-1.79,3.36,0.00,0.00,679.00,1325.00,628.00,736.00,787.00,1785.00,4095.00,4095.00,,,,,,,,,,,,0,1,0,,952,13156,8952,-449,84,-175
14.851,14.79,-1.05,-0.35,0.88,-3.66,1.80,-1.88,5.01,0.00,0.00,566.00,1442.00,542.00,831.00,721.00,1714.00,4095.00,4095.00,,,,,,,,,,,,0,1,0,,1056,13004,8972,-105,163,-72
14.893,14.84,-0.99,-2.32,5.45,-3.30,3.58,0.19,2.37,0.00,0.00,458.00,1379.00,489.00,781.00,801.00,1695.00,4095.00,4095.00,,,,,,,,,,,,0,1,0,,1044,13036,8724,-40,175,-117
14.954,14.90,-0.98,1.35,0.14,-0.89,0.70,-0.67,3.03,0.00,0.00,571.00,1375.00,547.00,767.00,785.00,1723.00,4095.00,4095.00,,,,,,,,,,,,0,1,0,,996,13100,8776,-201,44,-72
15.016,14.95,-1.00,1.88,-0.42,-0.51,0.14,-1.55,3.73,0.00,0.00,583.00,1367.00,560.00,767.00,768.00,1751.00,4095.00,4095.00,,,,,,,,,,,,0,1,0,,1064,13160,8808,-114,29,-148
15.058,15.01,-1.02,-1.07,1.48,-4.07,2.18,-1.27,4.05,0.00,0.00,555.00,1460.00,535.00,836.00,751.00,1717.00,4095.00,4095.00,,,,,,,,,,,,0,1,0,,1092,13160,8780,-156,27,-221
15.139,15.06,-0.90,-0.69,3.10,-2.14,2.92,1.25,1.13,0.00,0.00,505.00,1377.00,496.00,759.00,840.00,1680.00,4095.00,4095.00,,,,,,,,,,,,0,1,0,,972,13036,8776,-414,1,-215
15.2,15.12,-0.98,4.94,-3.57,3.23,-2.76,-2.44,3.86,0.00,0.00,654.00,1318.00,612.00,715.00,775.00,1807.00,4095.00,4095.00,,,,,,,,,,,,0,1,0,,1008,13152,8960,-302,75,-268
15.241,15.17,-1.07,-2.42,1.61,-5.69,2.65,-2.83,6.01,0.00,0.00,565.00,1535.00,537.00,880.00,695.00,1733.00,4095.00,4095.00,,,,,,,,,,,,0,1,0,,932,13088,9028,-67,105,-217
15.282,15.23,-0.92,-2.86,5.47,-3.98,4.78,2.02,0.35,0.00,0.00,462.00,1408.00,464.00,777.00,864.00,1664.00,4095.00,4095.00,,,,,,,,,,,,0,1,0,,984,13060,8836,-168,106,-40
15.364,15.28,-0.98,4.54,-4.21,2.21,-2.84,-2.18,3.56,0.00,0.00,682.00,1362.00,626.00,746.00,784.00,1803.00,4095.00,4095.00,,,,,,,,,,,,0,1,0,,1024,13112,8832,-129,90,-79
15.406,15.34,-1.05,-1.19,0.81,-3.39,1.44,-2.36,4.96,0.00,0.00,577.00,1494.00,550.00,830.00,729.00,1749.00,4095.00,4095.00,,,,,,,,,,,,0,1,0,,1004,13204,8868,-178,29,-208
15.508,15.39,-1.01,-1.82,3.26,-3.65,3.43,-0.25,2.61,0.00,0.00,511.00,1434.00,496.00,795.00,797.00,1714.00,4095.00,4095.00,,,,,,,,,,,,0,1,0,,936,12940,8948,-294,-33,-260
15.529,15.45,-0.99,1.35,-0.21,-1.44,0.78,-0.63,2.92,0.00,0.00,582.00,1388.00,550.00,782.00,789.00,1725.00,4095.00,4095.00,,,,,,,,,,,,0,1,0,,1076,13088,9004,-150,115,-185
15.569,15.50,-1.03,2.04,-0.57,-0.47,0.12,-1.77,3.90,0.00,0.00,586.00,1364.00,560.00,766.00,764.00,1758.00,4095.00,4095.00,,,,,,,,,,,,0,1,0,,1068,13064,9012,-84,133,-191
15.631,15.56,-1.04,-0.49,1.09,-3.61,1.82,-1.27,4.17,0.00,0.00,561.00,1442.00,541.00,829.00,746.00,1711.00,4095.00,4095.00,,,,,,,,,,,,0,1,0,,1012,12948,8924,-100,64,-137
15.693,15.61,-0.90,-0.52,3.37,-2.38,3.04,1.71,1.15,0.00,0.00,496.00,1358.00,495.00,764.00,832.00,1649.00,4095.00,4095.00,,,,,,,,,,,,0,1,0,,1088,12996,8940,-184,59,-140
15.754,15.66,-0.98,5.87,-3.88,3.40,-2.70,-2.34,3.97,0.00,0.00,654.00,1281.00,608.00,709.00,769.00,1795.00,4095.00,4095.00,,,,,,,,,,,,0,1,0,,1072,13060,8820,-245,140,-71
15.876,15.72,-1.06,-2.03,1.64,-5.72,2.70,-2.74,6.08,0.00,0.00,560.00,1510.00,536.00,880.00,691.00,1723.00,4095.00,4095.00,,,,,,,,,,,,0,1,0,,1060,13112,9000,-169,86,-72
15.897,15.78,-0.92,-2.04,5.11,-4.49,4.95,1.89,0.52,0.00,0.00,464.00,1376.00,464.00,789.00,858.00,1665.00,4095.00,4095.00,,,,,,,,,,,,0,1,0,,1008,13084,8864,-126,88,-100
15.917,15.83,-0.94,4.79,-3.63,2.40,-2.57,-1.43,2.96,0.00,0.00,658.00,1328.00,615.00,735.00,799.00,1779.00,4095.00,4095.00,,,,,,,,,,,,0,1,0,,1096,13104,8868,-133,125,-146
15.938,15.89,-1.00,-0.61,1.03,-3.66,2.39,-2.09,4.92,0.00,0.00,564.00,1451.00,525.00,818.00,727.00,1732.00,4095.00,4095.00,,,,,,,,,,,,0,1,0,,1132,13116,8952,-138,71,-215
15.998,15.94,-0.97,-1.30,3.12,-3.10,3.14,-0.40,2.64,0.00,0.00,510.00,1410.00,499.00,784.00,798.00,1723.00,4095.00,4095.00,,,,,,,,,,,,0,1,0,,1004,13060,8856,-170,-4,-160
16.059,16.00,-0.97,0.87,0.21,-1.51,0.94,-0.88,3.17,0.00,0.00,574.00,1399.00,546.00,781.00,782.00,1731.00,4095.00,4095.00,,,,,,,,,,,,0,1,0,,916,12876,9084,-130,56,-125
16.12,16.05,-1.02,1.62,-0.71,-0.24,-0.12,-2.03,3.63,0.00,0.00,595.00,1392.00,565.00,764.00,779.00,1789.00,4095.00,4095.00,,,,,,,,,,,,0,1,0,,964,12952,8948,-160,135,-114
16.162,16.10,-1.09,-1.56,1.35,-4.18,2.25,-2.38,4.45,0.00,0.00,564.00,1494.00,534.00,838.00,750.00,1775.00,4095.00,4095.00,,,,,,,,,,,,0,1,0,,1052,13032,8860,-128,127,-129
16.244,16.16,-0.98,-1.82,3.51,-3.15,3.27,1.06,1.22,0.00,0.00,504.00,1424.00,496.00,783.00,839.00,1689.00,4095.00,4095.00,,,,,,,,,,,,0,1,0,,976,13056,9064,-94,135,-113
16.285,16.21,-1.08,4.60,-3.84,3.18,-2.89,-2.94,4.05,0.00,0.00,668.00,1346.00,617.00,719.00,774.00,1834.00,4095.00,4095.00,,,,,,,,,,,,0,1,0,,980,13100,8824,-77,86,-138
16.348,16.27,-1.17,-3.14,1.49,-5.97,2.47,-2.86,5.80,0.00,0.00,576.00,1584.00,545.00,894.00,703.00,1744.00,4095.00,4095.00,,,,,,,,,,,,0,1,0,,1048,13128,9000,-167,30,-227
16.389,16.32,-1.03,-2.92,5.53,-4.42,4.84,1.62,0.55,0.00,0.00,461.00,1409.00,466.00,789.00,861.00,1682.00,4095.00,4095.00,,,,,,,,,,,,0,1,0,,1104,13036,9140,-129,78,-152
16.45,16.38,-1.07,4.79,-3.63,2.26,-2.62,-1.93,3.71,0.00,0.00,658.00,1328.00,618.00,740.00,774.00,1778.00,4095.00,4095.00,,,,,,,,,,,,0,1,0,,1060,13008,8948,-144,112,-150
16.491,16.43,-1.13,-0.62,1.33,-3.14,1.52,-2.16,5.05,0.00,0.00,555.00,1440.00,545.00,820.00,723.00,1731.00,4095.00,4095.00,,,,,,,,,,,,0,1,0,,1004,13044,8900,-173,22,-183
16.594,16.49,-1.10,-0.69,2.92,-3.00,2.99,-0.65,3.05,0.00,0.00,510.00,1384.00,502.00,784.00,784.00,1721.00,4095.00,4095.00,,,,,,,,,,,,0,1,0,,1080,13116,9172,-80,-17,-239
16.614,16.55,-1.07,1.42,0.35,-1.11,0.87,-0.40,2.87,0.00,0.00,564.00,1364.00,544.00,770.00,788.00,1712.00,4095.00,4095.00,,,,,,,,,,,,0,1,0,,1052,12996,8904,-24,117,-230
16.655,16.60,-1.12,2.44,-1.07,0.03,-0.47,-2.03,3.82,0.00,0.00,598.00,1361.00,573.00,763.00,771.00,1780.00,4095.00,4095.00,,,,,,,,,,,,0,1,0,,1004,12984,8872,-121,163,-150
16.737,16.66,-1.14,-0.93,1.27,-4.12,2.02,-1.62,4.51,0.00,0.00,560.00,1460.00,540.00,841.00,737.00,1719.00,4095.00,4095.00,,,,,,,,,,,,0,1,0,,1064,13048,8804,-122,93,-45
16.779,16.71,-1.00,-0.85,3.22,-2.87,3.28,1.65,0.93,0.00,0.00,503.00,1381.00,493.00,774.00,843.00,1663.00,4095.00,4095.00,,,,,,,,,,,,0,1,0,,1096,13112,8920,-155,71,-180
16.839,16.76,-1.09,5.52,-3.82,3.74,-2.93,-2.77,4.19,0.00,0.00,656.00,1297.00,612.00,704.00,766.00,1815.00,4095.00,4095.00,,,,,,,,,,,,0,1,0,,1024,13028,9116,-155,76,-178
16.879,16.82,-1.15,-2.57,1.82,-5.48,2.34,-2.23,5.43,0.00,0.00,560.00,1535.00,544.00,880.00,709.00,1718.00,4095.00,4095.00,,,,,,,,,,,,0,1,0,,1028,13032,8776,-50,94,-84
16.961,16.87,-1.02,-2.67,5.17,-4.27,4.44,1.33,0.87,0.00,0.00,468.00,1409.00,475.00,793.00,851.00,1687.00,4095.00,4095.00,,,,,,,,,,,,0,1,0,,1180,13084,8912,-249,42,-74
17.002,16.93,-1.05,3.96,-3.30,1.91,-2.04,-1.65,3.24,0.00,0.00,656.00,1360.00,603.00,739.00,790.00,1781.00,4095.00,4095.00,,,,,,,,,,,,0,1,0,,1116,13060,9120,-160,3,-170
17.043,16.98,-1.11,-1.16,0.83,-3.35,1.42,-2.20,4.96,0.00,0.00,576.00,1491.00,550.00,829.00,727.00,1738.00,4095.00,4095.00,,,,,,,,,,,,0,1,0,,1064,13004,9124,-83,82,-224
17.125,17.04,-1.11,-1.02,1.67,-2.78,2.06,-1.03,3.39,0.00,0.00,549.00,1450.00,526.00,797.00,775.00,1731.00,4095.00,4095.00,,,,,,,,,,,,0,1,0,,976,12992,9048,-105,143,-227
17.166,17.09,-1.08,0.27,0.12,-1.69,0.63,-0.59,2.91,0.00,0.00,583.00,1436.00,557.00,793.00,789.00,1723.00,4095.00,4095.00,,,,,,,,,,,,0,1,0,,1044,12984,8976,-87,94,-93
17.229,17.15,-1.14,1.75,-1.78,0.19,-0.84,-2.33,3.87,0.00,0.00,629.00,1425.00,583.00,766.00,773.00,1799.00,4095.00,4095.00,,,,,,,,,,,,0,1,0,,976,13048,9028,-113,22,-51
17.313,17.20,-1.18,-2.02,1.02,-4.51,1.98,-1.92,4.77,0.00,0.00,579.00,1535.00,545.00,855.00,731.00,1728.00,4095.00,4095.00,,,,,,,,,,,,0,1,0,,1112,12904,9088,-169,76,-156
17.334,17.26,-1.04,-1.71,3.59,-3.77,3.70,1.72,0.91,0.00,0.00,501.00,1415.00,490.00,793.00,843.00,1659.00,4095.00,4095.00,,,,,,,,,,,,0,1,0,,992,13004,9028,-131,197,-146
17.396,17.32,-1.12,5.85,-4.51,3.86,-3.33,-2.74,4.11,0.00,0.00,677.00,1304.00,624.00,708.00,769.00,1817.00,4095.00,4095.00,,,,,,,,,,,,0,1,0,,1108,12984,8900,2,232,-194
17.437,17.37,-1.19,-2.25,1.55,-5.39,2.21,-2.40,5.62,0.00,0.00,565.00,1527.00,547.00,880.00,704.00,1721.00,4095.00,4095.00,,,,,,,,,,,,0,1,0,,1132,13116,8880,-167,84,-141
17.499,17.42,-1.06,-2.03,4.56,-4.28,4.64,1.43,0.98,0.00,0.00,478.00,1396.00,470.00,789.00,844.00,1675.00,4095.00,4095.00,,,,,,,,,,,,0,1,0,,1064,12984,8996,-15,24,-175
17.56,17.48,-1.08,4.79,-3.49,1.99,-1.92,-1.48,3.37,0.00,0.00,653.00,1323.00,598.00,734.00,782.00,1763.00,4095.00,4095.00,,,,,,,,,,,,0,1,0,,1172,13112,8704,6,107,-184
17.62,17.53,-1.10,-0.18,0.40,-3.00,1.14,-1.54,4.46,0.00,0.00,579.00,1451.00,555.00,824.00,738.00,1716.00,4095.00,4095.00,,,,,,,,,,,,0,1,0,,988,13000,8792,-219,93,-169
17.703,17.59,-1.08,0.33,0.71,-2.36,1.53,-0.67,3.31,0.00,0.00,564.00,1410.00,537.00,795.00,773.00,1710.00,4095.00,4095.00,,,,,,,,,,,,0,1,0,,1104,13020,9116,-88,-33,-136
17.723,17.64,-1.01,0.61,0.75,-1.45,1.33,0.27,2.43,0.00,0.00,560.00,1393.00,534.00,771.00,797.00,1687.00,4095.00,4095.00,,,,,,,,,,,,0,1,0,,1104,13140,8996,-39,102,-167
17.765,17.70,-1.05,3.13,-2.62,0.46,-1.25,-1.69,3.63,0.00,0.00,642.00,1380.00,593.00,766.00,774.00,1765.00,4095.00,4095.00,,,,,,,,,,,,0,1,0,,984,13076,8972,-108,108,-88
17.826,17.75,-1.08,-1.47,1.09,-4.19,1.91,-1.77,4.87,0.00,0.00,571.00,1499.00,544.00,846.00,725.00,1713.00,4095.00,4095.00,,,,,,,,,,,,0,1,0,,1032,12996,9300,-6,99,-64
17.867,17.81,-0.93,-2.09,3.94,-3.48,3.94,1.94,0.86,0.00,0.00,495.00,1423.00,481.00,779.00,842.00,1647.00,4095.00,4095.00,,,,,,,,,,,,0,1,0,,1164,13112,8848,-17,125,-152
17.93,17.86,-1.01,6.02,-5.45,4.26,-4.08,-2.44,3.69,0.00,0.00,710.00,1328.00,645.00,711.00,782.00,1815.00,4095.00,4095.00,,,,,,,,,,,,0,1,0,,1080,13080,8820,-55,40,-269
17.992,17.92,-1.08,-2.71,1.13,-5.41,2.12,-2.44,5.79,0.00,0.00,583.00,1573.00,550.00,883.00,698.00,1716.00,4095.00,4095.00,,,,,,,,,,,,0,1,0,,1128,13020,8924,-41,-5,-246
18.076,17.98,-0.97,-1.95,2.70,-3.95,3.50,1.14,1.30,0.00,0.00,528.00,1463.00,497.00,803.00,834.00,1680.00,4095.00,4095.00,,,,,,,,,,,,0,1,0,,952,12984,8844,11,141,-114
18.095,18.03,-0.99,3.15,-3.00,1.46,-1.99,-1.49,3.47,0.00,0.00,655.00,1393.00,606.00,751.00,778.00,1759.00,4095.00,4095.00,,,,,,,,,,,,0,1,0,,1128,13064,8848,-4,228,-33
18.156,18.08,-1.03,-0.78,0.07,-2.91,0.91,-1.66,4.28,0.00,0.00,596.00,1499.00,561.00,826.00,747.00,1733.00,4095.00,4095.00,,,,,,,,,,,,0,1,0,,920,13124,8928,9,359,95
18.196,18.14,-0.99,-0.31,0.13,-2.63,1.18,-0.31,2.95,0.00,0.00,589.00,1469.00,550.00,811.00,783.00,1702.00,4095.00,4095.00,,,,,,,,,,,,0,1,0,,1144,13056,8748,-276,343,83
18.258,18.19,-0.92,0.39,0.50,-2.10,1.24,0.40,2.39,0.00,0.00,570.00,1415.00,543.00,793.00,797.00,1680.00,4095.00,4095.00,,,,,,,,,,,,0,1,0,,1176,13220,8864,-166,170,-25
18.322,18.25,-0.96,3.39,-2.99,0.99,-1.89,-1.65,3.98,0.00,0.00,652.00,1380.00,608.00,763.00,759.00,1746.00,4095.00,4095.00,,,,,,,,,,,,0,1,0,,1048,13108,8956,-23,97,-197
18.363,18.30,-0.98,-1.42,1.34,-4.20,1.58,-1.38,4.99,0.00,0.00,563.00,1486.00,554.00,854.00,715.00,1681.00,4095.00,4095.00,,,,,,,,,,,,0,1,0,,1056,13056,8860,-63,102,-251
18.445,18.36,-0.80,-1.73,4.31,-3.54,4.12,2.68,0.48,0.00,0.00,482.00,1389.00,477.00,777.00,848.00,1616.00,4095.00,4095.00,,,,,,,,,,,,0,1,0,,1132,12928,8836,10,-6,-262
18.486,18.41,-0.87,6.88,-5.90,4.63,-4.46,-2.26,4.14,0.00,0.00,716.00,1299.00,654.00,708.00,761.00,1781.00,4095.00,4095.00,,,,,,,,,,,,0,1,0,,1040,12984,8768,-3,24,-311
18.55,18.47,-0.93,-1.92,1.08,-4.99,2.01,-2.02,5.49,0.00,0.00,576.00,1526.00,549.00,871.00,704.00,1701.00,4095.00,4095.00,,,,,,,,,,,,0,1,0,,940,13116,8800,-103,26,-202
18.613,18.52,-0.80,-1.04,2.39,-3.22,3.03,1.55,1.54,0.00,0.00,528.00,1423.00,503.00,790.00,817.00,1642.00,4095.00,4095.00,,,,,,,,,,,,0,1,0,,952,13060,8668,-43,117,-181
18.674,18.58,-0.83,3.80,-2.79,1.51,-1.51,-1.44,3.91,0.00,0.00,640.00,1350.00,590.00,740.00,759.00,1735.00,4095.00,4095.00,,,,,,,,,,,,0,1,0,,900,13276,8704,-63,89,-174
18.695,18.64,-0.84,0.19,0.09,-3.75,3.06,-0.86,3.57,0.00,0.00,585.00,1442.00,507.00,806.00,765.00,1711.00,4095.00,4095.00,,,,,,,,,,,,0,1,0,,952,13088,8876,-190,20,-123
18.757,18.69,-0.83,-0.01,0.38,-2.23,1.01,-0.69,3.51,0.00,0.00,578.00,1442.00,551.00,802.00,765.00,1702.00,4095.00,4095.00,,,,,,,,,,,,0,1,0,,1040,13240,8848,-212,90,-102
18.798,18.75,-0.74,-0.18,1.02,-2.00,1.65,0.92,1.46,0.00,0.00,560.00,1427.00,530.00,781.00,830.00,1687.00,4095.00,4095.00,,,,,,,,,,,,0,1,0,,1020,13140,8852,-148,115,-161
18.859,18.80,-0.81,3.16,-3.05,1.46,-1.99,-2.04,3.89,0.00,0.00,657.00,1395.00,606.00,751.00,768.00,1777.00,4095.00,4095.00,,,,,,,,,,,,0,1,0,,996,13104,8932,-163,92,-125
18.922,18.85,-0.87,-2.39,1.14,-4.74,2.06,-2.02,5.23,0.00,0.00,579.00,1552.00,545.00,861.00,714.00,1713.00,4095.00,4095.00,,,,,,,,,,,,0,1,0,,956,13092,8804,-177,78,-133
18.963,18.91,-0.70,-2.83,4.15,-3.89,4.16,2.49,0.00,0.00,0.00,496.00,1457.00,479.00,787.00,873.00,1649.00,4095.00,4095.00,,,,,,,,,,,,0,1,0,,1092,13076,8848,-162,-4,-158
19.044,18.96,-0.78,5.53,-5.72,4.00,-4.16,-2.39,3.63,0.00,0.00,727.00,1364.00,651.00,720.00,784.00,1815.00,4095.00,4095.00,,,,,,,,,,,,0,1,0,,1040,13116,8876,-160,2,-210
19.086,19.02,-0.83,-1.99,0.41,-4.98,1.77,-1.67,4.63,0.00,0.00,598.00,1558.00,556.00,876.00,733.00,1717.00,4095.00,4095.00,,,,,,,,,,,,0,1,0,,1032,13044,8804,-161,69,-68
19.168,19.07,-0.72,-1.07,2.44,-3.52,3.24,1.35,1.54,0.00,0.00,527.00,1423.00,500.00,795.00,820.00,1655.00,4095.00,4095.00,,,,,,,,,,,,0,1,0,,1044,13068,8728,-158,207,-76
19.189,19.13,-0.72,3.65,-2.56,1.01,-1.37,-0.80,3.24,0.00,0.00,634.00,1350.00,591.00,752.00,778.00,1722.00,4095.00,4095.00,,,,,,,,,,,,0,1,0,,1180,13100,8712,-206,69,-74
19.251,19.18,-0.73,0.91,-0.37,-1.19,0.14,-0.79,3.45,0.00,0.00,592.00,1419.00,567.00,788.00,769.00,1712.00,4095.00,4095.00,,,,,,,,,,,,0,1,0,,1024,13196,8952,-175,-24,-94
19.314,19.24,-0.72,0.21,0.53,-2.50,1.27,-0.68,3.82,0.00,0.00,571.00,1424.00,546.00,805.00,752.00,1687.00,4095.00,4095.00,,,,,,,,,,,,0,1,0,,1040,13168,8944,-56,143,-90
19.354,19.30,-0.64,0.09,1.13,-2.08,1.68,0.94,1.70,0.00,0.00,554.00,1408.00,530.00,783.00,819.00,1675.00,4095.00,4095.00,,,,,,,,,,,,0,1,0,,1140,13088,8756,-127,125,-79
19.417,19.35,-0.70,3.91,-3.11,2.25,-2.40,-1.90,3.97,0.00,0.00,650.00,1356.00,611.00,736.00,763.00,1764.00,4095.00,4095.00,,,,,,,,,,,,0,1,0,,1096,13156,8868,-163,36,-176
19.479,19.41,-0.77,-1.81,1.24,-4.40,1.91,-2.05,5.51,0.00,0.00,570.00,1513.00,546.00,853.00,704.00,1703.00,4095.00,4095.00,,,,,,,,,,,,0,1,0,,1196,13120,8904,-204,47,-272
19.54,19.46,-0.60,-3.07,5.38,-4.26,4.75,2.73,-0.01,0.00,0.00,466.00,1423.00,467.00,786.00,870.00,1634.00,4095.00,4095.00,,,,,,,,,,,,0,1,0,,1080,13004,8964,-138,10,-254
19.601,19.51,-0.68,5.93,-5.37,4.08,-4.02,-2.27,3.76,0.00,0.00,708.00,1330.00,645.00,715.00,777.00,1800.00,4095.00,4095.00,,,,,,,,,,,,0,1,0,,1016,13060,8988,-182,95,-93
19.644,19.57,-0.77,-1.66,0.49,-4.41,1.45,-2.45,5.59,0.00,0.00,592.00,1535.00,560.00,864.00,706.00,1726.00,4095.00,4095.00,,,,,,,,,,,,0,1,0,,1140,12984,8984,-223,161,-24
19.703,19.62,-0.68,-1.80,2.68,-3.80,3.37,0.94,1.73,0.00,0.00,527.00,1455.00,499.00,801.00,818.00,1674.00,4095.00,4095.00,,,,,,,,,,,,0,1,0,,1120,13092,8900,-173,85,-26
19.745,19.68,-0.69,2.61,-2.73,0.86,-1.44,-0.90,3.13,0.00,0.00,652.00,1413.00,595.00,758.00,784.00,1734.00,4095.00,4095.00,,,,,,,,,,,,0,1,0,,1120,13100,8952,-148,85,-91
19.806,19.73,-0.72,-0.06,-0.27,-2.01,0.64,-1.32,3.56,0.00,0.00,599.00,1470.00,560.00,803.00,772.00,1743.00,4095.00,4095.00,,,,,,,,,,,,0,1,0,,1124,12988,9008,-105,123,-93
19.846,19.79,-0.75,-1.11,0.46,-3.39,1.57,-1.34,3.92,0.00,0.00,587.00,1503.00,546.00,827.00,757.00,1727.00,4095.00,4095.00,,,,,,,,,,,,0,1,0,,1008,13176,8960,-79,111,-90
19.908,19.84,-0.67,-0.99,1.16,-2.73,1.93,0.90,1.54,0.00,0.00,564.00,1468.00,529.00,798.00,827.00,1685.00,4095.00,4095.00,,,,,,,,,,,,0,1,0,,1144,13028,8844,-196,-42,-127
19.969,19.90,-0.74,3.63,-3.38,1.87,-2.40,-2.12,3.97,0.00,0.00,663.00,1381.00,615.00,747.00,766.00,1779.00,4095.00,4095.00,,,,,,,,,,,,0,1,0,,1184,13104,9132,-121,37,-58
20.01,19.95,-0.81,-1.94,1.38,-4.65,1.90,-2.13,5.50,0.00,0.00,567.00,1515.00,549.00,862.00,705.00,1708.00,4095.00,4095.00,,,,,,,,,,,,0,1,0,,1204,13000,8976,-57,194,-97
20.07,20.01,-0.62,-2.74,5.35,-4.44,4.93,3.04,-0.29,0.00,0.00,464.00,1406.00,464.00,788.00,878.00,1626.00,4095.00,4095.00,,,,,,,,,,,,0,1,0,,1184,13004,8916,-203,106,-106
20.132,20.07,-0.69,5.99,-4.86,3.59,-3.51,-1.95,3.77,0.00,0.00,688.00,1309.00,633.00,719.00,772.00,1777.00,4095.00,4095.00,,,,,,,,,,,,0,1,0,,1184,12988,9020,-14,203,-177
20.175,20.12,-0.74,-0.79,0.39,-3.76,1.23,-1.69,4.84,0.00,0.00,586.00,1487.00,560.00,847.00,725.00,1709.00,4095.00,4095.00,,,,,,,,,,,,0,1,0,,1156,13188,8844,-69,318,-117
20.277,20.17,-0.66,-1.34,3.10,-3.61,3.42,0.88,2.00,0.00,0.00,511.00,1413.00,496.00,794.00,807.00,1666.00,4095.00,4095.00,,,,,,,,,,,,0,1,0,,1136,13008,8876,-111,140,17
20.296,20.23,-0.66,1.67,-0.97,-0.25,-0.05,-0.82,3.24,0.00,0.00,603.00,1399.00,563.00,763.00,778.00,1723.00,4095.00,4095.00,,,,,,,,,,,,0,1,0,,1180,13116,8792,-107,-6,-96
20.357,20.28,-0.70,0.99,-0.46,-0.88,0.19,-1.28,3.69,0.00,0.00,594.00,1418.00,562.00,777.00,766.00,1734.00,4095.00,4095.00,,,,,,,,,,,,0,1,0,,1192,13144,9020,-159,99,-214
20.418,20.34,-0.71,-1.39,1.10,-4.02,1.62,-1.06,3.95,0.00,0.00,570.00,1494.00,551.00,847.00,752.00,1707.00,4095.00,4095.00,,,,,,,,,,,,0,1,0,,1196,13000,9104,-184,102,-230
20.479,20.39,-0.62,-1.13,2.42,-3.35,3.22,1.24,1.47,0.00,0.00,528.00,1427.00,499.00,790.00,825.00,1666.00,4095.00,4095.00,,,,,,,,,,,,0,1,0,,1080,12948,9052,-124,47,-172
20.541,20.45,-0.70,3.73,-3.50,2.00,-2.38,-2.26,3.99,0.00,0.00,666.00,1380.00,613.00,743.00,767.00,1788.00,4095.00,4095.00,,,,,,,,,,,,0,1,0,,1224,12876,8968,-167,76,-118
20.581,20.50,-0.78,-3.24,1.53,-5.78,2.41,-2.36,5.61,0.00,0.00,576.00,1589.00,545.00,889.00,704.00,1719.00,4095.00,4095.00,,,,,,,,,,,,0,1,0,,1080,13060,9140,-152,127,-125
20.643,20.56,-0.63,-3.46,5.08,-4.93,5.14,2.30,0.15,0.00,0.00,477.00,1457.00,463.00,799.00,869.00,1655.00,4095.00,4095.00,,,,,,,,,,,,0,1,0,,1240,13100,9020,-78,150,-167
20.685,20.61,-0.70,3.93,-4.62,2.06,-3.02,-2.14,3.55,0.00,0.00,705.00,1411.00,634.00,754.00,784.00,1801.00,4095.00,4095.00,,,,,,,,,,,,0,1,0,,1128,13136,8964,-59,211,-210
20.726,20.67,-0.79,-1.91,0.42,-3.88,1.37,-2.45,5.10,0.00,0.00,597.00,1553.00,557.00,848.00,725.00,1749.00,4095.00,4095.00,,,,,,,,,,,,0,1,0,,1144,13012,8884,-117,125,-211
20.788,20.73,-0.74,-2.33,2.76,-3.87,3.10,0.18,2.07,0.00,0.00,530.00,1483.00,507.00,809.00,814.00,1709.00,4095.00,4095.00,,,,,,,,,,,,0,1,0,,1032,13008,9024,-178,-4,-236
20.85,20.78,-0.73,0.56,-0.26,-1.71,0.47,-0.44,2.93,0.00,0.00,592.00,1434.00,562.00,797.00,786.00,1712.00,4095.00,4095.00,,,,,,,,,,,,0,1,0,,1036,13088,8888,-61,70,-129
20.892,20.83,-0.76,1.42,-0.92,-1.10,0.14,-1.39,3.70,0.00,0.00,604.00,1411.00,566.00,785.00,767.00,1741.00,4095.00,4095.00,,,,,,,,,,,,0,1,0,,1088,13060,9108,-142,231,-123
20.953,20.89,-0.79,-1.43,1.27,-4.38,2.14,-1.44,4.40,0.00,0.00,565.00,1489.00,539.00,847.00,739.00,1712.00,4095.00,4095.00,,,,,,,,,,,,0,1,0,,1076,13020,9108,-127,122,-169
21.016,20.94,-0.68,-0.73,2.47,-3.36,3.34,1.49,1.25,0.00,0.00,523.00,1403.00,496.00,788.00,831.00,1659.00,4095.00,4095.00,,,,,,,,,,,,0,1,0,,1164,13116,8996,-64,121,-240
21.079,21.00,-0.76,4.77,-3.40,3.01,-2.75,-2.31,3.96,0.00,0.00,650.00,1321.00,614.00,721.00,769.00,1793.00,4095.00,4095.00,,,,,,,,,,,,0,1,0,,1040,13024,8840,-19,77,-276
21.119,21.05,-0.86,-2.90,1.64,-5.98,2.61,-2.78,6.23,0.00,0.00,569.00,1563.00,541.00,891.00,686.00,1719.00,4095.00,4095.00,,,,,,,,,,,,0,1,0,,1048,13000,8864,-91,-16,28
21.18,21.11,-0.75,-3.20,5.43,-4.44,4.93,1.32,1.53,0.00,0.00,466.00,1429.00,464.00,788.00,821.00,1658.00,4095.00,4095.00,,,,,,,,,,,,0,1,0,,1132,13228,9120,-24,98,-130
21.22,21.16,-0.82,3.95,-3.71,1.66,-2.32,-2.00,3.86,0.00,0.00,671.00,1376.00,615.00,752.00,769.00,1776.00,4095.00,4095.00,,,,,,,,,,,,0,1,0,,1184,12988,8888,-30,206,-239
21.281,21.22,-0.89,-0.87,0.47,-3.45,1.39,-2.22,5.15,0.00,0.00,584.00,1488.00,552.00,833.00,720.00,1731.00,4095.00,4095.00,,,,,,,,,,,,0,1,0,,1148,13136,8772,-127,132,-287
21.383,21.27,-0.88,-1.13,1.81,-3.56,2.92,-0.73,3.14,0.00,0.00,546.00,1451.00,509.00,803.00,781.00,1722.00,4095.00,4095.00,,,,,,,,,,,,0,1,0,,1028,13048,8928,10,126,-242
21.404,21.33,-0.87,-0.10,0.15,-1.69,0.97,-0.64,3.06,0.00,0.00,586.00,1456.00,547.00,786.00,783.00,1719.00,4095.00,4095.00,,,,,,,,,,,,0,1,0,,1088,12948,8960,-40,158,-184
21.445,21.39,-0.94,1.33,-1.31,-0.42,-0.48,-2.34,4.26,0.00,0.00,618.00,1431.00,578.00,777.00,757.00,1781.00,4095.00,4095.00,,,,,,,,,,,,0,1,0,,1120,13144,8972,-26,125,-197
21.508,21.44,-1.00,-2.39,1.14,-4.80,2.15,-2.17,5.13,0.00,0.00,579.00,1552.00,543.00,861.00,720.00,1728.00,4095.00,4095.00,,,,,,,,,,,,0,1,0,,1012,13088,9012,-34,135,-194
21.549,21.50,-0.89,-2.15,2.77,-3.51,3.28,1.14,1.35,0.00,0.00,528.00,1472.00,499.00,794.00,832.00,1678.00,4095.00,4095.00,,,,,,,,,,,,0,1,0,,980,12944,8948,-67,172,-143
21.611,21.55,-1.01,3.97,-4.18,2.52,-2.85,-3.13,4.21,0.00,0.00,688.00,1392.00,623.00,737.00,770.00,1840.00,4095.00,4095.00,,,,,,,,,,,,0,1,0,,1060,13216,8928,20,228,-27
21.671,21.60,-1.10,-3.66,1.38,-6.17,2.24,-2.97,6.05,0.00,0.00,585.00,1622.00,554.00,907.00,695.00,1740.00,4095.00,4095.00,,,,,,,,,,,,0,1,0,,1132,13148,8760,-158,48,-91
21.733,21.66,-0.99,-3.16,4.64,-5.19,4.60,1.14,1.24,0.00,0.00,486.00,1457.00,479.00,819.00,837.00,1683.00,4095.00,4095.00,,,,,,,,,,,,0,1,0,,1144,13200,8900,-33,31,-65
21.795,21.71,-1.03,3.48,-2.94,1.17,-1.86,-1.85,3.95,0.00,0.00,649.00,1373.00,605.00,757.00,763.00,1761.00,4095.00,4095.00,,,,,,,,,,,,0,1,0,,1072,13176,8964,-42,139,-116
21.875,21.77,-1.09,-0.82,0.55,-3.90,1.61,-2.08,5.02,0.00,0.00,581.00,1482.00,550.00,843.00,723.00,1727.00,4095.00,4095.00,,,,,,,,,,,,0,1,0,,1060,13156,8736,-121,61,-234
21.896,21.82,-1.08,-0.24,1.01,-3.22,1.68,-0.87,3.50,0.00,0.00,561.00,1431.00,541.00,819.00,768.00,1715.00,4095.00,4095.00,,,,,,,,,,,,0,1,0,,1172,12976,8948,-103,19,-197
21.938,21.88,-1.03,0.13,0.75,-2.17,1.43,-0.18,2.56,0.00,0.00,565.00,1420.00,538.00,791.00,798.00,1711.00,4095.00,4095.00,,,,,,,,,,,,0,1,0,,928,13068,8912,-76,146,-119
22.0,21.93,-1.09,2.65,-2.60,-0.15,-1.17,-2.26,4.14,0.00,0.00,647.00,1406.00,597.00,783.00,761.00,1781.00,4095.00,4095.00,,,,,,,,,,,,0,1,0,,1044,13036,8904,-105,279,62
22.104,21.99,-1.15,-1.93,1.25,-4.81,2.08,-2.34,5.19,0.00,0.00,571.00,1520.00,545.00,863.00,720.00,1737.00,4095.00,4095.00,,,,,,,,,,,,0,1,0,,1108,13136,8932,-117,393,199
22.125,22.05,-1.02,-2.28,3.85,-4.07,3.91,1.55,0.99,0.00,0.00,499.00,1437.00,487.00,798.00,842.00,1667.00,4095.00,4095.00,,,,,,,,,,,,0,1,0,,1284,13288,8620,-88,210,22
22.166,22.10,-1.12,5.72,-5.48,3.93,-4.05,-3.10,4.23,0.00,0.00,715.00,1345.00,648.00,720.00,769.00,1837.00,4095.00,4095.00,,,,,,,,,,,,0,1,0,,1304,13160,8672,-214,-54,-264
22.227,22.16,-1.21,-2.71,1.22,-6.32,2.46,-2.94,5.88,0.00,0.00,580.00,1569.00,549.00,907.00,701.00,1746.00,4095.00,4095.00,,,,,,,,,,,,0,1,0,,1084,13164,8976,-259,-163,-394
22.309,22.21,-1.14,-2.24,2.80,-4.24,3.37,0.36,1.74,0.00,0.00,528.00,1476.00,503.00,815.00,826.00,1712.00,4095.00,4095.00,,,,,,,,,,,,0,1,0,,1076,12940,9036,-214,18,-268
22.329,22.26,-1.17,2.76,-2.58,1.22,-1.78,-1.81,3.27,0.00,0.00,645.00,1399.00,602.00,754.00,791.00,1791.00,4095.00,4095.00,,,,,,,,,,,,0,1,0,,1160,12980,8944,-151,267,-25
22.392,22.32,-1.20,-0.88,-0.05,-3.44,1.29,-1.87,3.98,0.00,0.00,601.00,1510.00,555.00,835.00,762.00,1761.00,4095.00,4095.00,,,,,,,,,,,,0,1,0,,1060,12968,9052,-120,469,154
22.513,22.37,-1.22,-1.12,0.40,-3.04,1.42,-1.54,3.58,0.00,0.00,589.00,1506.00,547.00,819.00,774.00,1757.00,4095.00,4095.00,,,,,,,,,,,,0,1,0,,1188,13212,8800,-159,394,179
22.533,22.43,-1.17,-1.08,0.96,-3.10,1.78,-0.23,2.03,0.00,0.00,571.00,1481.00,537.00,813.00,822.00,1739.00,4095.00,4095.00,,,,,,,,,,,,0,1,0,,1156,13096,8796,-292,146,-37
22.554,22.48,-1.25,3.15,-3.00,0.80,-2.03,-2.80,4.39,0.00,0.00,655.00,1393.00,615.00,772.00,758.00,1807.00,4095.00,4095.00,,,,,,,,,,,,0,1,0,,1280,13092,8852,-134,51,-138
22.596,22.54,-1.31,-1.78,1.10,-5.14,2.23,-2.36,5.19,0.00,0.00,574.00,1517.00,544.00,871.00,720.00,1738.00,4095.00,4095.00,,,,,,,,,,,,0,1,0,,1084,13044,9008,-154,91,-239
22.658,22.59,-1.14,-2.50,4.84,-4.56,4.54,2.00,0.34,0.00,0.00,475.00,1412.00,475.00,800.00,865.00,1666.00,4095.00,4095.00,,,,,,,,,,,,0,1,0,,1124,13040,9072,-233,20,-251
22.721,22.65,-1.23,6.48,-5.81,4.03,-4.20,-2.97,4.16,0.00,0.00,718.00,1317.00,652.00,720.00,770.00,1831.00,4095.00,4095.00,,,,,,,,,,,,0,1,0,,1012,12960,8940,-122,-12,-117
22.781,22.70,-1.30,-1.94,0.90,-5.04,1.83,-2.54,4.95,0.00,0.00,582.00,1535.00,555.00,877.00,732.00,1762.00,4095.00,4095.00,,,,,,,,,,,,0,1,0,,856,13004,9040,-38,155,-53
22.842,22.76,-1.21,-1.20,2.45,-3.92,3.41,0.40,1.93,0.00,0.00,528.00,1430.00,499.00,804.00,817.00,1701.00,4095.00,4095.00,,,,,,,,,,,,0,1,0,,1232,13120,8752,-232,249,112
22.884,22.82,-1.23,3.15,-2.39,0.75,-1.03,-1.57,3.36,0.00,0.00,634.00,1371.00,583.00,753.00,784.00,1770.00,4095.00,4095.00,,,,,,,,,,,,0,1,0,,1152,13172,8832,-67,109,-49
22.946,22.87,-1.26,0.14,0.10,-2.30,0.74,-1.77,3.78,0.00,0.00,585.00,1444.00,560.00,810.00,769.00,1764.00,4095.00,4095.00,,,,,,,,,,,,0,1,0,,1264,13120,8932,-144,91,-150
23.008,22.92,-1.28,-0.94,1.01,-3.07,1.60,-1.60,3.87,0.00,0.00,568.00,1471.00,542.00,816.00,763.00,1748.00,4095.00,4095.00,,,,,,,,,,,,0,1,0,,1136,12976,8800,-215,-2,-156
23.05,22.98,-1.20,-0.76,1.38,-2.71,1.86,0.17,1.87,0.00,0.00,555.00,1446.00,531.00,799.00,823.00,1719.00,4095.00,4095.00,,,,,,,,,,,,0,1,0,,1140,13052,9000,-186,-14,-117
23.113,23.03,-1.29,3.13,-3.10,1.16,-2.28,-2.84,4.04,0.00,0.00,659.00,1398.00,619.00,766.00,773.00,1827.00,4095.00,4095.00,,,,,,,,,,,,0,1,0,,1168,13036,8988,-261,45,-132
23.154,23.09,-1.37,-2.67,1.17,-5.15,1.89,-3.04,5.71,0.00,0.00,581.00,1568.00,554.00,879.00,709.00,1761.00,4095.00,4095.00,,,,,,,,,,,,0,1,0,,1108,13020,9096,-145,10,-55
23.215,23.14,-1.22,-4.79,6.69,-5.24,5.08,1.61,0.36,0.00,0.00,448.00,1471.00,467.00,810.00,870.00,1691.00,4095.00,4095.00,,,,,,,,,,,,0,1,0,,1188,13036,9116,-107,58,-91
23.277,23.20,-1.32,4.55,-4.98,2.91,-3.62,-3.21,3.98,0.00,0.00,711.00,1390.00,645.00,741.00,781.00,1857.00,4095.00,4095.00,,,,,,,,,,,,0,1,0,,1196,13056,9112,-93,142,-98
23.319,23.25,-1.39,-2.67,0.80,-4.76,1.37,-2.59,4.79,0.00,0.00,593.00,1584.00,566.00,878.00,739.00,1773.00,4095.00,4095.00,,,,,,,,,,,,0,1,0,,1148,13072,8988,-214,141,-170
23.38,23.31,-1.30,-2.39,3.45,-4.23,3.59,0.26,1.95,0.00,0.00,511.00,1459.00,497.00,810.00,818.00,1709.00,4095.00,4095.00,,,,,,,,,,,,0,1,0,,1172,12984,9068,-141,32,-153
23.442,23.36,-1.29,2.01,-1.42,-0.62,-0.57,-1.12,3.08,0.00,0.00,614.00,1397.00,583.00,785.00,789.00,1751.00,4095.00,4095.00,,,,,,,,,,,,0,1,0,,1228,12968,8980,-154,66,-218
23.502,23.42,-1.32,0.54,0.03,-2.09,0.67,-1.80,3.84,0.00,0.00,583.00,1424.00,560.00,805.00,767.00,1763.00,4095.00,4095.00,,,,,,,,,,,,0,1,0,,1176,13060,9116,-161,81,-209
23.584,23.48,-1.34,-1.35,1.31,-4.23,1.92,-1.78,4.20,0.00,0.00,563.00,1483.00,544.00,847.00,752.00,1745.00,4095.00,4095.00,,,,,,,,,,,,0,1,0,,1180,12976,9040,-80,119,-267
23.605,23.53,-1.25,-0.75,2.33,-3.29,2.94,0.60,1.53,0.00,0.00,527.00,1409.00,506.00,794.00,832.00,1706.00,4095.00,4095.00,,,,,,,,,,,,0,1,0,,1084,13064,8948,-69,157,-206
23.667,23.58,-1.31,3.99,-3.36,1.79,-2.22,-2.61,3.96,0.00,0.00,658.00,1361.00,610.00,746.00,773.00,1814.00,4095.00,4095.00,,,,,,,,,,,,0,1,0,,1116,12924,8932,-219,77,-97
23.709,23.64,-1.39,-2.87,1.60,-6.00,2.52,-2.87,5.78,0.00,0.00,570.00,1563.00,544.00,894.00,704.00,1746.00,4095.00,4095.00,,,,,,,,,,,,0,1,0,,1216,13092,9040,-178,68,-115
23.79,23.69,-1.24,-3.89,5.74,-4.98,5.11,1.71,0.46,0.00,0.00,464.00,1456.00,464.00,801.00,864.00,1680.00,4095.00,4095.00,,,,,,,,,,,,0,1,0,,1148,13032,8992,-136,136,-185
23.809,23.75,-1.28,4.47,-4.48,1.91,-3.00,-2.01,3.11,0.00,0.00,693.00,1376.00,635.00,758.00,801.00,1813.00,4095.00,4095.00,,,,,,,,,,,,0,1,0,,1160,13044,9008,-89,28,-217
23.87,23.80,-1.34,-1.82,0.76,-4.24,1.46,-2.66,5.19,0.00,0.00,585.00,1533.00,558.00,858.00,724.00,1759.00,4095.00,4095.00,,,,,,,,,,,,0,1,0,,1056,12904,9008,-154,24,-166
23.952,23.86,-1.30,-2.48,3.48,-4.06,3.57,-0.55,2.50,0.00,0.00,511.00,1463.00,496.00,805.00,806.00,1739.00,4095.00,4095.00,,,,,,,,,,,,0,1,0,,1192,13004,9044,-210,211,-76
23.973,23.91,-1.30,-0.19,0.06,-1.93,0.61,-1.27,3.18,0.00,0.00,590.00,1465.00,560.00,801.00,787.00,1757.00,4095.00,4095.00,,,,,,,,,,,,0,1,0,,1204,13028,9132,-134,96,-130
24.035,23.97,-1.37,0.37,-0.56,-1.81,0.57,-2.58,4.00,0.00,0.00,604.00,1457.00,560.00,798.00,771.00,1810.00,4095.00,4095.00,,,,,,,,,,,,0,1,0,,1396,13064,9020,-108,-41,-82
24.097,24.02,-1.43,-2.65,1.30,-5.02,2.05,-2.62,4.80,0.00,0.00,577.00,1562.00,548.00,871.00,739.00,1775.00,4095.00,4095.00,,,,,,,,,,,,0,1,0,,1220,12996,9120,-65,-32,-201
24.139,24.08,-1.34,-2.50,2.89,-4.34,3.67,0.33,1.46,0.00,0.00,528.00,1488.00,496.00,812.00,839.00,1727.00,4095.00,4095.00,,,,,,,,,,,,0,1,0,,1236,13112,9028,-43,138,-272
24.221,24.14,-1.44,3.83,-3.78,1.63,-2.43,-3.32,4.20,0.00,0.00,675.00,1385.00,619.00,755.00,773.00,1854.00,4095.00,4095.00,,,,,,,,,,,,0,1,0,,1204,12960,9016,-163,142,-170
24.26,24.19,-1.53,-3.09,1.54,-7.11,3.37,-3.22,6.05,0.00,0.00,574.00,1579.00,530.00,913.00,698.00,1757.00,4095.00,4095.00,,,,,,,,,,,,0,1,0,,1204,12980,8984,-95,107,-162
24.321,24.25,-1.41,-3.04,5.22,-5.18,5.18,0.81,1.11,0.00,0.00,470.00,1428.00,464.00,806.00,848.00,1711.00,4095.00,4095.00,,,,,,,,,,,,0,1,0,,1208,12964,8928,-173,66,-182
24.382,24.30,-1.44,3.72,-3.13,1.34,-2.31,-1.94,3.34,0.00,0.00,653.00,1367.00,618.00,761.00,790.00,1797.00,4095.00,4095.00,,,,,,,,,,,,0,1,0,,1228,13104,9072,-242,50,-169
24.422,24.35,-1.50,-1.26,1.28,-4.19,1.91,-2.66,5.22,0.00,0.00,563.00,1479.00,544.00,846.00,723.00,1758.00,4095.00,4095.00,,,,,,,,,,,,0,1,0,,1208,13032,9076,-180,141,-206
24.484,24.41,-1.49,-1.43,2.35,-3.94,2.98,-1.29,3.45,0.00,0.00,533.00,1447.00,511.00,814.00,776.00,1746.00,4095.00,4095.00,,,,,,,,,,,,0,1,0,,1148,13048,8912,-118,97,-245
24.546,24.46,-1.46,0.22,0.43,-2.17,1.19,-0.96,2.94,0.00,0.00,574.00,1427.00,545.00,796.00,793.00,1747.00,4095.00,4095.00,,,,,,,,,,,,0,1,0,,1100,12988,9064,-222,41,-166
24.609,24.52,-1.52,2.50,-2.72,-0.67,-0.49,-2.58,4.08,0.00,0.00,653.00,1419.00,581.00,785.00,768.00,1807.00,4095.00,4095.00,,,,,,,,,,,,0,1,0,,1168,12984,8980,-115,67,-157
24.69,24.57,-1.58,-1.99,1.27,-5.10,2.25,-2.80,5.34,0.00,0.00,571.00,1523.00,543.00,869.00,720.00,1762.00,4095.00,4095.00,,,,,,,,,,,,0,1,0,,1072,12880,9128,-228,76,-168
24.71,24.63,-1.46,-2.28,3.60,-4.47,4.12,0.85,1.25,0.00,0.00,506.00,1447.00,485.00,806.00,841.00,1702.00,4095.00,4095.00,,,,,,,,,,,,0,1,0,,1028,12884,9236,-254,-9,-144
24.752,24.68,-1.55,5.53,-5.77,3.97,-3.55,-3.32,4.06,0.00,0.00,729.00,1366.00,630.00,709.00,779.00,1861.00,4095.00,4095.00,,,,,,,,,,,,0,1,0,,1084,12900,9216,-40,14,-131
24.813,24.74,-1.66,-3.43,1.43,-6.03,2.19,-3.66,6.31,0.00,0.00,581.00,1605.00,554.00,903.00,694.00,1776.00,4095.00,4095.00,,,,,,,,,,,,0,1,0,,1232,12936,9108,2,195,-95
24.856,24.80,-1.56,-3.03,3.67,-4.55,3.70,0.35,1.37,0.00,0.00,511.00,1488.00,497.00,818.00,843.00,1730.00,4095.00,4095.00,,,,,,,,,,,,0,1,0,,1212,12936,9028,-46,141,-69
24.915,24.85,-1.61,2.53,-2.81,0.93,-1.99,-2.50,3.95,0.00,0.00,656.00,1421.00,612.00,767.00,772.00,1807.00,4095.00,4095.00,,,,,,,,,,,,0,1,0,,1236,12988,9012,-5,58,-119
24.976,24.91,-1.66,-2.42,1.61,-3.80,1.24,-2.63,4.73,0.00,0.00,565.00,1535.00,560.00,848.00,742.00,1779.00,4095.00,4095.00,,,,,,,,,,,,0,1,0,,1220,13040,9180,-53,50,-217
25.078,24.96,-1.66,-1.22,0.72,-3.25,1.46,-1.61,3.61,0.00,0.00,580.00,1499.00,548.00,825.00,774.00,1761.00,4095.00,4095.00,,,,,,,,,,,,0,1,0,,1184,12960,9080,-102,-101,-366
25.099,25.01,-1.60,-0.62,0.97,-2.59,1.41,-0.52,2.38,0.00,0.00,566.00,1454.00,543.00,805.00,811.00,1743.00,4095.00,4095.00,,,,,,,,,,,,0,1,0,,1228,12940,9096,66,73,-277
25.141,25.07,-1.65,2.95,-2.70,-0.05,-1.26,-2.58,4.05,0.00,0.00,647.00,1393.00,599.00,782.00,769.00,1808.00,4095.00,4095.00,,,,,,,,,,,,0,1,0,,1092,12972,9092,-9,210,-194
25.203,25.12,-1.70,-1.85,1.35,-5.20,2.18,-2.60,5.15,0.00,0.00,567.00,1511.00,546.00,874.00,725.00,1757.00,4095.00,4095.00,,,,,,,,,,,,0,1,0,,1036,12920,9100,-16,127,-184
25.265,25.18,-1.51,-2.42,4.50,-4.54,4.41,1.92,0.28,0.00,0.00,483.00,1420.00,478.00,802.00,869.00,1674.00,4095.00,4095.00,,,,,,,,,,,,0,1,0,,1180,13080,9088,17,129,-114
25.307,25.23,-1.59,6.21,-5.64,3.73,-4.07,-3.04,3.85,0.00,0.00,715.00,1325.00,651.00,726.00,784.00,1851.00,4095.00,4095.00,,,,,,,,,,,,0,1,0,,1068,13028,8948,66,138,-276
25.37,25.29,-1.66,-2.46,1.23,-5.91,2.38,-2.98,5.58,0.00,0.00,577.00,1553.00,547.00,894.00,713.00,1763.00,4095.00,4095.00,,,,,,,,,,,,0,1,0,,960,13048,8796,-10,3,-204
25.412,25.34,-1.56,-1.81,2.83,-4.30,3.47,0.42,1.65,0.00,0.00,523.00,1450.00,501.00,815.00,829.00,1712.00,4095.00,4095.00,,,,,,,,,,,,0,1,0,,1076,13080,8964,52,-20,-219
25.475,25.40,-1.58,3.09,-2.60,0.90,-1.30,-1.99,3.45,0.00,0.00,642.00,1382.00,590.00,754.00,786.00,1795.00,4095.00,4095.00,,,,,,,,,,,,0,1,0,,1140,13176,8880,15,117,-121
25.557,25.45,-1.59,-0.22,0.10,-2.46,0.79,-1.90,3.80,0.00,0.00,589.00,1465.00,560.00,814.00,770.00,1772.00,4095.00,4095.00,,,,,,,,,,,,0,1,0,,1140,13132,8900,-48,140,-137
25.578,25.51,-1.60,-0.85,0.72,-3.22,1.68,-1.63,3.61,0.00,0.00,576.00,1477.00,541.00,819.00,774.00,1762.00,4095.00,4095.00,,,,,,,,,,,,0,1,0,,1076,13120,8828,-62,94,-157
25.62,25.57,-1.52,-1.17,1.35,-2.89,1.99,-0.16,1.81,0.00,0.00,560.00,1471.00,529.00,802.00,831.00,1745.00,4095.00,4095.00,,,,,,,,,,,,0,1,0,,1196,13104,8956,-103,113,-128
25.701,25.62,-1.56,2.88,-3.07,0.98,-1.91,-2.31,3.00,0.00,0.00,661.00,1411.00,609.00,764.00,810.00,1840.00,4095.00,4095.00,,,,,,,,,,,,0,1,0,,1140,13016,8760,-127,90,-97
25.743,25.67,-1.64,-3.06,1.40,-5.43,2.22,-3.13,5.53,0.00,0.00,578.00,1583.00,547.00,881.00,717.00,1776.00,4095.00,4095.00,,,,,,,,,,,,0,1,0,,1228,13052,8744,-120,80,-126
25.783,25.73,-1.48,-3.71,4.67,-5.42,5.02,1.56,0.17,0.00,0.00,490.00,1488.00,470.00,817.00,880.00,1703.00,4095.00,4095.00,,,,,,,,,,,,0,1,0,,1056,13148,8916,-164,137,-186
25.844,25.78,-1.56,4.88,-5.32,2.50,-3.51,-3.11,3.87,0.00,0.00,720.00,1385.00,646.00,751.00,784.00,1855.00,4095.00,4095.00,,,,,,,,,,,,0,1,0,,1176,12972,9024,-212,113,-148
25.905,25.84,-1.61,-1.77,0.65,-5.11,1.72,-2.59,4.91,0.00,0.00,588.00,1535.00,559.00,882.00,734.00,1767.00,4095.00,4095.00,,,,,,,,,,,,0,1,0,,1104,13080,8792,-108,180,-178
25.966,25.89,-1.52,-2.03,3.33,-4.32,3.58,0.29,1.86,0.00,0.00,511.00,1443.00,498.00,813.00,822.00,1712.00,4095.00,4095.00,,,,,,,,,,,,0,1,0,,1144,13040,8804,-188,111,-199
26.029,25.95,-1.52,2.59,-2.12,0.42,-1.23,-1.50,3.31,0.00,0.00,631.00,1391.00,593.00,767.00,785.00,1767.00,4095.00,4095.00,,,,,,,,,,,,0,1,0,,1160,13048,9008,-155,-21,-166
26.07,26.00,-1.53,-0.18,0.53,-2.42,0.78,-1.83,3.61,0.00,0.00,575.00,1446.00,560.00,813.00,777.00,1776.00,4095.00,4095.00,,,,,,,,,,,,0,1,0,,1076,13148,9024,-64,114,-138
26.152,26.06,-1.55,-1.02,0.84,-3.94,1.76,-1.95,4.11,0.00,0.00,574.00,1482.00,546.00,841.00,758.00,1761.00,4095.00,4095.00,,,,,,,,,,,,0,1,0,,1040,13052,8924,-113,259,-171
26.193,26.11,-1.45,-0.76,1.41,-3.11,2.03,0.54,1.13,0.00,0.00,554.00,1445.00,530.00,808.00,851.00,1728.00,4095.00,4095.00,,,,,,,,,,,,0,1,0,,1152,13032,8924,-199,98,-65
26.256,26.17,-1.51,3.32,-3.22,1.44,-2.25,-2.67,3.80,0.00,0.00,661.00,1392.00,615.00,757.00,781.00,1827.00,4095.00,4095.00,,,,,,,,,,,,0,1,0,,1068,13120,8844,-195,39,-99
26.316,26.23,-1.60,-2.57,1.11,-5.68,2.34,-3.34,5.94,0.00,0.00,582.00,1565.00,546.00,887.00,704.00,1771.00,4095.00,4095.00,,,,,,,,,,,,0,1,0,,1152,12976,8936,-195,121,-180
26.338,26.28,-1.44,-3.41,4.99,-5.47,5.24,1.64,0.14,0.00,0.00,479.00,1458.00,465.00,814.00,880.00,1699.00,4095.00,4095.00,,,,,,,,,,,,0,1,0,,1236,13064,9020,-227,93,-156
26.398,26.33,-1.51,4.54,-4.74,2.28,-3.09,-2.93,3.76,0.00,0.00,702.00,1382.00,634.00,749.00,786.00,1847.00,4095.00,4095.00,,,,,,,,,,,,0,1,0,,1160,12856,9008,-254,29,-125
26.458,26.39,-1.58,-2.35,0.79,-4.86,1.60,-2.76,4.92,0.00,0.00,590.00,1565.00,560.00,876.00,736.00,1779.00,4095.00,4095.00,,,,,,,,,,,,0,1,0,,1132,13036,9028,-214,144,-72
26.521,26.44,-1.52,-3.03,3.67,-4.59,3.75,-0.44,2.17,0.00,0.00,511.00,1488.00,496.00,818.00,819.00,1747.00,4095.00,4095.00,,,,,,,,,,,,0,1,0,,1204,13020,9172,-89,180,-77
26.582,26.50,-1.53,-0.30,-0.34,-2.39,0.73,-1.79,3.19,0.00,0.00,604.00,1487.00,561.00,813.00,794.00,1793.00,4095.00,4095.00,,,,,,,,,,,,0,1,0,,1152,13032,8988,-129,61,-199
26.623,26.55,-1.57,-0.13,-0.61,-2.34,0.52,-2.36,3.67,0.00,0.00,611.00,1488.00,567.00,816.00,782.00,1811.00,4095.00,4095.00,,,,,,,,,,,,0,1,0,,1132,12964,8956,-194,-39,-317
26.684,26.61,-1.60,-2.17,1.23,-5.58,2.41,-2.10,4.11,0.00,0.00,574.00,1535.00,543.00,882.00,760.00,1771.00,4095.00,4095.00,,,,,,,,,,,,0,1,0,,1120,12972,9248,-129,57,-116
26.745,26.66,-1.49,-1.47,2.61,-4.01,3.07,0.60,1.42,0.00,0.00,526.00,1439.00,509.00,814.00,837.00,1711.00,4095.00,4095.00,,,,,,,,,,,,0,1,0,,1120,13020,9040,-76,186,-163
26.787,26.72,-1.56,4.33,-3.56,2.04,-2.54,-2.96,4.06,0.00,0.00,661.00,1350.00,618.00,745.00,774.00,1835.00,4095.00,4095.00,,,,,,,,,,,,0,1,0,,1068,13028,9024,-157,129,-170
26.827,26.77,-1.64,-3.45,1.95,-6.65,2.74,-3.18,5.94,0.00,0.00,565.00,1584.00,544.00,912.00,702.00,1760.00,4095.00,4095.00,,,,,,,,,,,,0,1,0,,1084,13076,9116,-149,70,-150
26.888,26.83,-1.51,-3.61,5.84,-5.48,5.16,1.14,0.84,0.00,0.00,459.00,1436.00,467.00,816.00,855.00,1701.00,4095.00,4095.00,,,,,,,,,,,,0,1,0,,1196,13008,8928,-90,162,-140
26.95,26.89,-1.54,3.78,-3.85,1.40,-2.68,-2.17,3.30,0.00,0.00,678.00,1390.00,630.00,767.00,795.00,1815.00,4095.00,4095.00,,,,,,,,,,,,0,1,0,,1120,13016,8824,-48,-13,-188
26.991,26.94,-1.60,-1.62,1.11,-4.42,1.68,-2.77,5.10,0.00,0.00,572.00,1507.00,553.00,859.00,729.00,1771.00,4095.00,4095.00,,,,,,,,,,,,0,1,0,,1176,13016,9012,-170,29,-127
27.053,27.00,-1.58,-1.93,2.80,-4.49,3.60,-1.12,3.11,0.00,0.00,525.00,1458.00,499.00,818.00,788.00,1750.00,4095.00,4095.00,,,,,,,,,,,,0,1,0,,1168,12972,8964,-200,152,-89
27.114,27.05,-1.55,-0.19,0.34,-1.79,0.96,-1.09,3.03,0.00,0.00,581.00,1454.00,548.00,789.00,791.00,1752.00,4095.00,4095.00,,,,,,,,,,,,0,1,0,,1152,13008,9008,-173,95,-151
27.176,27.10,-1.62,1.14,-1.01,-1.43,-0.07,-2.88,4.13,0.00,0.00,610.00,1430.00,576.00,800.00,770.00,1826.00,4095.00,4095.00,,,,,,,,,,,,0,1,0,,1220,12944,9132,-219,31,-133
27.26,27.16,-1.65,-2.39,1.57,-5.13,2.12,-2.26,4.48,0.00,0.00,566.00,1535.00,547.00,873.00,747.00,1765.00,4095.00,4095.00,,,,,,,,,,,,0,1,0,,1164,12964,8912,-166,88,-131
27.281,27.21,-1.53,-2.63,3.53,-3.83,3.24,0.70,1.19,0.00,0.00,511.00,1470.00,503.00,805.00,846.00,1715.00,4095.00,4095.00,,,,,,,,,,,,0,1,0,,1232,12972,9124,-191,133,-86
27.323,27.27,-1.64,3.59,-3.65,2.03,-2.63,-3.65,4.29,0.00,0.00,673.00,1393.00,621.00,747.00,774.00,1874.00,4095.00,4095.00,,,,,,,,,,,,0,1,0,,1184,13012,8952,-179,81,-137
27.386,27.32,-1.73,-3.99,1.68,-6.94,2.60,-3.45,5.97,0.00,0.00,579.00,1630.00,551.00,926.00,704.00,1777.00,4095.00,4095.00,,,,,,,,,,,,0,1,0,,1220,12960,9148,-140,110,-179
27.449,27.38,-1.62,-3.88,4.84,-5.44,4.60,0.51,0.95,0.00,0.00,487.00,1491.00,481.00,827.00,860.00,1739.00,4095.00,4095.00,,,,,,,,,,,,0,1,0,,1168,12976,9080,-179,48,-219
27.512,27.43,-1.65,2.83,-2.92,0.49,-1.63,-2.29,3.60,0.00,0.00,656.00,1408.00,605.00,773.00,784.00,1809.00,4095.00,4095.00,,,,,,,,,,,,0,1,0,,1244,13044,9128,-127,33,-104
27.554,27.49,-1.70,-1.24,0.69,-4.42,1.85,-2.67,4.99,0.00,0.00,581.00,1501.00,548.00,855.00,732.00,1769.00,4095.00,4095.00,,,,,,,,,,,,0,1,0,,1172,12904,9092,-74,201,-171
27.659,27.55,-1.68,-0.49,1.22,-3.36,1.94,-1.33,3.25,0.00,0.00,557.00,1437.00,535.00,818.00,785.00,1758.00,4095.00,4095.00,,,,,,,,,,,,0,1,0,,1188,12984,8964,-125,107,-146
27.68,27.60,-1.65,0.31,0.69,-2.70,1.61,-0.95,3.00,0.00,0.00,565.00,1412.00,538.00,804.00,790.00,1743.00,4095.00,4095.00,,,,,,,,,,,,0,1,0,,1140,12992,9092,-141,77,-165
27.721,27.66,-1.69,2.56,-2.25,-0.25,-1.17,-2.48,3.80,0.00,0.00,636.00,1398.00,598.00,786.00,778.00,1813.00,4095.00,4095.00,,,,,,,,,,,,0,1,0,,1140,12972,9008,-58,169,-191
27.783,27.71,-1.73,-1.61,1.08,-5.32,2.32,-2.53,5.12,0.00,0.00,573.00,1508.00,543.00,875.00,725.00,1753.00,4095.00,4095.00,,,,,,,,,,,,0,1,0,,1016,12976,8968,-189,115,-121
27.823,27.76,-1.59,-2.10,3.65,-4.43,4.07,1.12,1.00,0.00,0.00,503.00,1435.00,486.00,806.00,848.00,1695.00,4095.00,4095.00,,,,,,,,,,,,0,1,0,,1256,12968,9048,-141,61,-124
27.884,27.82,-1.68,5.96,-5.35,3.35,-3.77,-3.35,4.07,0.00,0.00,707.00,1328.00,645.00,731.00,779.00,1863.00,4095.00,4095.00,,,,,,,,,,,,0,1,0,,1216,12988,8968,-108,166,-157
27.945,27.87,-1.76,-3.04,1.65,-6.20,2.48,-3.36,5.97,0.00,0.00,570.00,1571.00,547.00,902.00,703.00,1771.00,4095.00,4095.00,,,,,,,,,,,,0,1,0,,1204,12980,8884,-141,152,-144
27.987,27.93,-1.66,-1.85,2.84,-4.03,3.34,0.22,1.59,0.00,0.00,523.00,1452.00,502.00,809.00,835.00,1729.00,4095.00,4095.00,,,,,,,,,,,,0,1,0,,1120,13008,9068,-152,80,-104
28.048,27.98,-1.69,3.07,-2.68,0.78,-1.48,-2.25,3.58,0.00,0.00,645.00,1386.00,597.00,761.00,784.00,1807.00,4095.00,4095.00,,,,,,,,,,,,0,1,0,,1180,12888,9116,-85,140,-113
28.109,28.04,-1.73,-0.84,0.22,-3.37,1.10,-2.46,4.23,0.00,0.00,592.00,1497.00,560.00,837.00,760.00,1791.00,4095.00,4095.00,,,,,,,,,,,,0,1,0,,1192,12888,9072,-130,154,-60
28.15,28.09,-1.73,-0.94,0.75,-3.51,1.75,-1.77,3.52,0.00,0.00,576.00,1481.00,542.00,827.00,780.00,1776.00,4095.00,4095.00,,,,,,,,,,,,0,1,0,,1276,13044,9052,-55,111,-105
28.212,28.15,-1.68,-1.17,1.25,-3.06,1.63,-0.65,2.06,0.00,0.00,563.00,1475.00,541.00,815.00,827.00,1767.00,4095.00,4095.00,,,,,,,,,,,,0,1,0,,1252,12976,8968,-12,132,-188
28.272,28.20,-1.76,1.98,-2.66,-0.24,-1.50,-3.28,3.88,0.00,0.00,657.00,1446.00,609.00,793.00,786.00,1867.00,4095.00,4095.00,,,,,,,,,,,,0,1,0,,1184,13088,9028,-77,126,-185
28.374,28.26,-1.83,-2.78,1.37,-5.48,2.17,-3.29,4.98,0.00,0.00,576.00,1567.00,549.00,884.00,741.00,1814.00,4095.00,4095.00,,,,,,,,,,,,0,1,0,,1092,12992,8976,-117,17,-134
28.394,28.32,-1.67,-2.76,4.54,-4.63,4.60,1.52,-0.46,0.00,0.00,485.00,1438.00,474.00,801.00,911.00,1735.00,4095.00,4095.00,,,,,,,,,,,,0,1,0,,1208,13068,9184,-49,122,-203
28.436,28.37,-1.76,6.38,-5.49,3.85,-4.25,-3.63,3.35,0.00,0.00,707.00,1311.00,656.00,726.00,814.00,1920.00,4095.00,4095.00,,,,,,,,,,,,0,1,0,,1224,12980,8904,-92,116,-177
28.496,28.42,-1.83,-1.88,0.88,-5.26,1.77,-3.17,4.20,0.00,0.00,582.00,1532.00,559.00,886.00,771.00,1843.00,4095.00,4095.00,,,,,,,,,,,,0,1,0,,1268,13032,9108,-139,-13,-218
28.557,28.48,-1.75,-1.86,3.60,-3.94,3.53,-0.24,1.07,0.00,0.00,502.00,1423.00,496.00,802.00,866.00,1785.00,4095.00,4095.00,,,,,,,,,,,,0,1,0,,1136,12928,9148,-65,47,-185
28.618,28.53,-1.80,3.15,-2.10,1.15,-1.57,-2.73,2.92,0.00,0.00,624.00,1360.00,596.00,752.00,820.00,1875.00,4095.00,4095.00,,,,,,,,,,,,0,1,0,,1076,12940,9064,-131,145,-171
28.679,28.59,-1.84,0.41,0.08,-2.34,0.75,-2.57,3.18,0.00,0.00,583.00,1430.00,560.00,811.00,806.00,1850.00,4095.00,4095.00,,,,,,,,,,,,0,1,0,,1236,13000,9012,-148,77,-103
28.74,28.64,-1.87,-0.40,0.83,-3.34,2.00,-2.44,2.91,0.00,0.00,568.00,1447.00,533.00,816.00,816.00,1854.00,4095.00,4095.00,,,,,,,,,,,,0,1,0,,1140,13036,9020,-30,52,-99
28.782,28.70,-1.92,-0.62,1.77,-2.18,1.78,-2.89,0.94,0.00,0.00,542.00,1423.00,528.00,784.00,915.00,1989.00,4095.00,4095.00,,,,,,,,,,,,0,1,0,,1160,13724,8792,510,-206,-10
28.822,28.75,-2.16,3.68,-2.19,2.92,-1.57,-6.77,0.89,0.00,0.00,621.00,1335.00,577.00,701.00,985.00,2323.00,4095.00,4095.00,,,,,,,,,,,,0,1,0,,1292,13124,8292,921,-1319,-506
28.883,28.81,-2.41,-2.20,3.42,-3.09,3.89,-7.01,1.20,0.00,0.00,510.00,1449.00,479.00,768.00,973.00,2326.00,4095.00,4095.00,,,,,,,,,,,,0,1,0,,1500,12940,8388,60,-2537,-662
28.923,28.86,-2.45,-4.48,9.43,-2.18,7.14,-3.36,-3.07,0.00,0.00,384.00,1350.00,395.00,679.00,1147.00,2257.00,4095.00,4095.00,,,,,,,,,,,,0,1,0,,1648,13188,8840,258,-3468,-851
28.984,28.92,-2.67,6.69,-3.70,8.45,-3.11,-6.83,-0.31,0.00,0.00,638.00,1234.00,567.00,587.00,1052.00,2404.00,4095.00,4095.00,,,,,,,,,,,,0,1,0,,1704,12632,8956,-201,-2995,-814
29.045,28.98,-2.87,-1.66,3.21,-1.42,3.99,-6.67,0.61,0.00,0.00,511.00,1427.00,462.00,717.00,998.00,2331.00,4095.00,4095.00,,,,,,,,,,,,0,1,0,,1876,12808,9188,-783,-1730,-102
29.087,29.03,-2.96,-2.06,6.36,0.68,5.95,-4.63,-1.39,0.00,0.00,434.00,1332.00,400.00,626.00,1072.00,2269.00,4095.00,4095.00,,,,,,,,,,,,0,1,0,,1820,13276,9776,16,89,-739
29.15,29.08,-3.10,3.43,-0.20,5.52,1.34,-5.73,-0.16,0.00,0.00,560.00,1278.00,470.00,585.00,1023.00,2293.00,4095.00,4095.00,,,,,,,,,,,,0,1,0,,1552,13168,8844,228,926,-527
29.21,29.14,-3.23,1.23,2.52,3.37,3.20,-5.65,0.18,0.00,0.00,503.00,1296.00,442.00,606.00,1003.00,2265.00,4095.00,4095.00,,,,,,,,,,,,0,1,0,,1740,13032,8460,5,161,-363
29.252,29.19,-3.34,0.12,4.11,1.48,4.47,-5.45,0.62,0.00,0.00,471.00,1298.00,427.00,631.00,976.00,2221.00,4095.00,4095.00,,,,,,,,,,,,0,1,0,,1772,12984,8608,-142,-355,-155
29.314,29.25,-3.34,0.86,4.79,2.31,5.63,-3.31,-1.60,0.00,0.00,448.00,1238.00,395.00,592.00,1058.00,2165.00,4095.00,4095.00,,,,,,,,,,,,0,1,0,,1928,13296,8652,-352,-720,-466
29.374,29.30,-3.46,6.44,-1.47,8.30,0.02,-5.89,0.76,0.00,0.00,568.00,1174.00,480.00,543.00,976.00,2251.00,4095.00,4095.00,,,,,,,,,,,,0,1,0,,1908,13160,9072,-380,-819,-652
29.496,29.36,-3.64,-0.70,4.27,0.17,5.13,-7.06,3.75,0.00,0.00,474.00,1335.00,422.00,653.00,848.00,2176.00,4095.00,4095.00,,,,,,,,,,,,0,1,0,,1588,13172,9300,-118,-6,-664
29.517,29.41,-3.56,-2.12,9.27,0.70,9.16,-1.99,-2.33,0.00,0.00,371.00,1235.00,336.00,574.00,1075.00,2096.00,4095.00,4095.00,,,,,,,,,,,,0,1,0,,1532,12880,8588,14,190,-446
29.557,29.47,-3.67,7.79,-2.69,11.26,-0.98,-5.67,0.65,0.00,0.00,592.00,1150.00,480.00,496.00,978.00,2238.00,4095.00,4095.00,,,,,,,,,,,,0,1,0,,1552,13080,8672,-208,16,-130
29.6,29.52,-3.74,-0.27,4.28,1.67,5.52,-5.22,1.57,0.00,0.00,470.00,1312.00,402.00,609.00,923.00,2145.00,4095.00,4095.00,,,,,,,,,,,,0,1,0,,1612,13072,8816,-132,172,-118
29.663,29.58,-3.71,-0.30,6.77,1.96,7.83,-2.99,-0.75,0.00,0.00,411.00,1229.00,353.00,566.00,1005.00,2090.00,4095.00,4095.00,,,,,,,,,,,,0,1,0,,1700,13084,8748,-133,251,-199
29.724,29.64,-3.73,2.84,2.13,4.99,4.09,-4.15,0.31,0.00,0.00,499.00,1229.00,409.00,555.00,969.00,2127.00,4095.00,4095.00,,,,,,,,,,,,0,1,0,,1692,13104,8704,-83,294,-96
29.765,29.69,-3.76,2.41,2.46,4.87,4.13,-4.45,0.70,0.00,0.00,494.00,1239.00,409.00,557.00,954.00,2130.00,4095.00,4095.00,,,,,,,,,,,,0,1,0,,1656,13124,8676,21,142,-264
29.849,29.75,-3.81,-1.00,4.76,0.97,6.56,-4.62,1.45,0.00,0.00,464.00,1333.00,385.00,609.00,919.00,2102.00,4095.00,4095.00,,,,,,,,,,,,0,1,0,,1636,13068,8876,39,78,-140
29.868,29.80,-3.72,0.04,5.61,3.26,6.77,-2.10,-1.11,0.00,0.00,435.00,1251.00,365.00,553.00,1008.00,2037.00,4095.00,4095.00,,,,,,,,,,,,0,1,0,,1684,13244,8868,84,272,-31
29.909,29.85,-3.80,6.36,-1.70,10.64,-0.06,-5.26,1.19,0.00,0.00,576.00,1185.00,462.00,496.00,943.00,2171.00,4095.00,4095.00,,,,,,,,,,,,0,1,0,,1612,13164,8648,140,324,-141
29.971,29.91,-3.87,-2.23,4.51,-0.80,6.68,-5.28,2.49,0.00,0.00,481.00,1409.00,395.00,651.00,879.00,2098.00,4095.00,4095.00,,,,,,,,,,,,0,1,0,,1596,13244,8544,52,249,-46
30.033,29.96,-3.74,-2.38,8.82,1.65,9.01,-1.20,-1.86,0.00,0.00,382.00,1263.00,333.00,555.00,1033.00,2006.00,4095.00,4095.00,,,,,,,,,,,,1,0,0,,1648,13180,8652,-84,180,-42
30.094,30.02,-3.78,7.08,-2.45,10.44,-0.59,-4.48,1.04,0.00,0.00,592.00,1175.00,477.00,507.00,937.00,2113.00,4095.00,4095.00,,,,,,,,,,,,1,0,0,,1616,13284,8728,66,295,-18
30.136,30.07,-3.80,1.32,3.47,2.51,5.33,-4.25,1.93,0.00,0.00,477.00,1259.00,400.00,592.00,889.00,2044.00,4095.00,4095.00,,,,,,,,,,,,1,0,0,,1656,13336,8592,31,306,-106
30.237,30.13,-3.75,0.17,6.43,1.58,8.38,-2.70,0.23,0.00,0.00,415.00,1217.00,345.00,566.00,948.00,2013.00,4095.00,4095.00,,,,,,,,,,,,1,0,0,,1464,13072,8520,-55,301,-81
30.257,30.18,-3.69,2.90,2.91,5.10,4.46,-2.66,-0.09,0.00,0.00,478.00,1201.00,400.00,547.00,964.00,2027.00,4095.00,4095.00,,,,,,,,,,,,1,0,0,,1652,13172,8504,-41,245,-66
30.298,30.24,-3.71,3.68,1.81,5.62,4.24,-4.07,1.22,0.00,0.00,500.00,1199.00,401.00,539.00,921.00,2069.00,4095.00,4095.00,,,,,,,,,,,,1,0,0,,1608,13256,8624,-30,112,-175
30.36,30.30,-3.70,-0.04,4.40,1.47,6.44,-3.43,1.45,0.00,0.00,465.00,1296.00,384.00,599.00,899.00,2005.00,4095.00,4095.00,,,,,,,,,,,,1,0,0,,1644,13332,8608,-233,107,-109
30.421,30.35,-3.58,-0.10,6.84,2.80,8.13,-1.31,-0.95,0.00,0.00,408.00,1217.00,342.00,543.00,985.00,1966.00,4095.00,4095.00,,,,,,,,,,,,1,0,0,,1528,13268,8500,-97,171,-131
30.462,30.41,-3.63,7.46,-1.72,12.33,-0.63,-4.58,1.45,0.00,0.00,565.00,1135.00,462.00,471.00,918.00,2098.00,4095.00,4095.00,,,,,,,,,,,,1,0,0,,1492,13216,8408,-294,136,-111
30.565,30.46,-3.67,-1.60,4.77,-0.28,6.60,-4.46,3.01,0.00,0.00,469.00,1365.00,393.00,639.00,842.00,2003.00,4095.00,4095.00,,,,,,,,,,,,1,0,0,,1596,13252,8792,-386,116,-112
30.585,30.51,-3.54,-2.14,9.18,0.71,10.06,-1.08,-1.30,0.00,0.00,373.00,1239.00,320.00,560.00,1000.00,1967.00,4095.00,4095.00,,,,,,,,,,,,1,0,0,,1484,13184,8632,-48,167,-120
30.626,30.57,-3.56,5.96,-1.11,10.26,0.35,-3.93,1.24,0.00,0.00,562.00,1185.00,455.00,498.00,918.00,2057.00,4095.00,4095.00,,,,,,,,,,,,1,0,0,,1568,13396,8980,1133,391,-114
30.687,30.62,-3.58,0.10,4.20,2.76,5.67,-4.01,2.19,0.00,0.00,469.00,1296.00,391.00,581.00,873.00,2011.00,4095.00,4095.00,,,,,,,,,,,,1,0,0,,1464,13540,8400,1891,702,-224
30.77,30.68,-3.56,-0.34,5.86,2.49,7.23,-3.11,0.90,0.00,0.00,432.00,1261.00,361.00,563.00,921.00,2009.00,4095.00,4095.00,,,,,,,,,,,,1,0,0,,1500,13536,8340,2214,360,-467
30.81,30.73,-3.51,1.46,3.28,4.92,4.52,-2.67,0.51,0.00,0.00,481.00,1259.00,400.00,550.00,933.00,1995.00,4095.00,4095.00,,,,,,,,,,,,1,0,0,,1452,13476,7972,1582,103,-553
30.852,30.79,-3.52,3.80,0.91,5.83,2.71,-3.70,1.48,0.00,0.00,524.00,1223.00,434.00,557.00,902.00,2025.00,4095.00,4095.00,,,,,,,,,,,,1,0,0,,1392,13460,7932,1027,205,-156
30.933,30.84,-3.52,-0.40,4.56,0.79,5.91,-3.38,2.28,0.00,0.00,464.00,1309.00,400.00,624.00,859.00,1957.00,4095.00,4095.00,,,,,,,,,,,,1,0,0,,1516,13700,7744,168,445,82
30.953,30.90,-3.36,-0.22,7.11,3.85,7.14,-0.36,-1.04,0.00,0.00,403.00,1214.00,354.00,535.00,973.00,1898.00,4095.00,4095.00,,,,,,,,,,,,1,0,0,,1604,13912,7644,-135,293,-129
31.014,30.95,-3.40,8.09,-2.35,12.23,-1.42,-4.17,1.64,0.00,0.00,578.00,1126.00,483.00,483.00,902.00,2054.00,4095.00,4095.00,,,,,,,,,,,,1,0,0,,1396,13888,7900,41,-5,-87
31.076,31.01,-3.42,-1.50,4.89,-0.72,6.33,-3.86,2.98,0.00,0.00,465.00,1355.00,402.00,655.00,834.00,1957.00,4095.00,4095.00,,,,,,,,,,,,1,0,0,,1516,13804,7456,176,130,-104
31.138,31.07,-3.28,-1.01,7.51,1.82,8.03,-0.66,-0.82,0.00,0.00,400.00,1239.00,350.00,566.00,967.00,1910.00,4095.00,4095.00,,,,,,,,,,,,1,0,0,,1404,13748,7304,-170,110,-84
31.179,31.12,-3.27,6.27,-1.15,8.78,0.56,-3.05,1.26,0.00,0.00,560.00,1172.00,462.00,525.00,902.00,1985.00,4095.00,4095.00,,,,,,,,,,,,1,0,0,,1488,13668,7488,-604,-69,-84
31.241,31.17,-3.27,0.42,3.70,2.08,5.16,-3.14,1.94,0.00,0.00,479.00,1297.00,407.00,605.00,871.00,1956.00,4095.00,4095.00,,,,,,,,,,,,1,0,0,,1452,13668,7844,-732,-183,30
31.301,31.23,-3.22,0.93,3.84,3.04,5.25,-2.34,1.15,0.00,0.00,471.00,1266.00,398.00,581.00,896.00,1936.00,4095.00,4095.00,,,,,,,,,,,,1,0,0,,1404,13816,7920,-893,-238,134
31.364,31.28,-3.16,1.31,3.91,1.82,8.03,-2.10,0.88,0.00,0.00,466.00,1245.00,350.00,566.00,905.00,1931.00,4095.00,4095.00,,,,,,,,,,,,1,0,0,,1436,13724,8324,-8,91,62
31.405,31.34,-3.17,4.63,-0.60,7.74,0.91,-3.39,1.48,0.00,0.00,560.00,1232.00,462.00,542.00,897.00,2000.00,4095.00,4095.00,,,,,,,,,,,,1,0,0,,1560,13916,8296,553,441,110
31.466,31.39,-3.17,-1.34,4.88,0.68,5.95,-3.10,2.27,0.00,0.00,464.00,1347.00,400.00,626.00,855.00,1936.00,4095.00,4095.00,,,,,,,,,,,,1,0,0,,1684,14216,8372,2347,1438,-123
31.527,31.45,-3.03,-1.00,6.78,2.13,7.77,-0.30,-0.89,0.00,0.00,416.00,1263.00,353.00,563.00,964.00,1886.00,4095.00,4095.00,,,,,,,,,,,,1,0,0,,1572,14164,7468,3159,1599,-282
31.589,31.50,-3.09,7.68,-3.80,11.33,-2.12,-4.30,1.70,0.00,0.00,630.00,1190.00,510.00,510.00,901.00,2061.00,4095.00,4095.00,,,,,,,,,,,,1,0,0,,1276,13844,6100,1072,703,-331
31.672,31.56,-3.12,-2.08,3.90,-0.97,5.69,-3.64,2.65,0.00,0.00,496.00,1424.00,418.00,673.00,846.00,1958.00,4095.00,4095.00,,,,,,,,,,,,1,0,0,,1380,14132,6556,-348,-553,-280
31.692,31.61,-3.00,-0.78,5.76,1.05,6.67,-0.67,-0.47,0.00,0.00,438.00,1287.00,382.00,605.00,949.00,1893.00,4095.00,4095.00,,,,,,,,,,,,1,0,0,,1304,14224,7360,63,-615,-154
31.733,31.67,-2.98,5.76,-0.88,9.73,0.24,-2.69,1.14,0.00,0.00,557.00,1187.00,462.00,510.00,902.00,1963.00,4095.00,4095.00,,,,,,,,,,,,1,0,0,,1180,14364,7428,-340,39,-210
31.793,31.73,-2.96,1.59,2.66,2.82,3.77,-2.60,1.55,0.00,0.00,496.00,1273.00,433.00,610.00,881.00,1935.00,4095.00,4095.00,,,,,,,,,,,,1,0,0,,1252,13776,6796,-194,126,335
31.835,31.78,-2.92,1.12,3.62,2.34,4.71,-2.04,1.15,0.00,0.00,475.00,1264.00,415.00,606.00,891.00,1913.00,4095.00,4095.00,,,,,,,,,,,,1,0,0,,1388,13904,6648,-1005,-403,608
31.896,31.83,-2.80,1.20,3.83,1.38,4.68,-0.69,-0.56,0.00,0.00,469.00,1253.00,423.00,630.00,954.00,1899.00,4095.00,4095.00,,,,,,,,,,,,1,0,0,,1556,13864,7216,-1735,-399,816
31.959,31.89,-2.82,5.01,-0.73,6.49,0.74,-3.16,1.61,0.00,0.00,560.00,1218.00,477.00,572.00,887.00,1975.00,4095.00,4095.00,,,,,,,,,,,,1,0,0,,1660,14112,7568,-1678,-122,844
32.022,31.94,-2.82,-1.08,4.17,-0.31,5.38,-2.87,2.41,0.00,0.00,480.00,1359.00,420.00,661.00,845.00,1911.00,4095.00,4095.00,,,,,,,,,,,,1,0,0,,2016,14012,7248,-2045,24,658
32.063,32.00,-2.70,-1.58,7.61,1.09,7.30,-0.40,-0.49,0.00,0.00,402.00,1264.00,369.00,594.00,945.00,1873.00,4095.00,4095.00,,,,,,,,,,,,1,0,0,,2232,14192,8744,-598,-41,-136
32.126,32.06,-2.69,6.83,-2.86,7.77,0.12,-2.38,0.87,0.00,0.00,608.00,1200.00,482.00,553.00,910.00,1953.00,4095.00,4095.00,,,,,,,,,,,,1,0,0,,1980,14032,8780,1665,411,-482
32.167,32.11,-2.67,-0.90,4.19,0.98,4.68,-2.42,1.57,0.00,0.00,478.00,1349.00,426.00,640.00,877.00,1920.00,4095.00,4095.00,,,,,,,,,,,,1,0,0,,1728,13740,7816,1507,803,-460
32.231,32.17,-2.58,-0.25,4.51,1.91,5.53,-0.86,-0.19,0.00,0.00,464.00,1303.00,400.00,603.00,938.00,1893.00,4095.00,4095.00,,,,,,,,,,,,1,0,0,,1796,13660,7184,1064,496,-34
32.292,32.22,-2.58,4.34,-0.50,6.85,1.13,-2.55,0.97,0.00,0.00,560.00,1243.00,464.00,558.00,908.00,1961.00,4095.00,4095.00,,,,,,,,,,,,1,0,0,,1772,13900,7272,756,118,0
32.332,32.28,-2.57,1.09,1.71,3.00,3.49,-2.34,1.15,0.00,0.00,527.00,1332.00,438.00,610.00,896.00,1936.00,4095.00,4095.00,,,,,,,,,,,,1,0,0,,1876,14496,7480,531,22,-248
32.414,32.33,-2.56,-0.13,3.02,1.54,4.80,-2.30,1.28,0.00,0.00,502.00,1350.00,419.00,624.00,889.00,1926.00,4095.00,4095.00,,,,,,,,,,,,1,0,0,,1852,14228,7024,-376,161,-419
32.476,32.39,-2.48,-0.61,3.97,2.05,5.08,-0.95,-0.57,0.00,0.00,481.00,1341.00,409.00,607.00,959.00,1919.00,4095.00,4095.00,,,,,,,,,,,,1,0,0,,1696,14140,7052,320,120,-501
32.497,32.44,-2.52,4.17,-1.32,6.57,0.37,-3.29,1.59,0.00,0.00,587.00,1279.00,486.00,576.00,890.00,1986.00,4095.00,4095.00,,,,,,,,,,,,1,0,0,,1560,14048,6820,136,-75,-432
32.557,32.50,-2.53,-1.43,3.79,-0.54,4.94,-2.90,2.59,0.00,0.00,493.00,1392.00,432.00,675.00,837.00,1904.00,4095.00,4095.00,,,,,,,,,,,,1,0,0,,1588,13956,6964,-256,-194,-259
32.62,32.55,-2.41,-0.50,5.45,1.59,5.64,0.02,-0.79,0.00,0.00,443.00,1283.00,400.00,609.00,953.00,1857.00,4095.00,4095.00,,,,,,,,,,,,1,0,1,,1644,14236,7388,-210,-169,-172
32.68,32.60,-2.41,5.76,-1.63,6.79,0.11,-2.44,1.12,0.00,0.00,580.00,1211.00,491.00,575.00,899.00,1945.00,4095.00,4095.00,,,,,,,,,,,,1,0,1,,1628,14184,7324,-340,123,-203
32.782,32.66,-2.42,-0.91,3.62,-0.14,4.13,-2.67,2.28,0.00,0.00,493.00,1370.00,448.00,679.00,848.00,1903.00,4095.00,4095.00,,,,,,,,,,,,1,0,1,,1496,14148,7172,-208,118,-353
32.803,32.72,-2.30,-0.41,5.89,1.01,6.30,-0.06,-0.47,0.00,0.00,432.00,1264.00,390.00,612.00,938.00,1847.00,4095.00,4095.00,,,,,,,,,,,,1,0,1,,1588,14016,7216,-124,31,-208
32.844,32.77,-2.28,4.59,-0.39,6.34,1.03,-1.81,0.89,0.00,0.00,554.00,1227.00,471.00,571.00,900.00,1909.00,4095.00,4095.00,,,,,,,,,,,,1,0,1,,1568,14096,7380,97,120,-128
32.907,32.83,-2.27,1.37,2.40,3.03,3.27,-2.18,1.28,0.00,0.00,505.00,1293.00,443.00,613.00,887.00,1917.00,4095.00,4095.00,,,,,,,,,,,,1,0,1,,1560,14020,7404,280,182,-50
32.969,32.88,-2.26,-0.22,3.76,1.15,4.50,-1.92,1.49,0.00,0.00,483.00,1328.00,429.00,639.00,873.00,1887.00,4095.00,4095.00,,,,,,,,,,,,1,0,1,,1684,14200,7320,990,362,59
33.009,32.94,-2.16,0.21,4.12,2.74,4.62,-0.34,-0.55,0.00,0.00,470.00,1293.00,414.00,598.00,947.00,1872.00,4095.00,4095.00,,,,,,,,,,,,1,0,1,,1712,14232,6912,1104,119,37
33.071,32.99,-2.20,5.02,-1.47,7.30,-0.25,-3.04,1.51,0.00,0.00,583.00,1242.00,496.00,569.00,890.00,1971.00,4095.00,4095.00,,,,,,,,,,,,1,0,1,,1828,14292,6480,157,-239,-132
33.134,33.05,-2.24,-1.93,3.81,-1.16,5.15,-2.95,2.57,0.00,0.00,497.00,1419.00,432.00,688.00,839.00,1909.00,4095.00,4095.00,,,,,,,,,,,,1,0,1,,1704,14244,6432,-1413,-166,-140
33.155,33.10,-2.07,-3.44,8.51,-2.28,10.44,1.11,-2.17,0.00,0.00,396.00,1328.00,331.00,624.00,1007.00,1846.00,4095.00,4095.00,,,,,,,,,,,,1,0,1,,1820,14588,6864,-2158,58,-486
33.216,33.16,-2.13,6.02,-3.07,9.24,-1.99,-3.20,1.31,0.00,0.00,624.00,1246.00,526.00,552.00,902.00,1994.00,4095.00,4095.00,,,,,,,,,,,,1,0,1,,1820,14064,7832,-1090,291,-1042
33.278,33.21,-2.16,-0.93,2.39,0.32,4.06,-2.80,2.04,0.00,0.00,527.00,1417.00,446.00,668.00,861.00,1925.00,4095.00,4095.00,,,,,,,,,,,,1,0,1,,1532,13976,7964,731,122,-614
33.319,33.27,-2.09,-2.50,6.04,0.58,6.21,-0.74,-0.29,0.00,0.00,445.00,1367.00,395.00,624.00,941.00,1889.00,4095.00,4095.00,,,,,,,,,,,,1,0,1,,1388,14220,7012,512,302,-379
33.422,33.32,-2.07,1.63,1.43,3.25,2.71,-1.70,0.61,0.00,0.00,530.00,1314.00,455.00,617.00,912.00,1915.00,4095.00,4095.00,,,,,,,,,,,,1,0,1,,1380,13684,7000,-187,481,-213
33.442,33.38,-2.09,1.44,2.16,3.13,2.46,-2.32,1.14,0.00,0.00,511.00,1298.00,462.00,624.00,896.00,1935.00,4095.00,4095.00,,,,,,,,,,,,1,0,1,,1276,13904,6840,-964,674,3
33.505,33.43,-2.08,-0.90,3.69,-0.17,4.90,-1.89,1.52,0.00,0.00,491.00,1367.00,430.00,666.00,871.00,1883.00,4095.00,4095.00,,,,,,,,,,,,1,0,1,,1332,14296,7020,-1736,508,-11
33.545,33.49,-1.96,-0.42,5.14,1.45,5.05,0.18,-0.74,0.00,0.00,450.00,1290.00,414.00,622.00,948.00,1843.00,4095.00,4095.00,,,,,,,,,,,,1,0,1,,1304,14216,7316,-1574,14,88
33.607,33.54,-2.00,5.77,-1.79,7.12,-0.45,-2.79,1.49,0.00,0.00,585.00,1216.00,503.00,576.00,887.00,1953.00,4095.00,4095.00,,,,,,,,,,,,1,0,1,,1344,13792,7656,-943,128,32
33.648,33.60,-2.08,-2.08,3.90,-2.19,5.28,-3.57,3.29,0.00,0.00,496.00,1424.00,437.00,714.00,816.00,1919.00,4095.00,4095.00,,,,,,,,,,,,1,0,1,,1436,14244,8332,575,145,-36
33.711,33.65,-1.93,-2.28,8.17,-0.22,7.94,0.92,-1.55,0.00,0.00,395.00,1280.00,365.00,615.00,977.00,1829.00,4095.00,4095.00,,,,,,,,,,,,1,0,1,,1592,14352,8204,2715,-237,-514
33.772,33.71,-1.96,5.91,-2.52,7.67,-1.32,-2.50,1.02,0.00,0.00,607.00,1233.00,522.00,577.00,905.00,1955.00,4095.00,4095.00,,,,,,,,,,,,1,0,1,,1344,13848,7232,1197,-164,-21
33.814,33.76,-2.00,-1.10,3.38,0.04,4.19,-2.65,2.16,0.00,0.00,501.00,1389.00,445.00,673.00,853.00,1907.00,4095.00,4095.00,,,,,,,,,,,,1,0,1,,1380,13760,7116,-562,478,134
33.875,33.82,-1.94,-2.08,6.28,0.07,6.20,-0.83,0.11,0.00,0.00,436.00,1336.00,399.00,637.00,922.00,1875.00,4095.00,4095.00,,,,,,,,,,,,1,0,1,,1596,13820,6980,-795,506,216
33.937,33.87,-1.93,0.77,2.39,2.19,3.43,-1.77,0.71,0.00,0.00,511.00,1325.00,446.00,631.00,908.00,1915.00,4095.00,4095.00,,,,,,,,,,,,1,0,1,,1620,14436,7424,-1297,84,189
33.997,33.92,-1.96,1.38,1.55,2.98,2.67,-2.65,1.31,0.00,0.00,529.00,1323.00,458.00,624.00,893.00,1951.00,4095.00,4095.00,,,,,,,,,,,,1,0,1,,1528,14344,7992,-368,14,18
34.037,33.98,-2.00,-2.03,3.95,-1.05,4.98,-2.59,1.88,0.00,0.00,494.00,1419.00,435.00,688.00,865.00,1917.00,4095.00,4095.00,,,,,,,,,,,,1,0,1,,1724,14028,7572,346,227,-73
34.099,34.03,-1.91,-2.05,5.77,0.22,6.10,-0.26,-0.73,0.00,0.00,448.00,1353.00,400.00,635.00,955.00,1875.00,4095.00,4095.00,,,,,,,,,,,,1,0,2,,1732,13916,7068,389,62,-204
34.16,34.09,-1.99,4.29,-1.70,7.37,-0.75,-3.53,1.65,0.00,0.00,598.00,1286.00,509.00,575.00,891.00,2002.00,4095.00,4095.00,,,,,,,,,,,,1,0,2,,1748,14036,7152,94,-144,-219
34.242,34.15,-2.05,-3.96,4.42,-3.17,5.44,-3.19,3.03,0.00,0.00,499.00,1513.00,441.00,739.00,822.00,1904.00,4095.00,4095.00,,,,,,,,,,,,1,0,2,,1576,13984,7468,-300,13,-336
34.263,34.20,-1.91,-3.27,7.95,-1.19,7.77,0.81,-1.55,0.00,0.00,407.00,1339.00,375.00,642.00,979.00,1837.00,4095.00,4095.00,,,,,,,,,,,,1,0,2,,1588,13964,7448,-4,205,-196
34.326,34.26,-1.93,4.80,-1.81,5.49,-0.12,-2.40,1.23,0.00,0.00,596.00,1264.00,509.00,609.00,893.00,1936.00,4095.00,4095.00,,,,,,,,,,,,1,0,2,,1656,14028,7348,60,80,-90
34.367,34.31,-1.96,-0.81,3.47,-0.50,4.33,-2.59,2.25,0.00,0.00,496.00,1370.00,446.00,685.00,848.00,1898.00,4095.00,4095.00,,,,,,,,,,,,1,0,2,,1560,14048,7180,47,34,-93
34.428,34.37,-1.94,-1.10,5.45,0.14,5.41,-1.46,0.75,0.00,0.00,448.00,1314.00,416.00,649.00,901.00,1890.00,4095.00,4095.00,,,,,,,,,,,,1,0,2,,1616,13940,7572,-70,-63,-287
34.491,34.42,-1.91,1.81,2.22,2.39,3.20,-1.29,0.59,0.00,0.00,506.00,1277.00,450.00,630.00,906.00,1885.00,4095.00,4095.00,,,,,,,,,,,,1,0,2,,1584,14184,7432,-7,135,-263
34.532,34.48,-1.96,2.48,0.86,3.87,1.55,-2.89,1.67,0.00,0.00,538.00,1290.00,479.00,621.00,880.00,1951.00,4095.00,4095.00,,,,,,,,,,,,1,0,2,,1564,14068,7244,52,128,-218
34.614,34.53,-1.98,-1.53,3.94,-0.95,4.57,-2.44,2.13,0.00,0.00,490.00,1392.00,444.00,693.00,851.00,1893.00,4095.00,4095.00,,,,,,,,,,,,1,0,2,,1528,14132,7408,-17,84,-114
34.697,34.59,-1.87,-1.60,5.99,0.53,6.00,0.30,-0.99,0.00,0.00,439.00,1321.00,400.00,629.00,959.00,1847.00,4095.00,4095.00,,,,,,,,,,,,1,0,2,,1588,14060,7384,-60,94,-142
34.717,34.64,-1.95,5.97,-2.57,8.10,-1.57,-3.53,1.69,0.00,0.00,608.00,1232.00,525.00,571.00,889.00,2000.00,4095.00,4095.00,,,,,,,,,,,,1,0,2,,1428,14228,7364,-182,60,-135
34.759,34.70,-2.02,-3.11,4.13,-2.82,5.03,-3.45,3.09,0.00,0.00,499.00,1474.00,448.00,737.00,823.00,1920.00,4095.00,4095.00,,,,,,,,,,,,1,0,2,,1480,14096,7536,1,37,-115
34.821,34.75,-1.93,-3.42,7.60,-0.84,7.31,-0.05,-1.18,0.00,0.00,416.00,1360.00,382.00,641.00,975.00,1882.00,4095.00,4095.00,,,,,,,,,,,,1,0,2,,1620,14064,7540,136,124,-131
34.862,34.81,-1.96,3.55,-0.95,4.18,0.72,-2.69,1.00,0.00,0.00,582.00,1298.00,498.00,627.00,909.00,1971.00,4095.00,4095.00,,,,,,,,,,,,1,0,2,,1644,14220,7208,218,226,-129
34.924,34.86,-2.01,-1.59,3.18,-0.13,4.00,-2.95,2.00,0.00,0.00,511.00,1424.00,451.00,681.00,865.00,1938.00,4095.00,4095.00,,,,,,,,,,,,1,0,2,,1692,14360,7240,139,81,-44
34.985,34.92,-2.03,-1.20,3.45,0.80,4.15,-2.34,1.17,0.00,0.00,500.00,1392.00,440.00,654.00,895.00,1935.00,4095.00,4095.00,,,,,,,,,,,,1,0,2,,1568,14224,7036,-206,-16,-160
35.046,34.97,-2.01,-0.83,2.93,1.57,3.64,-1.73,0.41,0.00,0.00,511.00,1391.00,446.00,643.00,922.00,1927.00,4095.00,4095.00,,,,,,,,,,,,1,0,2,,1548,14096,7236,-903,33,-218
35.109,35.03,-2.06,2.61,-0.95,4.00,0.53,-2.97,1.46,0.00,0.00,592.00,1347.00,505.00,635.00,891.00,1968.00,4095.00,4095.00,,,,,,,,,,,,1,0,2,,1628,14260,7668,-303,-2,-30
35.15,35.08,-2.09,-1.66,3.57,-1.35,4.42,-2.61,2.19,0.00,0.00,501.00,1413.00,451.00,707.00,851.00,1903.00,4095.00,4095.00,,,,,,,,,,,,1,0,2,,1596,14088,7432,308,-126,-136
35.213,35.14,-1.97,-1.87,6.51,-0.14,6.22,0.32,-1.00,0.00,0.00,429.00,1317.00,400.00,642.00,959.00,1846.00,4095.00,4095.00,,,,,,,,,,,,1,0,2,,1708,14036,7516,562,192,93
35.316,35.19,-2.04,7.32,-3.71,8.95,-2.75,-3.47,1.53,0.00,0.00,631.00,1204.00,551.00,570.00,896.00,2004.00,4095.00,4095.00,,,,,,,,,,,,1,0,2,,1844,14156,6720,581,266,-88
35.357,35.25,-2.10,-2.29,3.89,-1.62,4.02,-3.12,2.80,0.00,0.00,498.00,1436.00,463.00,722.00,831.00,1910.00,4095.00,4095.00,,,,,,,,,,,,1,0,2,,1752,14120,6732,94,321,-274
35.378,35.30,-2.00,-1.72,5.70,-0.62,6.06,-0.16,-0.84,0.00,0.00,447.00,1338.00,407.00,657.00,959.00,1873.00,4095.00,4095.00,,,,,,,,,,,,1,0,2,,1664,14432,7088,-165,142,-367
35.42,35.35,-2.03,4.28,-1.00,5.41,0.31,-2.66,1.26,0.00,0.00,576.00,1263.00,498.00,604.00,896.00,1955.00,4095.00,4095.00,,,,,,,,,,,,1,0,2,,1560,14264,7028,94,-49,-405
35.481,35.41,-2.06,-0.16,2.70,0.33,3.32,-2.49,1.66,0.00,0.00,511.00,1363.00,464.00,681.00,874.00,1921.00,4095.00,4095.00,,,,,,,,,,,,1,0,2,,1476,14088,6716,-162,-40,-173
35.522,35.47,-2.05,-0.02,3.02,0.68,3.82,-1.90,0.92,0.00,0.00,501.00,1344.00,449.00,663.00,900.00,1914.00,4095.00,4095.00,,,,,,,,,,,,1,0,2,,1564,14160,6756,-84,89,-44
35.582,35.52,-2.00,0.90,2.93,1.75,3.50,-1.05,-0.25,0.00,0.00,495.00,1299.00,448.00,641.00,944.00,1910.00,4095.00,4095.00,,,,,,,,,,,,1,0,2,,1444,14372,7200,-22,555,-130
35.643,35.58,-2.06,3.26,-0.98,4.73,0.10,-3.22,1.43,0.00,0.00,586.00,1314.00,510.00,624.00,897.00,1990.00,4095.00,4095.00,,,,,,,,,,,,1,0,2,,1504,14616,6940,32,844,-454
35.705,35.63,-2.10,-2.44,3.65,-1.91,4.56,-2.89,1.94,0.00,0.00,506.00,1454.00,452.00,720.00,867.00,1937.00,4095.00,4095.00,,,,,,,,,,,,1,0,2,,1344,13516,6136,-363,456,-771
35.767,35.69,-1.99,-3.30,6.82,-0.40,6.31,0.07,-1.41,0.00,0.00,433.00,1382.00,400.00,647.00,985.00,1885.00,4095.00,4095.00,,,,,,,,,,,,1,0,2,,1380,14900,7616,-1249,279,-177
35.829,35.74,-2.08,5.92,-3.96,8.98,-3.06,-3.68,1.33,0.00,0.00,656.00,1281.00,560.00,574.00,909.00,2031.00,4095.00,4095.00,,,,,,,,,,,,1,0,2,,1540,14544,8132,164,-22,-60
35.869,35.80,-2.13,-3.18,3.11,-2.22,4.34,-3.22,2.46,0.00,0.00,528.00,1519.00,460.00,733.00,848.00,1935.00,4095.00,4095.00,,,,,,,,,,,,1,0,2,,1456,14588,7704,449,123,20
35.951,35.85,-2.05,-2.04,5.40,-0.63,5.58,-0.38,-0.61,0.00,0.00,457.00,1366.00,418.00,666.00,951.00,1878.00,4095.00,4095.00,,,,,,,,,,,,1,0,2,,1400,14036,7004,472,129,70
35.971,35.91,-2.06,3.90,-0.65,4.97,0.53,-2.39,0.90,0.00,0.00,569.00,1270.00,496.00,611.00,909.00,1953.00,4095.00,4095.00,,,,,,,,,,,,1,0,2,,1528,13952,6660,-220,-205,-15
36.013,35.96,-2.05,0.69,2.02,1.28,2.93,-1.78,0.57,0.00,0.00,522.00,1342.00,466.00,663.00,915.00,1923.00,4095.00,4095.00,,,,,,,,,,,,1,0,3,,1440,14184,7068,-968,-366,-192
36.075,36.02,-2.03,0.08,2.95,0.62,3.79,-1.70,0.73,0.00,0.00,502.00,1341.00,450.00,665.00,906.00,1909.00,4095.00,4095.00,,,,,,,,,,,,1,0,3,,1576,14288,7572,-862,-333,-588
36.137,36.07,-1.96,0.26,3.45,1.32,4.18,-0.61,-0.65,0.00,0.00,487.00,1314.00,435.00,640.00,957.00,1897.00,4095.00,4095.00,,,,,,,,,,,,1,0,3,,1524,14464,7424,-40,4,-701
36.198,36.13,-2.01,3.95,-1.05,4.93,0.29,-2.90,1.15,0.00,0.00,581.00,1281.00,503.00,616.00,905.00,1979.00,4095.00,4095.00,,,,,,,,,,,,1,0,3,,1316,13944,7336,356,-45,-624
36.258,36.18,-2.05,-2.08,3.90,-2.02,4.72,-2.90,2.37,0.00,0.00,496.00,1424.00,449.00,720.00,847.00,1915.00,4095.00,4095.00,,,,,,,,,,,,1,0,3,,1432,14128,7004,334,-213,-188
36.299,36.24,-1.90,-3.15,7.91,-0.51,6.77,1.00,-2.02,0.00,0.00,407.00,1334.00,391.00,642.00,1001.00,1847.00,4095.00,4095.00,,,,,,,,,,,,1,0,3,,1448,14088,6960,-89,-319,-330
36.36,36.29,-1.97,6.85,-3.87,9.73,-3.31,-3.23,1.26,0.00,0.00,642.00,1232.00,560.00,561.00,905.00,1999.00,4095.00,4095.00,,,,,,,,,,,,1,0,3,,1372,14172,7328,-270,-61,-183
36.443,36.35,-2.02,-2.39,3.45,-4.18,5.41,-2.95,2.05,0.00,0.00,511.00,1459.00,450.00,770.00,863.00,1936.00,4095.00,4095.00,,,,,,,,,,,,1,0,3,,1500,14060,7300,-75,174,-134
36.462,36.40,-1.94,-2.16,5.60,0.06,5.52,-0.55,-0.53,0.00,0.00,453.00,1365.00,414.00,649.00,950.00,1887.00,4095.00,4095.00,,,,,,,,,,,,1,0,3,,1476,14148,7288,159,207,-80
36.523,36.46,-1.97,2.81,-0.35,4.84,0.84,-2.42,0.85,0.00,0.00,571.00,1315.00,489.00,609.00,912.00,1958.00,4095.00,4095.00,,,,,,,,,,,,1,0,3,,1532,14372,7140,291,285,36
36.584,36.51,-2.00,-0.34,2.16,1.56,2.91,-2.54,0.93,0.00,0.00,528.00,1393.00,464.00,656.00,910.00,1963.00,4095.00,4095.00,,,,,,,,,,,,1,0,3,,1568,14248,7032,723,272,-109
36.647,36.57,-2.01,-1.52,3.16,0.09,3.85,-2.27,1.02,0.00,0.00,511.00,1421.00,453.00,678.00,901.00,1937.00,4095.00,4095.00,,,,,,,,,,,,1,0,3,,1508,14468,6616,417,104,-277
36.708,36.62,-1.94,-1.60,3.96,0.85,4.30,-0.66,-0.75,0.00,0.00,490.00,1395.00,436.00,650.00,963.00,1906.00,4095.00,4095.00,,,,,,,,,,,,1,0,3,,1372,14104,6868,-515,108,-193
36.75,36.67,-2.00,3.79,-1.50,5.65,-0.78,-3.16,1.42,0.00,0.00,597.00,1305.00,526.00,616.00,896.00,1985.00,4095.00,4095.00,,,,,,,,,,,,1,0,3,,1428,14416,7036,-446,209,-196
36.812,36.73,-2.06,-1.90,3.39,-1.81,4.41,-3.22,2.77,0.00,0.00,508.00,1433.00,455.00,720.00,834.00,1919.00,4095.00,4095.00,,,,,,,,,,,,1,0,3,,1348,14292,6996,-461,91,-162
36.872,36.78,-1.90,-2.99,7.77,-1.19,7.14,1.14,-2.07,0.00,0.00,409.00,1331.00,388.00,653.00,1001.00,1839.00,4095.00,4095.00,,,,,,,,,,,,1,0,3,,1288,14204,7200,-635,132,-46
36.892,36.84,-1.97,6.69,-3.73,8.32,-2.54,-3.27,1.36,0.00,0.00,639.00,1235.00,551.00,581.00,901.00,1997.00,4095.00,4095.00,,,,,,,,,,,,1,0,3,,1448,14196,6980,-427,208,94
36.953,36.90,-2.01,-1.19,2.58,-1.44,3.92,-2.73,1.97,0.00,0.00,524.00,1424.00,464.00,719.00,863.00,1923.00,4095.00,4095.00,,,,,,,,,,,,1,0,3,,1432,14212,6860,-56,159,-108
37.014,36.95,-1.93,-1.91,5.88,-0.23,5.89,-0.52,-0.31,0.00,0.00,444.00,1341.00,408.00,650.00,938.00,1873.00,4095.00,4095.00,,,,,,,,,,,,1,0,3,,1324,14176,7284,-190,-25,-59
37.075,37.01,-1.94,3.09,-0.18,4.90,0.44,-2.00,0.71,0.00,0.00,563.00,1295.00,499.00,614.00,912.00,1933.00,4095.00,4095.00,,,,,,,,,,,,1,0,3,,1500,14196,7208,-121,21,-75
37.134,37.06,-1.95,0.68,1.99,1.96,2.66,-2.15,0.96,0.00,0.00,523.00,1344.00,467.00,650.00,902.00,1931.00,4095.00,4095.00,,,,,,,,,,,,1,0,3,,1532,14400,7028,-116,-123,-155
37.175,37.12,-1.96,-1.27,3.55,-0.12,4.21,-2.15,1.38,0.00,0.00,498.00,1392.00,446.00,677.00,882.00,1910.00,4095.00,4095.00,,,,,,,,,,,,1,0,3,,1476,14228,7116,-268,-229,-202
37.237,37.17,-1.89,-1.16,4.43,1.23,4.26,-0.54,-0.69,0.00,0.00,474.00,1354.00,434.00,641.00,958.00,1894.00,4095.00,4095.00,,,,,,,,,,,,1,0,3,,1456,14220,7292,-230,-36,-238
37.3,37.23,-1.95,4.06,-1.62,6.29,-0.92,-3.20,1.31,0.00,0.00,598.00,1295.00,524.00,603.00,902.00,1994.00,4095.00,4095.00,,,,,,,,,,,,1,0,3,,1524,14232,7168,-211,4,-172
37.36,37.28,-2.02,-2.93,3.74,-1.95,4.62,-3.27,2.70,0.00,0.00,508.00,1479.00,451.00,720.00,838.00,1927.00,4095.00,4095.00,,,,,,,,,,,,1,0,3,,1624,14108,7160,-411,139,-146
37.421,37.34,-1.88,-4.56,8.43,-1.09,6.82,0.68,-1.84,0.00,0.00,406.00,1391.00,394.00,656.00,997.00,1861.00,4095.00,4095.00,,,,,,,,,,,,1,0,3,,1524,14216,7216,-330,119,-130
37.462,37.39,-1.95,4.46,-2.75,7.43,-1.87,-3.27,1.13,0.00,0.00,631.00,1314.00,540.00,591.00,912.00,2009.00,4095.00,4095.00,,,,,,,,,,,,1,0,3,,1472,14228,7040,-418,33,-161
37.543,37.45,-2.00,-1.64,2.42,-0.74,3.41,-2.81,2.13,0.00,0.00,533.00,1456.00,471.00,709.00,857.00,1921.00,4095.00,4095.00,,,,,,,,,,,,1,0,3,,1400,14080,7288,-272,111,2
37.563,37.50,-1.91,-1.99,6.29,-0.49,5.93,-0.29,-0.52,0.00,0.00,435.00,1331.00,409.00,656.00,945.00,1867.00,4095.00,4095.00,,,,,,,,,,,,1,0,3,,1520,14108,7144,-361,193,-62
37.624,37.56,-1.90,2.42,0.78,2.93,2.33,-1.72,0.71,0.00,0.00,541.00,1296.00,467.00,631.00,907.00,1911.00,4095.00,4095.00,,,,,,,,,,,,1,0,3,,1528,14000,7116,-403,51,-127
37.684,37.61,-1.90,1.31,2.35,2.54,2.38,-1.92,1.01,0.00,0.00,507.00,1298.00,469.00,640.00,896.00,1911.00,4095.00,4095.00,,,,,,,,,,,,1,0,3,,1576,14148,7336,-284,-12,-65
37.746,37.67,-1.91,-1.34,4.06,-0.71,4.32,-1.97,1.36,0.00,0.00,485.00,1377.00,448.00,691.00,880.00,1897.00,4095.00,4095.00,,,,,,,,,,,,1,0,3,,1512,14072,7536,-221,53,-77
37.787,37.72,-1.81,-1.25,5.71,0.87,5.03,0.02,-0.73,0.00,0.00,443.00,1313.00,419.00,637.00,950.00,1854.00,4095.00,4095.00,,,,,,,,,,,,1,0,3,,1588,14004,7108,-117,68,-159
37.91,37.78,-1.86,5.19,-1.81,6.48,-0.53,-2.90,1.40,0.00,0.00,592.00,1245.00,511.00,592.00,893.00,1966.00,4095.00,4095.00,,,,,,,,,,,,1,0,3,,1464,14152,7472,20,14,-120
37.931,37.83,-1.92,-2.61,4.19,-2.38,5.09,-2.98,2.84,0.00,0.00,493.00,1443.00,443.00,723.00,827.00,1897.00,4095.00,4095.00,,,,,,,,,,,,1,0,3,,1668,14092,7172,-51,50,-231
37.951,37.89,-1.78,-3.92,9.20,-1.39,7.84,0.93,-1.76,0.00,0.00,385.00,1329.00,375.00,646.00,988.00,1839.00,4095.00,4095.00,,,,,,,,,,,,1,0,3,,1580,14112,7512,123,124,-141
37.993,37.94,-1.83,5.32,-2.77,7.21,-1.72,-2.76,1.00,0.00,0.00,622.00,1271.00,538.00,594.00,910.00,1976.00,4095.00,4095.00,,,,,,,,,,,,1,0,3,,1596,13944,7500,-79,272,-257
38.054,38.00,-1.87,-1.88,3.32,-0.36,3.64,-2.61,2.10,0.00,0.00,510.00,1435.00,462.00,694.00,855.00,1907.00,4095.00,4095.00,,,,,,,,,,,,1,0,3,,1404,13900,7160,-365,118,-98
38.115,38.05,-1.81,-2.79,6.48,-0.40,6.08,-0.81,-0.11,0.00,0.00,437.00,1367.00,405.00,651.00,933.00,1885.00,4095.00,4095.00,,,,,,,,,,,,1,0,3,,1672,14136,7376,-195,160,3
38.177,38.10,-1.82,0.18,1.98,1.79,2.79,-2.02,0.78,0.00,0.00,528.00,1371.00,465.00,652.00,909.00,1931.00,4095.00,4095.00,,,,,,,,,,,,1,0,3,,1516,14180,7436,-229,134,-101
38.217,38.16,-1.85,0.21,1.80,2.16,2.71,-2.43,1.28,0.00,0.00,533.00,1376.00,464.00,644.00,891.00,1936.00,4095.00,4095.00,,,,,,,,,,,,1,0,3,,1524,14208,7208,-132,98,-158
38.278,38.22,-1.87,-2.79,3.84,-1.78,4.68,-2.09,1.44,0.00,0.00,504.00,1467.00,448.00,714.00,878.00,1902.00,4095.00,4095.00,,,,,,,,,,,,1,0,3,,1408,14232,7296,-199,17,-159
38.34,38.27,-1.78,-1.89,5.84,0.23,5.15,-0.08,-0.67,0.00,0.00,445.00,1342.00,421.00,651.00,949.00,1859.00,4095.00,4095.00,,,,,,,,,,,,1,0,3,,1472,13912,7408,-167,38,-68
38.381,38.33,-1.83,4.98,-1.68,6.43,-1.08,-2.76,1.56,0.00,0.00,590.00,1251.00,527.00,602.00,883.00,1947.00,4095.00,4095.00,,,,,,,,,,,,1,0,3,,1584,14152,7468,-41,212,70
38.443,38.38,-1.88,-2.87,4.24,-3.15,5.06,-2.98,3.20,0.00,0.00,494.00,1456.00,450.00,746.00,811.00,1879.00,4095.00,4095.00,,,,,,,,,,,,1,0,3,,1560,14192,7444,73,140,-60
38.504,38.44,-1.73,-3.38,9.01,-1.46,7.42,1.21,-1.61,0.00,0.00,385.00,1307.00,384.00,655.00,975.00,1811.00,4095.00,4095.00,,,,,,,,,,,,1,0,3,,1656,14028,7220,22,42,-38
38.564,38.49,-1.75,5.34,-2.60,6.28,-1.34,-2.20,0.98,0.00,0.00,616.00,1264.00,536.00,610.00,902.00,1934.00,4095.00,4095.00,,,,,,,,,,,,1,0,3,,1580,14032,7260,-53,130,-146
38.666,38.55,-1.78,-1.37,3.62,-0.80,3.87,-2.39,2.27,0.00,0.00,497.00,1395.00,460.00,702.00,844.00,1882.00,4095.00,4095.00,,,,,,,,,,,,1,0,3,,1628,14108,7236,-19,141,-77
38.686,38.60,-1.73,-1.99,6.38,-0.36,5.80,-0.80,0.30,0.00,0.00,433.00,1328.00,411.00,655.00,912.00,1863.00,4095.00,4095.00,,,,,,,,,,,,1,0,3,,1568,14356,7260,196,31,-58
38.726,38.66,-1.72,0.33,3.09,2.25,2.40,-1.38,0.72,0.00,0.00,496.00,1323.00,471.00,647.00,901.00,1885.00,4095.00,4095.00,,,,,,,,,,,,1,0,3,,1632,13996,7148,9,-38,-294
38.788,38.71,-1.76,0.86,2.36,2.37,2.52,-2.49,1.41,0.00,0.00,511.00,1321.00,467.00,642.00,886.00,1934.00,4095.00,4095.00,,,,,,,,,,,,1,0,3,,1616,14100,7392,-155,118,-112
38.85,38.77,-1.77,-2.13,4.10,-1.56,4.57,-2.00,1.66,0.00,0.00,491.00,1419.00,449.00,710.00,866.00,1884.00,4095.00,4095.00,,,,,,,,,,,,1,0,3,,1588,14112,7296,-243,200,-177
38.891,38.82,-1.68,-2.20,6.23,0.16,5.49,0.06,-0.76,0.00,0.00,438.00,1344.00,414.00,647.00,951.00,1853.00,4095.00,4095.00,,,,,,,,,,,,1,0,3,,1664,14084,7184,-202,54,-139
38.953,38.88,-1.74,4.52,-1.75,7.01,-1.31,-2.96,1.36,0.00,0.00,597.00,1276.00,528.00,592.00,896.00,1973.00,4095.00,4095.00,,,,,,,,,,,,1,0,3,,1652,14268,7400,-130,-20,-124
39.015,38.93,-1.82,-3.93,4.37,-3.12,4.73,-3.33,3.21,0.00,0.00,500.00,1513.00,458.00,752.00,816.00,1905.00,4095.00,4095.00,,,,,,,,,,,,1,0,3,,1636,14120,7188,-86,89,-265
39.036,38.99,-1.70,-4.61,8.72,-1.65,7.53,0.60,-1.25,0.00,0.00,400.00,1383.00,383.00,658.00,967.00,1838.00,4095.00,4095.00,,,,,,,,,,,,1,0,3,,1668,14156,7380,-18,124,-463
39.098,39.04,-1.73,4.56,-2.00,5.61,-0.84,-2.23,0.99,0.00,0.00,605.00,1283.00,528.00,618.00,902.00,1936.00,4095.00,4095.00,,,,,,,,,,,,1,0,3,,1516,14076,7452,85,433,-671
39.179,39.10,-1.75,-0.54,2.83,-0.94,4.07,-2.22,2.13,0.00,0.00,511.00,1379.00,456.00,702.00,848.00,1877.00,4095.00,4095.00,,,,,,,,,,,,1,0,3,,1440,13952,7324,-232,519,-404
39.22,39.15,-1.72,-1.50,5.96,-0.22,5.31,-1.15,0.69,0.00,0.00,439.00,1317.00,421.00,660.00,899.00,1870.00,4095.00,4095.00,,,,,,,,,,,,1,0,3,,1520,14140,7088,-213,188,-229
