Time_Host,Time_Arduino,easingdata,CH1_Oxy,CH1_Deoxy,CH2_Oxy,CH2_Deoxy,CH3_Oxy,CH3_Deoxy,CH4_Oxy,CH4_Deoxy,CH1_PD730,CH1_PD850,CH2_PD730,CH2_PD850,CH3_PD730,CH3_PD850,CH4_PD730,CH4_PD850,Answers,airplane_playstate,trail_times,frameRate,Airplane X,Airplane Y,Correct,Wrong,Slow,AnswerRate,CorrectRate,VFTstates,VFTchoose,VFTCount,Culfstates,ax,ay,az,gx,gy,gz
0.035,31.50,16.04,7.79,27.03,46.32,42.76,15.54,38.18,8.28,19.39,822.00,1457.00,161.00,208.00,368.00,795.00,1232.00,1754.00,,,,,,,,,,,,0,0,0,,-4680,15912,3192,-761,-608,-222
1.381,0.04,0.00,0.00,0.00,0.00,0.00,0.00,0.00,0.00,0.00,810.00,1528.00,128.00,258.00,302.00,705.00,1255.00,1729.00,,,,,,,,,,,,0,0,0,,-4128,14464,4028,-300,1286,-687
1.402,0.10,0.00,0.00,0.00,0.00,0.00,0.00,0.00,0.00,0.00,849.00,1494.00,157.00,208.00,320.00,735.00,1264.00,1778.00,,,,,,,,,,,,0,0,0,,-4020,14528,4088,-173,-463,109
1.423,0.15,0.00,0.00,0.00,0.00,0.00,0.00,0.00,0.00,0.00,875.00,1552.00,179.00,242.00,273.00,767.00,1214.00,1798.00,,,,,,,,,,,,0,0,0,,-3976,14824,4572,-96,-1019,274
1.444,0.21,0.00,0.00,0.00,0.00,0.00,0.00,0.00,0.00,0.00,816.00,1600.00,130.00,275.00,295.00,717.00,1260.00,1747.00,,,,,,,,,,,,0,0,0,,-3988,14616,5072,-63,-569,281
1.465,0.26,0.00,0.00,0.00,0.00,0.00,0.00,0.00,0.00,0.00,861.00,1531.00,147.00,250.00,327.00,729.00,1283.00,1776.00,,,,,,,,,,,,0,0,0,,-3956,14692,4916,-354,-304,207
1.486,1.06,0.00,0.00,0.00,0.00,0.00,0.00,0.00,0.00,0.00,827.00,1535.00,131.00,244.00,323.00,695.00,1294.00,1727.00,,,,,,,,,,,,0,0,0,,-3380,15024,4844,-75,137,-29
1.507,1.12,0.00,0.00,0.00,0.00,0.00,0.00,0.00,0.00,0.00,910.00,1495.00,195.00,208.00,306.00,759.00,1252.00,1807.00,,,,,,,,,,,,0,0,0,,-3356,14728,4716,-1,106,-72
1.57,1.17,0.00,0.00,0.00,0.00,0.00,0.00,0.00,0.00,0.00,859.00,1578.00,173.00,272.00,257.00,734.00,1210.00,1744.00,,,,,,,,,,,,0,0,0,,-3436,14976,4840,29,154,-80
1.652,1.23,0.00,0.00,0.00,0.00,0.00,0.00,0.00,0.00,0.00,795.00,1532.00,112.00,260.00,305.00,676.00,1286.00,1703.00,,,,,,,,,,,,0,0,0,,-3276,14932,4684,-5,178,-55
1.673,1.28,0.00,0.00,0.00,0.00,0.00,0.00,0.00,0.00,0.00,859.00,1459.00,160.00,188.00,306.00,696.00,1249.00,1741.00,,,,,,,,,,,,0,0,0,,-3432,14936,4676,-3,90,-196
1.715,1.34,-0.21,0.99,-0.78,5.32,-4.70,-4.20,5.24,-0.95,1.34,867.00,1503.00,177.00,221.00,245.00,740.00,1189.00,1758.00,,,,,,,,,,,,0,0,0,,-3424,14952,4768,-33,77,-134
1.778,1.39,-0.19,-1.25,1.73,-7.42,8.04,0.11,1.93,1.11,-0.01,788.00,1535.00,112.00,260.00,271.00,682.00,1232.00,1680.00,,,,,,,,,,,,0,0,0,,-3404,14924,4812,-22,47,-142
1.841,1.45,-0.09,0.85,0.05,4.53,0.57,1.83,-1.31,0.39,-0.24,831.00,1478.00,135.00,198.00,313.00,695.00,1264.00,1739.00,,,,,,,,,,,,0,0,0,,-3472,15036,4712,30,87,-205
1.945,1.50,-0.25,0.99,-1.20,7.29,-5.88,-3.25,3.19,-1.44,1.49,887.00,1520.00,182.00,211.00,269.00,753.00,1190.00,1785.00,,,,,,,,,,,,0,0,0,,-3436,14864,4736,-19,26,-179
1.966,1.56,-0.35,-1.71,1.25,-6.35,4.79,-2.21,3.33,-0.08,0.35,816.00,1584.00,131.00,272.00,262.00,720.00,1235.00,1744.00,,,,,,,,,,,,0,0,0,,-3400,14836,4792,-83,55,-125
2.008,1.61,-0.23,-1.02,0.74,-4.62,4.20,2.06,-2.09,0.42,-0.54,828.00,1562.00,131.00,258.00,325.00,703.00,1284.00,1751.00,,,,,,,,,,,,0,0,0,,-3376,14816,4808,-64,86,-172
2.069,1.67,-0.32,1.27,-1.77,8.59,-8.15,-2.00,0.51,-1.35,0.49,910.00,1526.00,201.00,213.00,304.00,770.00,1254.00,1827.00,,,,,,,,,,,,0,0,0,,-3356,14924,4644,-135,72,-159
2.111,1.72,-0.48,-1.31,-0.09,-2.87,-0.76,-3.63,3.95,-0.81,0.67,871.00,1616.00,166.00,275.00,260.00,749.00,1230.00,1780.00,,,,,,,,,,,,0,0,0,,-3392,15192,4660,-97,61,-219
2.172,1.78,-0.35,-1.13,1.09,-6.45,6.75,2.16,-1.42,1.11,-0.84,814.00,1554.00,118.00,259.00,313.00,688.00,1289.00,1718.00,,,,,,,,,,,,0,0,0,,-3372,14752,4796,-119,99,-156
2.234,1.83,-0.30,1.90,-1.32,8.72,-5.42,0.68,-0.57,0.11,0.08,878.00,1471.00,173.00,197.00,307.00,713.00,1249.00,1744.00,,,,,,,,,,,,0,0,0,,-3332,14788,4772,-1,76,-246
2.337,1.89,-0.48,0.72,-0.43,3.41,-3.53,-3.91,4.92,-0.75,1.32,855.00,1505.00,172.00,231.00,248.00,738.00,1186.00,1745.00,,,,,,,,,,,,0,0,0,,-3380,14940,4656,-83,69,-244
2.358,1.94,-0.44,-0.97,1.69,-6.65,7.78,0.31,1.79,0.94,0.26,786.00,1520.00,112.00,254.00,272.00,679.00,1218.00,1679.00,,,,,,,,,,,,0,0,0,,-3452,14892,4764,-62,133,-223
2.399,2.00,-0.35,2.10,-1.12,5.05,-0.01,1.37,-0.80,0.45,-0.02,865.00,1451.00,138.00,197.00,307.00,698.00,1248.00,1725.00,,,,,,,,,,,,0,0,0,,-3364,14968,4572,-86,146,-278
2.44,2.05,-0.51,1.26,-0.81,5.74,-5.66,-3.53,3.70,-1.23,1.58,864.00,1488.00,185.00,223.00,263.00,751.00,1180.00,1766.00,,,,,,,,,,,,0,0,0,,-3408,14828,4832,-199,132,-273
2.502,2.11,-0.54,-1.07,1.46,-6.86,5.53,-1.07,2.32,0.51,0.30,797.00,1535.00,127.00,272.00,271.00,707.00,1225.00,1706.00,,,,,,,,,,,,0,0,0,,-3336,15044,4892,-63,106,-201
2.564,2.16,-0.40,-0.31,0.66,1.59,-3.34,2.23,-1.86,0.75,-0.49,821.00,1522.00,176.00,247.00,320.00,694.00,1273.00,1726.00,,,,,,,,,,,,0,0,0,,-3400,14920,4596,12,86,-243
2.607,2.22,-0.47,1.51,-1.36,4.52,-6.12,-1.75,0.49,-1.06,0.51,886.00,1495.00,194.00,237.00,303.00,763.00,1246.00,1805.00,,,,,,,,,,,,0,0,0,,-3368,14864,4776,-39,92,-238
2.69,2.27,-0.60,-0.98,0.16,-4.06,-0.47,-3.15,3.43,-0.50,0.67,854.00,1584.00,167.00,286.00,265.00,745.00,1223.00,1758.00,,,,,,,,,,,,0,0,0,,-3444,14788,4804,-97,66,-233
2.731,2.33,-0.47,-0.37,0.44,-4.37,4.12,2.01,-2.01,0.77,-0.84,832.00,1535.00,131.00,256.00,324.00,703.00,1297.00,1741.00,,,,,,,,,,,,0,0,0,,-3440,15064,4576,-100,146,-180
2.772,2.38,-0.48,1.65,-1.74,9.34,-7.46,-0.69,0.01,-0.83,0.31,902.00,1502.00,191.00,203.00,305.00,741.00,1255.00,1799.00,,,,,,,,,,,,0,0,0,,-3532,14912,4908,-59,113,-216
2.834,2.44,-0.67,0.43,-0.74,2.80,-3.75,-4.29,4.68,-1.40,1.32,874.00,1535.00,176.00,238.00,253.00,754.00,1200.00,1790.00,,,,,,,,,,,,0,0,0,,-3412,14880,4744,-53,123,-187
2.896,2.49,-0.67,-1.60,1.69,-9.11,8.44,-0.65,2.18,0.84,0.04,795.00,1558.00,113.00,275.00,271.00,698.00,1235.00,1696.00,,,,,,,,,,,,0,0,0,,-3452,14808,5020,-186,58,-189
2.937,2.55,-0.56,1.42,-0.21,5.07,-0.42,1.57,-1.46,0.58,-0.30,834.00,1455.00,141.00,199.00,317.00,705.00,1264.00,1729.00,,,,,,,,,,,,0,0,0,,-3468,15056,4840,-107,113,-230
3.058,2.60,-0.73,1.32,-0.87,6.76,-5.80,-4.06,4.10,-1.26,1.60,866.00,1487.00,183.00,215.00,260.00,759.00,1179.00,1767.00,,,,,,,,,,,,0,0,0,,-3460,14840,4676,-99,113,-146
3.078,2.66,-0.75,-1.27,1.81,-6.86,5.53,-1.03,2.58,1.02,0.28,785.00,1533.00,127.00,272.00,267.00,701.00,1215.00,1673.00,,,,,,,,,,,,0,0,0,,-3404,15020,4832,-84,97,-175
3.099,2.71,-0.60,0.75,0.37,0.37,2.11,2.24,-1.97,0.89,-0.39,818.00,1471.00,134.00,224.00,322.00,696.00,1263.00,1712.00,,,,,,,,,,,,0,0,0,,-3420,14952,4788,-9,130,-142
3.16,2.77,-0.64,1.97,-1.45,8.47,-7.26,-1.53,0.36,-0.94,0.92,883.00,1472.00,192.00,209.00,304.00,759.00,1216.00,1777.00,,,,,,,,,,,,0,0,0,,-3476,14788,4912,-117,120,-190
3.202,2.82,-0.78,-0.45,0.07,-8.03,5.78,-3.26,4.11,-0.23,0.70,850.00,1555.00,128.00,283.00,256.00,735.00,1215.00,1738.00,,,,,,,,,,,,0,0,0,,-3564,14864,4756,-108,93,-166
3.264,2.88,-0.60,-0.26,0.76,-5.15,6.16,2.72,-2.25,1.43,-1.05,816.00,1515.00,119.00,250.00,324.00,688.00,1296.00,1706.00,,,,,,,,,,,,0,0,0,,-3500,14900,4744,-41,112,-159
3.325,2.93,-0.63,2.16,-1.78,8.79,-7.56,-1.21,0.13,-0.75,0.35,896.00,1474.00,194.00,208.00,306.00,754.00,1250.00,1791.00,,,,,,,,,,,,0,0,0,,-3472,14872,4652,-25,139,-171
3.398,2.99,-0.78,0.18,-0.38,-0.75,-1.80,-3.54,4.06,-0.58,0.88,861.00,1535.00,169.00,260.00,258.00,744.00,1211.00,1754.00,,,,,,,,,,,,0,0,0,,-3484,14932,4824,-140,110,-149
3.418,3.04,-0.75,-1.01,1.37,-9.88,10.96,-0.22,1.77,0.77,0.08,800.00,1535.00,100.00,265.00,275.00,694.00,1234.00,1699.00,,,,,,,,,,,,0,0,0,,-3496,14840,4764,-165,129,-147
3.48,3.10,-0.66,1.28,-0.50,6.07,-1.14,0.96,-1.20,0.28,-0.20,849.00,1474.00,144.00,195.00,316.00,717.00,1264.00,1745.00,,,,,,,,,,,,0,0,0,,-3416,14896,4780,-104,129,-168
3.541,3.15,-0.86,0.77,-1.03,5.48,-5.27,-4.62,4.57,-1.24,1.29,882.00,1526.00,182.00,223.00,256.00,766.00,1199.00,1781.00,,,,,,,,,,,,0,0,0,,-3428,14928,4604,-62,102,-215
3.583,3.21,-0.89,-1.98,1.58,-8.18,6.27,-1.47,2.39,0.40,0.20,805.00,1586.00,125.00,281.00,272.00,717.00,1234.00,1718.00,,,,,,,,,,,,0,0,0,,-3420,15012,4788,-46,143,-242
3.643,3.26,-0.76,0.83,0.05,1.16,0.77,1.64,-1.89,0.76,-0.67,831.00,1479.00,142.00,225.00,324.00,711.00,1285.00,1734.00,,,,,,,,,,,,0,0,0,,-3448,14760,4948,-171,116,-99
3.724,3.32,-0.81,1.87,-1.35,7.54,-6.95,-1.74,0.43,-0.71,0.55,880.00,1474.00,192.00,215.00,304.00,764.00,1236.00,1779.00,,,,,,,,,,,,0,0,0,,-3568,14840,4908,105,367,-155
3.785,3.37,-0.91,-0.42,0.10,-3.92,-1.06,-2.78,2.90,0.01,0.45,848.00,1552.00,172.00,289.00,271.00,745.00,1226.00,1733.00,,,,,,,,,,,,0,0,0,,-3452,15024,4720,-39,517,-16
3.805,3.43,-0.76,0.29,0.37,-3.87,3.67,2.17,-2.46,1.20,-0.84,825.00,1498.00,133.00,254.00,331.00,707.00,1287.00,1712.00,,,,,,,,,,,,0,0,0,,-3460,14840,4592,-58,32,-81
3.866,3.48,-0.70,2.22,-1.72,6.99,-7.33,0.38,-2.46,-0.66,0.42,892.00,1468.00,198.00,222.00,342.00,759.00,1243.00,1781.00,,,,,,,,,,,,0,0,0,,-3416,15104,4740,91,233,-153
3.926,3.54,-0.88,0.15,-0.29,0.20,-2.77,-4.33,4.84,-0.38,1.03,857.00,1533.00,175.00,257.00,251.00,752.00,1197.00,1733.00,,,,,,,,,,,,0,0,0,,-3564,14896,4604,-5,316,-118
3.989,3.59,-0.82,-0.81,1.45,-8.75,8.32,0.30,1.59,1.19,-0.12,794.00,1520.00,113.00,272.00,275.00,683.00,1238.00,1680.00,,,,,,,,,,,,0,0,0,,-3412,15008,4592,-22,128,-129
4.051,3.65,-0.72,1.57,-0.33,6.81,-1.26,1.28,-1.25,0.46,-0.14,837.00,1451.00,143.00,190.00,315.00,709.00,1256.00,1730.00,,,,,,,,,,,,0,0,0,,-3520,14832,4568,7,145,-197
4.091,3.70,-0.89,1.04,-0.76,5.83,-5.28,-4.13,4.19,-0.98,1.40,865.00,1499.00,181.00,220.00,259.00,759.00,1186.00,1757.00,,,,,,,,,,,,0,0,0,,-3440,14868,4712,-29,191,-141
4.152,3.76,-0.87,-0.25,1.14,-7.27,6.41,-0.46,2.12,0.89,0.07,799.00,1499.00,122.00,270.00,271.00,694.00,1232.00,1691.00,,,,,,,,,,,,0,0,0,,-3300,14952,4424,-229,69,-154
4.213,3.81,-0.75,0.78,0.03,3.07,-0.00,1.51,-1.84,0.57,-0.59,833.00,1483.00,143.00,213.00,324.00,714.00,1284.00,1743.00,,,,,,,,,,,,0,0,0,,-3496,14992,5080,-159,112,-134
4.273,3.87,-0.83,1.23,-1.24,6.52,-6.79,-2.33,0.81,-0.99,0.70,885.00,1507.00,194.00,223.00,301.00,774.00,1232.00,1791.00,,,,,,,,,,,,0,0,0,,-3452,14976,4728,-61,167,-170
4.334,3.92,-0.90,-0.70,-0.28,-3.66,-1.57,-2.33,1.69,-1.15,1.27,870.00,1585.00,176.00,290.00,287.00,756.00,1198.00,1775.00,,,,,,,,,,,,0,0,0,,-3404,15008,4592,-47,39,-235
4.375,3.98,-0.80,-0.28,-0.19,-2.95,1.02,1.07,-2.59,0.13,-0.64,859.00,1555.00,151.00,263.00,340.00,741.00,1298.00,1776.00,,,,,,,,,,,,0,0,0,,-3560,15032,4576,-43,93,-194
4.416,4.03,-0.85,1.39,-1.79,5.85,-7.77,-1.71,-0.30,-1.06,0.47,909.00,1520.00,207.00,235.00,316.00,778.00,1249.00,1807.00,,,,,,,,,,,,0,0,0,,-3360,14744,4728,-199,68,-262
4.522,4.09,-0.99,-0.51,-0.15,-3.30,-1.59,-3.76,3.99,-0.39,0.83,861.00,1568.00,175.00,286.00,260.00,752.00,1210.00,1743.00,,,,,,,,,,,,0,0,0,,-3428,14964,4636,-54,169,-183
4.543,4.14,-0.91,-0.36,0.81,-6.31,6.54,0.77,0.20,1.23,-0.18,815.00,1519.00,119.00,259.00,294.00,696.00,1241.00,1680.00,,,,,,,,,,,,0,0,0,,-3448,14988,4616,-84,121,-144
4.585,4.20,-0.86,1.65,-0.55,4.53,-1.98,-0.03,-0.51,0.37,0.03,846.00,1455.00,155.00,212.00,310.00,732.00,1246.00,1728.00,,,,,,,,,,,,0,0,0,,-3480,14932,4740,-95,137,-159
4.648,4.25,-1.01,0.72,-0.41,2.12,-3.52,-3.74,3.92,-0.53,1.08,854.00,1504.00,176.00,243.00,261.00,753.00,1197.00,1741.00,,,,,,,,,,,,0,0,0,,-3412,14936,4628,-38,203,-108
4.69,4.31,-0.96,-0.56,1.09,-5.63,5.26,0.01,0.84,1.23,-0.26,806.00,1520.00,126.00,261.00,288.00,705.00,1246.00,1683.00,,,,,,,,,,,,0,0,0,,-3560,14784,4700,-144,107,-146
4.753,4.36,-0.85,1.65,-0.59,4.27,-1.78,1.18,-1.68,0.47,-0.26,848.00,1457.00,154.00,213.00,323.00,720.00,1264.00,1735.00,,,,,,,,,,,,0,0,0,,-3420,14992,4808,-68,86,-138
4.815,4.42,-0.97,0.90,-1.03,4.01,-5.37,-3.19,2.57,-0.65,0.98,880.00,1518.00,188.00,237.00,278.00,764.00,1206.00,1754.00,,,,,,,,,,,,0,0,0,,-3408,14852,4728,-60,121,-162
4.899,4.47,-1.03,-0.06,-0.02,-3.42,0.46,-2.31,2.01,-0.01,0.26,848.00,1535.00,157.00,272.00,282.00,749.00,1239.00,1743.00,,,,,,,,,,,,0,0,0,,-3392,14948,4788,-86,139,-115
4.92,4.53,-0.90,0.11,-0.10,-2.43,0.96,1.63,-2.45,0.67,-0.74,849.00,1528.00,150.00,258.00,334.00,722.00,1292.00,1743.00,,,,,,,,,,,,0,0,0,,-3540,14964,4720,-144,130,-129
4.983,4.58,-0.95,1.39,-1.79,4.98,-7.12,-1.97,0.32,-0.94,0.46,909.00,1520.00,203.00,239.00,307.00,773.00,1247.00,1799.00,,,,,,,,,,,,0,0,0,,-3496,14940,4716,-152,189,-130
5.024,4.64,-1.04,-1.06,-0.05,-3.95,-0.51,-2.76,2.42,-0.49,0.49,865.00,1598.00,167.00,285.00,278.00,754.00,1235.00,1766.00,,,,,,,,,,,,0,0,0,,-3468,14892,4884,-160,127,-128
5.086,4.69,-0.95,-0.91,0.46,-3.70,2.40,0.93,-1.30,0.73,-0.71,839.00,1567.00,142.00,261.00,318.00,720.00,1289.00,1738.00,,,,,,,,,,,,0,0,0,,-3504,14864,4712,-62,159,-90
5.126,4.75,-0.93,0.76,-0.90,3.59,-2.48,-0.65,-0.60,-0.31,-0.00,876.00,1521.00,162.00,223.00,315.00,752.00,1264.00,1777.00,,,,,,,,,,,,0,0,0,,-3480,14960,4700,-100,157,-157
5.187,4.80,-1.08,-0.39,-0.60,-5.21,-1.05,-3.97,3.37,-0.92,0.71,880.00,1579.00,176.00,304.00,270.00,771.00,1230.00,1786.00,,,,,,,,,,,,0,0,0,,-3456,14844,4596,-91,139,-122
5.247,4.86,-1.03,-1.26,0.60,-6.83,4.95,-0.12,0.50,0.61,-0.24,838.00,1583.00,131.00,276.00,294.00,715.00,1259.00,1724.00,,,,,,,,,,,,0,0,0,,-3480,14832,4968,-186,99,-155
5.31,4.91,-0.97,0.90,-0.60,3.49,-2.33,0.25,-1.48,0.27,-0.18,860.00,1501.00,161.00,223.00,325.00,743.00,1263.00,1745.00,,,,,,,,,,,,0,0,0,,-3524,15104,4752,-110,144,-184
5.372,4.97,-1.10,0.75,-0.85,3.69,-5.36,-3.61,2.84,-0.91,1.13,874.00,1520.00,189.00,240.00,276.00,771.00,1202.00,1765.00,,,,,,,,,,,,0,0,0,,-3472,14912,4696,-96,195,-96
5.433,5.02,-1.14,-0.61,0.78,-5.10,1.99,-1.83,1.39,0.24,0.08,820.00,1535.00,149.00,279.00,289.00,747.00,1246.00,1735.00,,,,,,,,,,,,0,0,0,,-3404,14964,4900,-32,74,-148
5.495,5.08,-1.03,0.13,-0.09,-1.36,-0.47,1.10,-2.38,0.65,-0.65,848.00,1526.00,159.00,257.00,336.00,736.00,1286.00,1740.00,,,,,,,,,,,,0,0,0,,-3456,15036,4724,-23,144,-121
5.516,5.13,-1.11,1.24,-1.58,1.19,-1.67,-2.77,1.08,-0.62,0.32,901.00,1520.00,162.00,240.00,299.00,782.00,1249.00,1783.00,,,,,,,,,,,,0,0,0,,-3480,14796,4740,-124,151,-157
5.64,5.19,-1.18,-0.66,-0.14,-3.94,-1.16,-2.40,2.23,-0.16,0.41,863.00,1577.00,173.00,290.00,279.00,747.00,1233.00,1747.00,,,,,,,,,,,,0,0,0,,-3416,14996,4740,-126,108,-135
5.66,5.24,-1.03,-0.39,0.46,-3.83,2.32,1.85,-2.35,0.99,-0.90,831.00,1535.00,143.00,263.00,331.00,714.00,1296.00,1729.00,,,,,,,,,,,,0,0,0,,-3452,14980,4744,-92,158,-162
5.703,5.30,-0.99,1.30,-1.52,7.09,-6.11,-0.34,-0.70,-0.72,0.18,897.00,1514.00,185.00,214.00,315.00,745.00,1261.00,1797.00,,,,,,,,,,,,0,0,0,,-3452,14940,4576,-66,122,-135
5.765,5.35,-1.10,0.45,-0.77,0.93,-3.12,-3.25,2.99,-0.54,0.62,875.00,1535.00,176.00,252.00,272.00,757.00,1227.00,1763.00,,,,,,,,,,,,0,0,0,,-3516,14804,4708,-136,115,-125
5.806,5.41,-1.05,-0.99,0.58,-7.83,4.32,0.04,0.01,0.40,-0.27,835.00,1567.00,138.00,292.00,301.00,720.00,1266.00,1740.00,,,,,,,,,,,,0,0,0,,-3484,14860,4704,-141,147,-158
5.869,5.46,-1.01,0.82,-0.96,2.28,-1.69,-0.39,-0.97,-0.19,-0.11,878.00,1520.00,159.00,230.00,320.00,752.00,1269.00,1774.00,,,,,,,,,,,,0,0,0,,-3376,15004,4768,-179,89,-187
5.911,5.52,-1.18,0.01,-1.08,2.09,-4.82,-4.39,3.37,-1.45,1.10,897.00,1575.00,189.00,252.00,272.00,784.00,1216.00,1805.00,,,,,,,,,,,,0,0,0,,-3548,15032,4752,-80,118,-131
5.995,5.57,-1.20,-2.05,1.00,-6.92,3.49,-1.47,0.77,0.08,-0.21,832.00,1616.00,142.00,288.00,297.00,749.00,1269.00,1759.00,,,,,,,,,,,,0,0,0,,-3472,14852,4728,-81,134,-142
6.014,5.63,-1.12,-1.35,0.22,-3.01,-0.15,0.35,-2.13,-0.21,-0.48,857.00,1605.00,161.00,272.00,336.00,753.00,1295.00,1793.00,,,,,,,,,,,,0,0,0,,-3428,14836,4692,-177,91,-207
6.056,5.68,-1.19,-0.01,-1.62,3.96,-7.13,-2.59,-0.18,-1.54,0.37,924.00,1599.00,207.00,249.00,319.00,803.00,1267.00,1847.00,,,,,,,,,,,,0,0,0,,-3476,14992,4636,-169,75,-232
6.137,5.74,-1.28,-1.14,-0.34,-5.21,-1.05,-2.88,1.81,-0.41,0.16,880.00,1616.00,176.00,304.00,288.00,770.00,1255.00,1776.00,,,,,,,,,,,,0,0,0,,-3488,14916,4972,-190,266,-17
6.2,5.79,-1.14,-0.51,0.07,-4.66,1.47,1.46,-2.44,0.72,-0.82,851.00,1559.00,152.00,278.00,335.00,727.00,1297.00,1744.00,,,,,,,,,,,,0,0,0,,-3464,14840,4800,-84,146,-192
6.241,5.85,-1.15,1.41,-1.80,5.67,-7.35,-1.36,-0.47,-0.57,0.09,909.00,1519.00,203.00,234.00,317.00,771.00,1264.00,1791.00,,,,,,,,,,,,0,0,0,,-3420,14992,4764,-33,171,-121
6.342,5.90,-1.27,0.52,-0.88,0.69,-3.35,-3.46,3.06,-0.54,0.71,879.00,1535.00,179.00,256.00,272.00,762.00,1221.00,1759.00,,,,,,,,,,,,0,0,0,,-3460,14868,4876,-49,152,-155
6.362,5.96,-1.21,-0.82,0.56,-5.28,3.07,-0.06,0.11,0.66,-0.24,833.00,1557.00,141.00,273.00,300.00,721.00,1258.00,1721.00,,,,,,,,,,,,0,0,0,,-3448,15052,4608,-35,109,-234
6.405,6.01,-1.15,1.30,-1.39,4.58,-3.27,-0.14,-1.00,-0.05,-0.09,891.00,1509.00,166.00,219.00,319.00,745.00,1264.00,1763.00,,,,,,,,,,,,0,0,0,,-3472,14776,4736,-156,88,-105
6.447,6.07,-1.30,0.05,-0.76,1.53,-4.44,-4.10,3.27,-1.17,1.05,881.00,1559.00,187.00,255.00,272.00,777.00,1213.00,1787.00,,,,,,,,,,,,0,0,0,,-3392,14912,4824,-158,74,-136
6.509,6.12,-1.29,-1.50,0.84,-7.59,3.58,-1.12,0.90,0.68,-0.32,831.00,1588.00,143.00,295.00,293.00,736.00,1263.00,1723.00,,,,,,,,,,,,0,0,0,,-3556,14948,4700,-106,175,-146
6.57,6.18,-1.21,0.28,-0.52,1.00,-2.17,0.35,-1.62,-0.08,-0.33,866.00,1535.00,167.00,245.00,327.00,743.00,1281.00,1776.00,,,,,,,,,,,,0,0,0,,-3432,14856,4704,-84,138,-134
6.673,6.23,-1.29,0.28,-1.48,2.86,-6.40,-2.89,0.63,-1.21,0.37,912.00,1575.00,203.00,255.00,307.00,795.00,1259.00,1823.00,,,,,,,,,,,,0,0,0,,-3372,14832,4780,-117,209,-110
6.714,6.29,-1.37,-1.47,-0.27,-5.42,-0.98,-2.72,1.63,-0.44,0.05,882.00,1634.00,176.00,306.00,290.00,769.00,1263.00,1783.00,,,,,,,,,,,,0,0,0,,-3448,14920,4612,-175,146,-199
6.735,6.34,-1.26,-0.94,-0.18,-3.42,0.46,0.69,-2.07,0.28,-0.86,869.00,1596.00,157.00,272.00,333.00,742.00,1310.00,1776.00,,,,,,,,,,,,0,0,0,,-3452,14904,4716,-148,26,-157
6.777,6.40,-1.34,0.43,-1.77,4.30,-7.34,-2.80,0.36,-1.36,0.26,924.00,1578.00,208.00,247.00,311.00,798.00,1270.00,1839.00,,,,,,,,,,,,0,0,0,,-3424,14852,4976,-113,154,-135
6.837,6.45,-1.47,-1.10,-0.56,-2.81,-2.58,-4.01,2.91,-1.24,0.63,890.00,1623.00,183.00,288.00,277.00,782.00,1242.00,1812.00,,,,,,,,,,,,0,0,0,,-3500,14848,4836,-147,159,-174
6.898,6.51,-1.45,-1.88,0.37,-6.92,3.49,-1.01,0.18,-0.30,-0.21,858.00,1632.00,142.00,288.00,304.00,747.00,1278.00,1786.00,,,,,,,,,,,,0,0,0,,-3340,14960,4700,-147,93,-254
6.96,6.56,-1.44,-0.43,-0.79,6.94,-4.82,-1.17,-0.71,-0.88,-0.06,890.00,1590.00,173.00,208.00,320.00,770.00,1281.00,1820.00,,,,,,,,,,,,0,0,0,,-3400,15008,4688,-90,65,-286
7.023,6.62,-1.60,-0.20,-1.36,0.18,-4.85,-4.77,3.50,-1.23,0.81,914.00,1600.00,196.00,272.00,272.00,793.00,1230.00,1803.00,,,,,,,,,,,,0,0,0,,-3360,14700,5108,-102,165,-62
7.064,6.67,-1.57,-1.71,0.84,-8.25,3.80,-1.03,0.31,-0.55,0.14,834.00,1601.00,143.00,301.00,302.00,745.00,1260.00,1787.00,,,,,,,,,,,,0,0,0,,-3432,14832,4784,-65,142,-237
7.106,6.73,-1.52,0.37,-0.66,-0.37,-1.49,-0.57,-1.26,-0.11,-0.30,871.00,1535.00,165.00,254.00,326.00,763.00,1280.00,1777.00,,,,,,,,,,,,0,0,0,,-3572,15008,4828,-60,117,-167
7.168,6.78,-1.57,0.08,-1.19,0.62,-5.10,-2.41,0.11,-0.92,0.25,901.00,1575.00,197.00,269.00,313.00,791.00,1261.00,1808.00,,,,,,,,,,,,0,0,0,,-3404,14856,4856,-111,36,-172
7.229,6.84,-1.63,-1.15,-0.40,-5.04,-1.42,-2.81,1.47,-0.42,0.11,883.00,1619.00,179.00,305.00,293.00,775.00,1259.00,1779.00,,,,,,,,,,,,0,0,0,,-3492,14916,4708,-61,88,-220
7.27,6.89,-1.53,-0.64,-0.32,-3.69,0.31,0.30,-2.00,0.27,-0.84,871.00,1583.00,159.00,276.00,334.00,752.00,1309.00,1776.00,,,,,,,,,,,,0,0,0,,-3516,14840,4876,-141,97,-160
7.331,6.95,-1.57,0.84,-1.93,4.29,-7.77,-2.36,-0.20,-1.18,0.22,925.00,1559.00,213.00,250.00,318.00,796.00,1269.00,1828.00,,,,,,,,,,,,0,0,0,,-3432,14872,4916,-96,113,-158
7.435,7.00,-1.70,-1.31,-0.35,-3.75,-1.96,-4.18,3.30,-0.85,0.43,883.00,1627.00,180.00,294.00,272.00,779.00,1247.00,1794.00,,,,,,,,,,,,0,0,0,,-3428,14904,4848,-26,142,-175
7.456,7.06,-1.64,-1.56,0.55,-6.58,3.11,-0.41,0.16,0.05,-0.23,845.00,1604.00,144.00,287.00,301.00,730.00,1271.00,1762.00,,,,,,,,,,,,0,0,0,,-3448,14764,4704,-48,108,-157
7.497,7.11,-1.61,0.54,-0.91,2.53,-3.66,-0.99,-0.54,-0.63,-0.05,880.00,1535.00,176.00,240.00,316.00,761.00,1275.00,1802.00,,,,,,,,,,,,0,0,0,,-3472,14852,4964,-80,126,-163
7.56,7.17,-1.75,-0.58,-0.97,-0.02,-4.69,-4.52,3.28,-1.48,0.86,901.00,1607.00,195.00,273.00,274.00,790.00,1232.00,1818.00,,,,,,,,,,,,0,0,0,,-3488,14980,4964,-89,127,-162
7.602,7.22,-1.75,-2.13,0.67,-7.81,3.53,-1.77,1.05,-0.13,-0.20,848.00,1635.00,144.00,298.00,294.00,752.00,1273.00,1773.00,,,,,,,,,,,,0,0,0,,-3504,14916,4784,-100,88,-184
7.683,7.28,-1.70,-0.14,-1.07,1.10,-3.07,-0.68,-1.39,-0.67,-0.34,899.00,1584.00,175.00,250.00,329.00,769.00,1296.00,1819.00,,,,,,,,,,,,0,0,0,,-3488,14960,4868,-13,93,-154
7.765,7.33,-1.79,-0.52,-1.33,0.78,-6.15,-3.49,0.60,-1.49,0.23,918.00,1619.00,208.00,275.00,311.00,815.00,1275.00,1850.00,,,,,,,,,,,,0,0,0,,-3352,14792,4832,-72,158,-162
7.786,7.39,-1.89,-2.03,-0.38,-5.06,-2.12,-3.75,1.91,-1.16,0.05,896.00,1675.00,186.00,311.00,291.00,795.00,1280.00,1835.00,,,,,,,,,,,,0,0,0,,-3384,14876,4836,-109,94,-238
7.828,7.44,-1.81,-1.61,-0.46,-3.56,-1.07,-0.42,-2.25,-0.65,-0.80,893.00,1651.00,171.00,285.00,343.00,779.00,1328.00,1840.00,,,,,,,,,,,,0,0,0,,-3516,15044,4820,-106,64,-274
7.889,7.50,-1.90,-0.38,-1.36,1.83,-7.29,-3.43,0.46,-1.66,0.36,917.00,1611.00,217.00,272.00,313.00,816.00,1270.00,1856.00,,,,,,,,,,,,0,0,0,,-3380,14784,4964,-130,133,-64
7.949,7.55,-2.00,-1.24,-0.91,-3.77,-4.26,-4.07,2.66,-1.07,0.53,909.00,1647.00,204.00,313.00,281.00,789.00,1245.00,1805.00,,,,,,,,,,,,0,0,0,,-3332,14864,4848,-63,163,-224
8.011,7.61,-1.95,-1.42,0.44,-7.03,3.27,-1.02,0.00,-0.21,-0.11,848.00,1600.00,144.00,291.00,307.00,751.00,1269.00,1775.00,,,,,,,,,,,,0,0,0,,-3456,14880,4872,-52,141,-128
8.051,7.66,-1.93,0.15,-0.80,2.22,-3.65,-1.39,-0.58,-0.55,-0.01,881.00,1554.00,177.00,243.00,319.00,774.00,1270.00,1794.00,,,,,,,,,,,,0,0,0,,-3448,14880,4916,-53,142,-163
8.131,7.72,-2.07,-0.61,-0.65,-0.26,-4.61,-4.89,3.54,-1.26,0.90,886.00,1595.00,195.00,275.00,272.00,796.00,1225.00,1801.00,,,,,,,,,,,,0,0,0,,-3356,14952,4676,5,165,-196
8.151,7.77,-2.06,-1.74,0.67,-7.48,2.66,-1.77,1.05,0.33,-0.32,842.00,1610.00,150.00,301.00,294.00,752.00,1271.00,1747.00,,,,,,,,,,,,0,0,0,,-3520,14808,4936,-131,105,-139
8.212,7.83,-2.00,0.58,-0.96,0.75,-2.85,-0.87,-1.16,-0.45,-0.26,882.00,1535.00,174.00,252.00,326.00,770.00,1285.00,1799.00,,,,,,,,,,,,0,0,0,,-3460,14888,4808,-83,113,-189
8.272,7.88,-2.10,-0.22,-1.31,0.79,-5.89,-3.92,2.16,-1.54,0.80,912.00,1599.00,205.00,273.00,288.00,795.00,1238.00,1826.00,,,,,,,,,,,,0,0,0,,-3448,14948,4852,-19,174,-185
8.334,7.94,-2.17,-1.27,-0.57,-4.93,-1.46,-3.54,1.96,-0.85,0.11,893.00,1634.00,179.00,304.00,289.00,787.00,1269.00,1810.00,,,,,,,,,,,,0,0,0,,-3476,14772,4652,-46,93,-174
8.375,7.99,-2.07,-0.96,-0.36,-4.52,-0.32,-0.28,-2.08,-0.35,-0.65,878.00,1605.00,167.00,290.00,339.00,771.00,1310.00,1811.00,,,,,,,,,,,,0,0,0,,-3456,14808,4832,-95,113,-139
8.437,8.05,-2.16,-0.14,-1.78,2.13,-7.72,-3.74,0.92,-1.75,0.38,934.00,1614.00,221.00,272.00,307.00,816.00,1271.00,1862.00,,,,,,,,,,,,0,0,0,,-3348,14948,4860,-100,128,-175
8.497,8.10,-2.28,-1.92,-0.52,-6.84,-1.02,-4.69,3.34,-1.40,0.53,901.00,1674.00,181.00,324.00,274.00,794.00,1253.00,1829.00,,,,,,,,,,,,0,0,0,,-3376,14924,4744,-93,75,-179
8.559,8.16,-2.22,-2.08,0.36,-7.37,2.50,-1.07,-0.22,-0.42,-0.43,862.00,1646.00,151.00,301.00,311.00,757.00,1296.00,1805.00,,,,,,,,,,,,0,0,0,,-3492,14936,4792,-30,131,-130
8.62,8.21,-2.20,-0.54,-1.02,-0.35,-3.10,-1.80,-0.50,-1.17,-0.03,903.00,1607.00,180.00,265.00,320.00,785.00,1286.00,1840.00,,,,,,,,,,,,0,0,0,,-3416,14788,4672,-177,73,-138
8.702,8.27,-2.36,-1.47,-0.75,-2.57,-3.06,-5.46,3.73,-2.04,0.96,905.00,1655.00,187.00,289.00,272.00,810.00,1238.00,1854.00,,,,,,,,,,,,0,0,0,,-3400,14660,4880,-213,112,-102
8.722,8.32,-2.35,-2.40,0.40,-8.45,3.36,-2.02,0.64,-0.42,-0.15,865.00,1665.00,147.00,307.00,302.00,768.00,1277.00,1792.00,,,,,,,,,,,,0,0,0,,-3420,14748,4988,-253,8,-209
8.764,8.38,-2.30,-0.01,-0.91,-1.83,-2.29,-1.41,-0.69,-0.58,-0.27,889.00,1569.00,177.00,275.00,321.00,777.00,1289.00,1809.00,,,,,,,,,,,,0,0,0,,-3548,14992,4960,-100,186,-65
8.866,8.43,-2.44,-0.23,-1.25,-0.43,-5.57,-5.00,2.78,-1.62,0.92,909.00,1597.00,206.00,284.00,284.00,816.00,1231.00,1825.00,,,,,,,,,,,,0,0,0,,-3456,14828,4956,-57,100,-131
8.887,8.49,-2.47,-1.45,-0.05,-5.91,-0.50,-3.13,1.51,-0.67,0.06,871.00,1623.00,173.00,308.00,294.00,784.00,1268.00,1799.00,,,,,,,,,,,,0,0,0,,-3492,14940,4952,95,-1,-127
8.948,8.54,-2.36,-0.91,-0.31,-4.55,-0.53,-0.30,-1.85,-0.12,-0.60,875.00,1600.00,169.00,292.00,335.00,767.00,1301.00,1792.00,,,,,,,,,,,,0,0,0,,-3376,14848,4968,194,167,-121
9.009,8.60,-2.48,0.39,-1.86,2.49,-7.85,-4.70,1.30,-1.54,0.41,929.00,1584.00,221.00,269.00,306.00,839.00,1264.00,1845.00,,,,,,,,,,,,0,0,0,,-3492,14812,4792,101,86,-240
9.05,8.65,-2.56,-1.50,-0.43,-5.72,-2.10,-4.16,2.69,-0.98,0.44,890.00,1643.00,188.00,319.00,281.00,791.00,1249.00,1803.00,,,,,,,,,,,,0,0,0,,-3496,15016,4688,99,131,-131
9.113,8.71,-2.46,-1.39,0.32,-6.04,2.05,-0.55,-0.75,0.15,-0.70,853.00,1603.00,151.00,289.00,317.00,752.00,1302.00,1778.00,,,,,,,,,,,,0,0,0,,-3392,14920,4740,115,136,-161
9.176,8.76,-2.44,0.11,-0.99,1.33,-3.25,-2.07,0.24,-0.81,0.06,891.00,1565.00,176.00,249.00,309.00,778.00,1271.00,1809.00,,,,,,,,,,,,0,0,0,,-3472,14916,4780,99,114,-203
9.242,8.82,-2.57,-0.85,-0.77,-1.68,-3.84,-5.05,3.73,-1.39,0.83,896.00,1616.00,192.00,285.00,270.00,797.00,1232.00,1813.00,,,,,,,,,,,,0,0,0,,-3424,14908,4804,32,150,-164
9.265,8.87,-2.53,-2.03,0.64,-8.24,3.42,-1.77,1.05,-0.25,-0.10,848.00,1630.00,146.00,304.00,294.00,752.00,1269.00,1777.00,,,,,,,,,,,,0,0,0,,-3516,14968,4712,-5,139,-160
9.349,8.93,-2.46,-0.36,-0.75,0.73,-3.26,-1.10,-0.91,-0.82,-0.11,887.00,1584.00,178.00,255.00,323.00,772.00,1283.00,1818.00,,,,,,,,,,,,0,0,0,,-3556,14920,4772,-47,122,-162
9.37,8.98,-2.61,-0.52,-1.31,1.53,-6.84,-5.48,3.54,-2.17,1.11,917.00,1618.00,213.00,272.00,275.00,815.00,1231.00,1856.00,,,,,,,,,,,,0,0,0,,-3468,14948,4680,-23,212,-100
9.412,9.04,-2.68,-2.36,0.34,-7.92,1.62,-3.92,2.16,-1.36,0.25,867.00,1665.00,160.00,315.00,288.00,795.00,1271.00,1840.00,,,,,,,,,,,,0,0,0,,-3436,14940,4448,-44,128,-158
9.496,9.09,-2.60,-1.69,-0.47,-5.35,-0.47,-1.06,-1.54,-0.81,-0.56,895.00,1657.00,171.00,301.00,334.00,784.00,1315.00,1840.00,,,,,,,,,,,,0,0,0,,-3488,14876,4792,-48,72,-116
9.538,9.15,-2.69,-0.64,-1.87,1.58,-7.87,-4.38,1.13,-1.86,0.36,947.00,1650.00,225.00,279.00,307.00,832.00,1275.00,1871.00,,,,,,,,,,,,0,0,0,,-3444,14852,4884,-146,65,-220
9.601,9.20,-2.76,-1.49,-0.56,-7.20,-1.40,-4.12,2.35,-0.93,0.26,896.00,1648.00,186.00,332.00,286.00,797.00,1260.00,1808.00,,,,,,,,,,,,0,0,0,,-3420,15024,4788,-65,157,-96
9.661,9.26,-2.63,-1.18,-0.05,-6.41,1.46,-0.17,-1.45,0.06,-0.72,867.00,1606.00,157.00,298.00,327.00,755.00,1305.00,1785.00,,,,,,,,,,,,0,0,0,,-3392,14912,4568,26,163,-139
9.724,9.31,-2.67,0.30,-1.30,2.08,-5.40,-3.50,0.84,-0.67,-0.01,903.00,1566.00,195.00,256.00,307.00,810.00,1273.00,1803.00,,,,,,,,,,,,0,0,0,,-3512,14980,4672,-54,181,-169
9.765,9.37,-2.85,-0.31,-0.89,-0.43,-4.36,-6.22,5.18,-1.63,1.23,893.00,1587.00,193.00,275.00,255.00,803.00,1211.00,1811.00,,,,,,,,,,,,0,0,0,,-3408,15016,4584,24,140,-132
9.827,9.42,-2.83,-2.03,1.06,-10.07,5.76,-2.55,2.75,0.24,-0.14,829.00,1612.00,133.00,307.00,272.00,741.00,1261.00,1745.00,,,,,,,,,,,,0,0,0,,-3564,14844,4696,-40,69,-261
9.889,9.48,-2.74,0.22,-0.44,0.08,-0.95,-0.93,-0.68,-0.39,-0.22,863.00,1535.00,159.00,246.00,318.00,762.00,1281.00,1793.00,,,,,,,,,,,,0,0,0,,-3440,14900,4604,-44,124,-151
9.994,9.53,-2.88,0.16,-1.52,1.87,-6.52,-5.54,3.76,-2.02,1.38,916.00,1584.00,208.00,266.00,272.00,812.00,1210.00,1832.00,,,,,,,,,,,,0,0,0,,-3468,15040,4580,-9,132,-155
10.014,9.59,-2.96,-2.46,0.92,-9.05,2.71,-4.51,3.55,-0.73,0.36,842.00,1646.00,154.00,320.00,270.00,784.00,1249.00,1789.00,,,,,,,,,,,,0,0,0,,-3460,15024,4640,45,128,-179
10.034,9.64,-2.81,-1.46,0.08,-7.93,4.09,0.11,-1.71,-0.16,-0.64,865.00,1618.00,140.00,295.00,330.00,752.00,1305.00,1797.00,,,,,,,,,,,,0,0,0,,-3484,14888,4596,-33,120,-180
10.076,9.70,-2.88,0.36,-2.14,3.98,-8.35,-4.34,1.30,-2.01,0.55,944.00,1598.00,221.00,257.00,304.00,827.00,1265.00,1872.00,,,,,,,,,,,,0,0,0,,-3560,15008,4548,-36,139,-167
10.135,9.75,-3.05,-2.02,-0.34,-6.27,-2.21,-6.28,5.13,-1.44,0.58,894.00,1673.00,191.00,327.00,256.00,806.00,1250.00,1829.00,,,,,,,,,,,,0,0,0,,-3580,14840,4612,-101,151,-132
10.197,9.81,-2.92,-2.20,0.50,-8.90,4.15,-0.45,-0.84,0.14,-0.94,857.00,1647.00,142.00,306.00,318.00,751.00,1319.00,1790.00,,,,,,,,,,,,0,0,0,,-3476,14976,4612,-48,175,-154
10.258,9.86,-2.87,0.16,-1.90,4.22,-6.77,-1.92,-0.23,-1.18,0.00,935.00,1600.00,202.00,244.00,316.00,783.00,1284.00,1839.00,,,,,,,,,,,,0,0,0,,-3436,15092,4424,-126,135,-212
10.342,9.92,-3.07,-1.17,-0.99,-0.90,-4.20,-6.73,5.28,-2.07,1.06,912.00,1646.00,193.00,279.00,256.00,817.00,1232.00,1851.00,,,,,,,,,,,,0,0,0,,-3432,15140,4436,-154,90,-208
10.362,9.97,-3.05,-2.52,1.00,-11.19,5.86,-2.72,2.81,0.00,-0.11,839.00,1646.00,135.00,320.00,272.00,745.00,1264.00,1760.00,,,,,,,,,,,,0,0,0,,-3440,14792,4768,-196,123,-125
10.403,10.03,-2.95,0.30,-0.55,0.64,-1.94,-1.02,-0.94,-0.67,-0.10,867.00,1535.00,166.00,247.00,323.00,770.00,1279.00,1807.00,,,,,,,,,,,,0,0,0,,-3496,15128,4736,-96,109,-230
10.465,10.08,-3.13,-0.02,-1.26,0.63,-5.92,-6.57,4.87,-1.39,1.21,906.00,1584.00,206.00,275.00,261.00,821.00,1207.00,1795.00,,,,,,,,,,,,0,0,0,,-3568,14932,4712,-85,116,-130
10.527,10.14,-3.16,-2.18,0.95,-9.91,3.85,-3.68,3.13,-0.30,0.22,836.00,1626.00,147.00,321.00,272.00,767.00,1249.00,1766.00,,,,,,,,,,,,0,0,0,,-3564,14908,4748,-109,59,-188
10.568,10.19,-2.99,-1.21,0.09,-6.61,1.88,0.20,-1.80,-0.25,-0.38,861.00,1602.00,154.00,297.00,331.00,751.00,1289.00,1791.00,,,,,,,,,,,,0,0,0,,-3448,14960,4508,-39,108,-228
10.63,10.25,-3.04,0.42,-1.67,3.75,-8.44,-4.11,1.29,-1.70,0.47,919.00,1574.00,223.00,260.00,303.00,820.00,1264.00,1854.00,,,,,,,,,,,,0,0,0,,-3484,14820,4632,-140,114,-149
10.713,10.30,-3.16,-1.80,-0.27,-5.73,-2.19,-5.27,4.43,-1.20,0.67,887.00,1655.00,189.00,320.00,261.00,789.00,1239.00,1808.00,,,,,,,,,,,,0,0,0,,-3480,14936,4648,-100,100,-161
10.733,10.36,-2.98,-1.77,0.55,-8.26,4.07,0.33,-1.39,0.41,-0.96,848.00,1617.00,141.00,299.00,323.00,739.00,1314.00,1772.00,,,,,,,,,,,,0,0,0,,-3448,14984,4604,-54,125,-182
10.795,10.41,-2.94,0.79,-2.07,3.96,-6.68,-2.20,0.28,-1.23,0.18,933.00,1568.00,202.00,246.00,309.00,781.00,1273.00,1834.00,,,,,,,,,,,,0,0,0,,-3396,14992,4436,-40,152,-180
10.857,10.47,-3.11,-0.63,-0.87,-0.57,-4.69,-6.37,5.30,-1.87,1.24,897.00,1606.00,197.00,279.00,254.00,805.00,1216.00,1828.00,,,,,,,,,,,,0,0,0,,-3476,15016,4740,-86,60,-182
10.917,10.52,-3.09,-2.66,1.27,-11.64,6.99,-2.69,2.46,-0.26,-0.02,829.00,1643.00,128.00,316.00,277.00,751.00,1264.00,1774.00,,,,,,,,,,,,0,0,0,,-3416,14928,4808,-109,80,-176
10.959,10.58,-3.01,-0.45,-0.57,0.68,-1.39,-1.54,-0.12,-0.92,-0.11,880.00,1582.00,161.00,243.00,312.00,769.00,1286.00,1826.00,,,,,,,,,,,,0,0,0,,-3484,15024,4576,-52,159,-157
11.061,10.63,-3.16,-0.79,-1.12,0.99,-6.04,-5.86,3.87,-2.58,1.40,912.00,1627.00,206.00,272.00,272.00,820.00,1221.00,1872.00,,,,,,,,,,,,0,0,0,,-3468,14904,4512,-148,77,-207
11.082,10.69,-3.20,-3.04,1.00,-11.14,4.52,-4.10,3.27,-0.79,0.16,847.00,1680.00,145.00,331.00,272.00,777.00,1264.00,1803.00,,,,,,,,,,,,0,0,0,,-3492,15072,4532,-99,88,-132
11.123,10.74,-3.09,-1.58,-0.07,-6.30,1.42,-0.89,-0.98,-0.55,-0.38,874.00,1632.00,157.00,297.00,323.00,767.00,1296.00,1812.00,,,,,,,,,,,,0,0,0,,-3524,14788,4952,-236,114,-174
11.184,10.80,-3.17,0.27,-1.68,2.85,-7.11,-4.63,1.46,-1.91,0.55,922.00,1584.00,211.00,260.00,303.00,833.00,1263.00,1865.00,,,,,,,,,,,,0,0,0,,-3532,14912,4724,-76,197,-209
11.265,10.85,-3.27,-1.75,-0.24,-6.57,-2.11,-5.27,4.01,-1.28,0.69,885.00,1651.00,191.00,330.00,267.00,798.00,1239.00,1812.00,,,,,,,,,,,,0,0,0,,-3520,14964,4548,-96,147,-125
11.308,10.91,-3.10,-1.42,0.37,-7.59,3.45,0.18,-1.17,0.31,-0.90,851.00,1603.00,144.00,296.00,320.00,739.00,1312.00,1776.00,,,,,,,,,,,,0,0,0,,-3492,15036,4704,-71,203,-167
11.349,10.96,-3.06,1.06,-2.16,5.08,-7.42,-2.31,0.26,-1.36,0.25,933.00,1555.00,206.00,240.00,310.00,785.00,1271.00,1840.00,,,,,,,,,,,,0,0,0,,-3476,15140,4540,-48,240,-156
11.431,11.02,-3.23,-0.54,-0.83,-0.42,-4.65,-6.53,5.72,-1.58,1.08,894.00,1599.00,196.00,277.00,249.00,801.00,1220.00,1815.00,,,,,,,,,,,,0,0,0,,-3524,14888,4576,-90,155,-94
11.452,11.07,-3.19,-1.88,0.66,-9.66,5.76,-2.40,2.63,-0.05,0.01,845.00,1620.00,132.00,302.00,273.00,739.00,1257.00,1758.00,,,,,,,,,,,,0,0,0,,-3564,15048,4584,-93,126,-105
11.514,11.13,-3.09,-0.09,-0.46,1.15,-1.77,-1.21,-0.70,-0.68,-0.11,869.00,1555.00,163.00,241.00,320.00,771.00,1280.00,1808.00,,,,,,,,,,,,0,0,0,,-3476,15024,4536,-38,107,-130
11.576,11.18,-3.25,-0.44,-1.03,0.62,-5.10,-6.21,4.61,-2.13,1.34,902.00,1601.00,197.00,269.00,263.00,815.00,1215.00,1842.00,,,,,,,,,,,,0,0,0,,-3592,14836,4552,-39,131,-191
11.639,11.24,-3.28,-2.62,0.97,-9.10,3.96,-3.80,3.65,-0.37,0.11,842.00,1654.00,144.00,310.00,265.00,760.00,1258.00,1776.00,,,,,,,,,,,,0,0,0,,-3420,14936,4680,-49,38,-199
11.7,11.29,-3.14,-1.28,0.02,-4.09,1.04,-0.62,-1.18,-0.55,-0.38,865.00,1609.00,154.00,275.00,325.00,763.00,1296.00,1812.00,,,,,,,,,,,,0,0,0,,-3448,14952,4636,-102,113,-145
11.742,11.35,-3.20,-0.23,-1.69,2.83,-7.37,-4.34,1.30,-1.98,0.41,931.00,1616.00,214.00,262.00,304.00,827.00,1274.00,1877.00,,,,,,,,,,,,0,0,0,,-3392,14944,4728,-72,122,-172
11.804,11.40,-3.33,-2.38,-0.30,-7.21,-1.50,-5.72,4.16,-1.49,0.44,898.00,1695.00,187.00,333.00,267.00,809.00,1261.00,1840.00,,,,,,,,,,,,0,0,0,,-3504,15024,4612,-72,99,-257
11.846,11.46,-3.18,-2.17,0.28,-7.91,2.93,-0.34,-1.05,-0.13,-0.97,867.00,1655.00,149.00,304.00,321.00,752.00,1328.00,1811.00,,,,,,,,,,,,0,0,0,,-3552,15132,4516,-71,78,-222
11.887,11.51,-3.35,0.63,-2.21,4.41,-7.19,-6.54,5.65,-1.62,0.26,943.00,1584.00,206.00,245.00,250.00,803.00,1276.00,1858.00,,,,,,,,,,,,0,0,0,,-3436,14708,4824,-190,126,-119
11.949,11.57,-3.51,-0.64,-0.76,-0.26,-4.61,-6.57,5.74,-1.59,1.10,892.00,1602.00,195.00,275.00,249.00,802.00,1219.00,1815.00,,,,,,,,,,,,0,0,0,,-3440,14932,4616,-35,205,-179
12.012,11.62,-3.46,-2.07,1.01,-9.75,5.65,-2.46,2.72,-0.01,-0.03,832.00,1617.00,133.00,304.00,272.00,739.00,1259.00,1757.00,,,,,,,,,,,,0,0,0,,-3560,14876,4616,-61,124,-115
12.094,11.68,-3.31,0.24,-0.47,2.26,-2.15,-0.56,-0.98,-0.56,-0.18,864.00,1535.00,163.00,233.00,321.00,757.00,1282.00,1803.00,,,,,,,,,,,,0,0,0,,-3384,14896,4660,-33,130,-165
12.114,11.73,-3.47,-0.47,-0.76,0.41,-4.65,-6.40,5.17,-1.92,1.32,889.00,1591.00,193.00,268.00,256.00,809.00,1212.00,1828.00,,,,,,,,,,,,0,0,0,,-3504,15008,4616,-21,149,-148
12.175,11.79,-3.45,-2.38,1.15,-9.76,4.57,-3.09,3.00,-0.84,0.44,830.00,1630.00,141.00,313.00,271.00,752.00,1246.00,1793.00,,,,,,,,,,,,0,0,0,,-3472,14876,4560,-74,110,-159
12.217,11.84,-3.29,-0.71,0.00,-2.70,0.93,-0.31,-1.00,-0.28,-0.43,857.00,1574.00,151.00,261.00,320.00,750.00,1293.00,1795.00,,,,,,,,,,,,0,0,0,,-3576,15044,4612,-129,41,-192
12.278,11.90,-3.36,-0.03,-1.35,3.56,-6.55,-4.74,2.63,-1.73,0.46,911.00,1589.00,202.00,249.00,285.00,811.00,1265.00,1856.00,,,,,,,,,,,,0,0,0,,-3572,14920,4736,-130,150,-217
12.341,11.95,-3.46,-1.94,-0.26,-6.76,-1.25,-5.23,4.42,-1.30,0.52,889.00,1664.00,183.00,325.00,261.00,788.00,1251.00,1822.00,,,,,,,,,,,,0,0,0,,-3520,14984,4744,-64,86,-197
12.401,12.01,-3.27,-1.91,0.49,-8.91,4.29,0.22,-1.12,-0.15,-0.79,853.00,1629.00,141.00,305.00,319.00,737.00,1315.00,1803.00,,,,,,,,,,,,0,0,0,,-3468,14960,4628,-80,29,-180
12.442,12.06,-3.28,0.37,-1.81,5.22,-7.47,-3.40,1.11,-1.82,0.30,927.00,1583.00,206.00,239.00,302.00,801.00,1278.00,1871.00,,,,,,,,,,,,0,0,0,,-3556,14876,4612,-100,118,-160
12.564,12.12,-3.44,-1.39,-0.57,-2.20,-3.09,-6.58,5.89,-2.14,1.33,895.00,1642.00,186.00,285.00,247.00,799.00,1216.00,1843.00,,,,,,,,,,,,0,0,0,,-3472,14916,4512,-30,51,-205
12.584,12.17,-3.38,-2.68,1.08,-10.37,6.56,-2.25,2.52,-0.40,-0.06,838.00,1653.00,128.00,304.00,274.00,737.00,1270.00,1786.00,,,,,,,,,,,,0,0,0,,-3580,15024,4572,-154,61,-277
12.605,12.23,-3.27,-0.57,-0.51,1.97,-1.24,-1.17,-0.42,-1.16,-0.04,879.00,1587.00,156.00,230.00,315.00,764.00,1286.00,1839.00,,,,,,,,,,,,0,0,0,,-3536,15176,4496,-131,61,-260
12.666,12.28,-3.42,-0.54,-0.96,1.57,-4.94,-6.24,5.11,-2.10,1.31,900.00,1604.00,192.00,258.00,256.00,805.00,1216.00,1841.00,,,,,,,,,,,,0,0,0,,-3380,14784,4912,-156,93,-148
12.727,12.34,-3.40,-2.53,1.27,-10.55,6.34,-2.94,2.88,-0.17,0.13,827.00,1635.00,130.00,308.00,272.00,750.00,1252.00,1761.00,,,,,,,,,,,,0,0,0,,-3424,15016,4724,-37,100,-272
12.768,12.39,-3.22,-0.01,-0.68,-2.43,0.96,0.17,-1.51,-0.32,-0.39,878.00,1559.00,150.00,258.00,326.00,746.00,1291.00,1796.00,,,,,,,,,,,,0,0,0,,-3692,14868,4692,-21,120,-142
12.83,12.45,-3.22,0.15,-1.13,4.52,-6.59,-3.28,0.88,-1.56,0.43,897.00,1568.00,199.00,240.00,305.00,802.00,1263.00,1845.00,,,,,,,,,,,,0,0,0,,-3496,14992,4664,-74,118,-169
12.932,12.50,-3.30,-1.60,-0.12,-6.70,-0.76,-4.79,4.48,-1.16,0.61,877.00,1636.00,178.00,320.00,258.00,773.00,1242.00,1808.00,,,,,,,,,,,,0,0,0,,-3496,14884,4416,-32,176,-159
12.953,12.56,-3.11,-1.15,0.37,-6.70,4.35,0.53,-1.23,0.33,-0.91,847.00,1586.00,135.00,279.00,319.00,730.00,1312.00,1775.00,,,,,,,,,,,,0,0,0,,-3616,14916,4560,-97,98,-135
13.014,12.61,-3.10,1.12,-1.76,6.73,-7.61,-2.85,1.04,-1.56,0.43,912.00,1535.00,202.00,226.00,300.00,785.00,1263.00,1845.00,,,,,,,,,,,,0,0,0,,-3588,14996,4596,-81,104,-138
13.075,12.67,-3.23,-1.02,-0.40,-1.59,-2.37,-5.88,5.80,-1.64,1.14,881.00,1611.00,177.00,273.00,245.00,779.00,1217.00,1816.00,,,,,,,,,,,,0,0,0,,-3572,14916,4768,12,172,-144
13.117,12.72,-3.16,-1.90,1.15,-9.04,7.00,-1.79,2.50,-0.17,-0.01,823.00,1600.00,122.00,285.00,272.00,724.00,1261.00,1767.00,,,,,,,,,,,,0,0,0,,-3580,14964,4684,-68,102,-152
13.179,12.78,-3.05,0.20,-0.41,4.12,-1.72,-0.86,-0.29,-0.73,-0.09,862.00,1535.00,154.00,214.00,311.00,752.00,1280.00,1811.00,,,,,,,,,,,,0,0,0,,-3448,14904,4604,-93,124,-141
13.282,12.83,-3.21,-0.43,-0.81,1.49,-4.52,-6.26,5.56,-2.08,1.31,891.00,1591.00,188.00,256.00,250.00,796.00,1216.00,1840.00,,,,,,,,,,,,0,0,0,,-3536,14940,4608,-171,80,-146
13.303,12.89,-3.20,-2.69,1.31,-10.03,6.31,-3.11,3.28,-0.24,-0.03,828.00,1644.00,129.00,302.00,267.00,747.00,1264.00,1773.00,,,,,,,,,,,,0,0,0,,-3544,14988,4720,-117,164,-133
13.363,12.94,-3.06,-0.80,0.01,-1.44,1.13,-0.34,-1.05,-0.75,-0.33,858.00,1579.00,146.00,247.00,321.00,752.00,1297.00,1824.00,,,,,,,,,,,,0,0,0,,-3468,14940,4616,-45,222,-207
13.384,13.00,-3.11,-0.30,-1.26,4.71,-7.02,-4.05,1.51,-1.83,0.35,911.00,1602.00,203.00,241.00,299.00,813.00,1275.00,1869.00,,,,,,,,,,,,0,0,0,,-3476,15068,4608,-37,152,-73
13.446,13.05,-3.21,-1.99,-0.12,-4.61,-3.15,-5.19,4.40,-1.23,0.50,883.00,1661.00,195.00,314.00,261.00,787.00,1251.00,1818.00,,,,,,,,,,,,0,0,0,,-3536,14916,4824,-107,52,-231
13.507,13.11,-3.03,-1.30,0.64,-6.35,4.50,0.49,-1.27,0.19,-0.87,837.00,1584.00,133.00,274.00,320.00,732.00,1313.00,1783.00,,,,,,,,,,,,0,0,0,,-3460,15080,4480,1,125,-216
13.548,13.16,-3.02,1.12,-1.76,7.99,-8.13,-2.89,0.88,-1.61,0.44,912.00,1535.00,203.00,218.00,303.00,790.00,1264.00,1849.00,,,,,,,,,,,,0,0,0,,-3480,14792,4668,-26,124,-152
13.651,13.22,-3.17,-1.06,-0.07,-1.32,-2.77,-6.00,6.23,-1.36,1.08,866.00,1599.00,180.00,273.00,240.00,774.00,1215.00,1799.00,,,,,,,,,,,,0,0,0,,-3536,14940,4716,-37,103,-164
13.673,13.27,-3.09,-1.57,1.26,-7.99,6.65,-1.53,2.28,0.12,0.01,813.00,1574.00,122.00,276.00,274.00,721.00,1253.00,1746.00,,,,,,,,,,,,0,0,0,,-3396,14960,4680,47,193,-116
13.712,13.33,-2.95,0.59,-0.18,4.41,-1.09,-0.31,-0.59,-0.22,-0.16,845.00,1502.00,148.00,208.00,313.00,742.00,1273.00,1778.00,,,,,,,,,,,,0,0,0,,-3540,14856,4636,-49,139,-216
13.773,13.38,-3.07,0.54,-0.91,4.18,-5.63,-5.38,5.12,-1.66,1.31,880.00,1535.00,190.00,237.00,252.00,778.00,1207.00,1810.00,,,,,,,,,,,,0,0,0,,-3472,14964,4548,-90,108,-83
13.814,13.44,-3.06,-2.02,1.64,-8.26,5.85,-2.81,3.74,0.16,0.00,803.00,1586.00,128.00,285.00,259.00,729.00,1253.00,1744.00,,,,,,,,,,,,0,0,0,,-3432,14892,4512,-73,130,-176
13.876,13.49,-2.89,0.16,0.01,-0.17,0.96,0.20,-1.00,-0.11,-0.49,843.00,1520.00,144.00,236.00,317.00,735.00,1293.00,1786.00,,,,,,,,,,,,0,0,0,,-3448,14952,4452,-62,95,-171
13.939,13.55,-2.92,0.67,-1.10,4.69,-5.89,-3.44,1.68,-1.51,0.46,887.00,1535.00,191.00,234.00,293.00,790.00,1260.00,1840.00,,,,,,,,,,,,0,0,0,,-3444,14896,4460,-125,96,-145
14.001,13.60,-3.03,-1.67,0.09,-5.45,-0.33,-5.00,4.70,-0.94,0.30,868.00,1631.00,170.00,301.00,256.00,775.00,1258.00,1807.00,,,,,,,,,,,,0,0,0,,-3620,14940,4520,-118,78,-152
14.043,13.66,-2.83,-1.27,0.54,-1.72,2.00,0.79,-1.26,0.03,-0.81,841.00,1586.00,140.00,244.00,318.00,723.00,1312.00,1791.00,,,,,,,,,,,,0,0,0,,-3632,14856,4648,-109,6,-195
14.104,13.71,-2.83,1.06,-1.68,7.54,-6.95,-2.71,0.75,-1.84,0.35,909.00,1535.00,192.00,215.00,304.00,787.00,1275.00,1870.00,,,,,,,,,,,,0,0,0,,-3604,14980,4680,-53,83,-152
14.145,13.77,-3.02,-1.25,-0.33,-1.89,-2.48,-6.56,6.57,-1.82,0.98,881.00,1622.00,179.00,277.00,238.00,784.00,1232.00,1837.00,,,,,,,,,,,,0,0,0,,-3472,14936,4564,-108,141,-138
14.207,13.82,-2.95,-2.35,1.44,-9.02,7.77,-1.74,2.48,-0.50,0.06,817.00,1616.00,117.00,279.00,272.00,723.00,1264.00,1787.00,,,,,,,,,,,,0,0,0,,-3432,14760,4540,-117,142,-102
14.267,13.88,-2.86,0.18,-0.38,11.19,-4.22,-1.02,0.00,-0.61,-0.21,861.00,1535.00,155.00,173.00,307.00,751.00,1285.00,1808.00,,,,,,,,,,,,0,0,0,,-3448,14864,4788,-209,86,-209
14.328,13.93,-3.06,-0.27,-0.53,3.51,-5.11,-6.94,6.24,-1.80,1.26,875.00,1569.00,187.00,240.00,244.00,803.00,1213.00,1822.00,,,,,,,,,,,,0,0,0,,-3456,15112,4636,-118,185,-97
14.389,13.99,-3.03,-1.97,1.63,-16.79,17.40,-2.44,3.41,0.10,0.06,803.00,1584.00,80.00,293.00,262.00,725.00,1250.00,1745.00,,,,,,,,,,,,0,0,0,,-3488,14780,4764,-98,132,-102
14.47,14.04,-2.86,0.40,0.11,1.08,-0.09,0.27,-0.85,-0.07,-0.30,835.00,1502.00,149.00,231.00,314.00,730.00,1279.00,1774.00,,,,,,,,,,,,0,0,0,,-3492,15032,4716,-10,146,-160
14.491,14.10,-2.87,0.90,-1.05,5.88,-6.20,-3.08,1.43,-1.31,0.50,881.00,1519.00,190.00,225.00,295.00,784.00,1253.00,1824.00,,,,,,,,,,,,0,0,0,,-3472,14908,4680,-16,214,-82
14.533,14.15,-2.95,-1.53,0.26,-4.79,-0.55,-4.40,4.50,-0.99,0.69,858.00,1615.00,170.00,295.00,256.00,761.00,1233.00,1792.00,,,,,,,,,,,,0,0,0,,-3488,14944,4692,-82,85,-180
14.595,14.21,-2.75,-0.93,0.85,-3.93,2.74,1.03,-1.45,0.49,-0.93,822.00,1552.00,140.00,261.00,320.00,720.00,1310.00,1765.00,,,,,,,,,,,,0,0,0,,-3488,14968,4596,-117,129,-83
14.677,14.26,-2.74,1.60,-1.66,8.78,-7.37,-2.61,1.28,-1.44,0.38,899.00,1502.00,192.00,207.00,295.00,773.00,1264.00,1839.00,,,,,,,,,,,,0,0,0,,-3416,15020,4648,-53,108,-188
14.758,14.32,-2.88,-0.91,-0.06,-1.75,-2.00,-5.53,6.07,-1.44,1.08,863.00,1589.00,174.00,272.00,240.00,763.00,1217.00,1805.00,,,,,,,,,,,,0,0,0,,-3548,14992,4548,-38,104,-145
14.779,14.37,-2.79,-1.58,1.41,-8.53,8.41,-0.93,2.28,0.27,-0.17,807.00,1569.00,112.00,269.00,271.00,704.00,1262.00,1744.00,,,,,,,,,,,,0,0,0,,-3336,14892,4612,-67,107,-211
14.822,14.43,-2.67,0.76,-0.25,4.44,-0.59,-0.43,-0.01,-0.61,-0.00,846.00,1495.00,144.00,205.00,304.00,734.00,1271.00,1798.00,,,,,,,,,,,,0,0,0,,-3484,14912,4604,-93,104,-179
14.883,14.48,-2.82,0.18,-0.79,4.33,-4.88,-5.79,5.78,-1.71,1.30,880.00,1552.00,182.00,231.00,245.00,777.00,1208.00,1813.00,,,,,,,,,,,,0,0,0,,-3516,14916,4672,-67,75,-189
14.945,14.54,-2.79,-2.27,1.45,-8.76,7.53,-2.07,3.07,-0.13,0.13,815.00,1610.00,118.00,278.00,265.00,721.00,1251.00,1758.00,,,,,,,,,,,,0,0,0,,-3548,15000,4580,-34,110,-200
15.005,14.59,-2.65,0.22,-0.11,1.39,0.43,-0.04,-0.74,-0.44,-0.43,848.00,1522.00,144.00,225.00,314.00,737.00,1297.00,1807.00,,,,,,,,,,,,0,0,0,,-3576,14944,4540,-53,151,-173
15.047,14.65,-2.67,0.85,-1.36,4.91,-6.06,-3.04,1.23,-1.67,0.38,897.00,1535.00,192.00,233.00,298.00,787.00,1269.00,1856.00,,,,,,,,,,,,0,0,0,,-3560,14816,4548,-140,122,-96
15.149,14.70,-2.79,-1.50,-0.16,-4.66,-1.24,-5.12,4.74,-1.13,0.49,877.00,1631.00,176.00,299.00,256.00,778.00,1249.00,1811.00,,,,,,,,,,,,0,0,0,,-3520,14952,4724,-227,29,-200
15.17,14.76,-2.59,-1.00,0.76,-5.25,4.56,1.26,-2.10,0.32,-0.92,827.00,1560.00,130.00,262.00,330.00,726.00,1313.00,1776.00,,,,,,,,,,,,0,0,0,,-3516,15024,4524,-105,175,-91
15.211,14.81,-2.61,1.47,-1.57,8.49,-7.65,-2.91,1.19,-1.42,0.33,897.00,1506.00,196.00,211.00,298.00,784.00,1267.00,1840.00,,,,,,,,,,,,0,0,0,,-3492,14864,4672,-84,188,-121
15.253,14.87,-2.76,-0.69,-0.02,-1.85,-1.87,-5.71,6.13,-1.03,0.96,858.00,1574.00,173.00,272.00,240.00,767.00,1216.00,1782.00,,,,,,,,,,,,0,0,0,,-3552,14980,4632,-48,126,-142
15.314,14.92,-2.64,-1.09,1.49,-8.53,8.41,-0.40,1.76,0.44,-0.18,796.00,1535.00,112.00,269.00,276.00,699.00,1259.00,1733.00,,,,,,,,,,,,0,0,0,,-3464,14808,4520,4,183,-89
15.374,14.98,-2.52,0.98,-0.33,5.26,-1.62,-0.21,-0.09,-0.19,-0.06,846.00,1485.00,150.00,204.00,304.00,729.00,1265.00,1771.00,,,,,,,,,,,,0,0,0,,-3528,14916,4660,12,127,-266
15.435,15.03,-2.68,0.81,-0.76,3.54,-4.21,-5.67,5.89,-1.45,1.33,869.00,1513.00,178.00,234.00,243.00,771.00,1201.00,1794.00,,,,,,,,,,,,0,0,0,,-3536,14976,4560,-118,145,-135
15.476,15.09,-2.61,-1.62,1.63,-6.35,4.79,-1.28,2.53,0.37,0.05,798.00,1562.00,131.00,272.00,269.00,709.00,1245.00,1727.00,,,,,,,,,,,,0,0,0,,-3596,14976,4624,-45,118,-176
15.559,15.14,-2.43,0.67,0.06,1.58,1.15,1.02,-1.33,0.02,-0.39,833.00,1488.00,138.00,219.00,318.00,718.00,1283.00,1772.00,,,,,,,,,,,,0,0,0,,-3520,14912,4668,-42,121,-174
15.601,15.20,-2.48,0.86,-1.01,5.51,-5.97,-3.41,1.92,-1.26,0.41,880.00,1520.00,189.00,227.00,289.00,784.00,1258.00,1825.00,,,,,,,,,,,,0,0,0,,-3476,14872,4516,-74,96,-210
15.642,15.25,-2.58,-1.09,0.00,-3.91,-0.96,-4.62,4.57,-0.98,0.44,863.00,1598.00,171.00,288.00,256.00,766.00,1249.00,1803.00,,,,,,,,,,,,0,0,0,,-3540,14960,4644,-89,96,-198
15.683,15.31,-2.41,-1.22,0.59,-4.89,3.60,0.93,-1.30,0.48,-1.15,838.00,1581.00,136.00,265.00,318.00,720.00,1326.00,1776.00,,,,,,,,,,,,0,0,0,,-3560,14896,4748,-287,224,-137
15.745,15.36,-2.42,1.05,-1.62,8.27,-7.67,-2.70,0.87,-1.62,0.37,906.00,1533.00,197.00,213.00,302.00,784.00,1269.00,1853.00,,,,,,,,,,,,0,0,0,,-3548,14980,4464,-229,210,-156
15.849,15.42,-2.60,-1.33,-0.13,-1.69,-2.24,-5.92,5.82,-1.61,0.98,873.00,1619.00,176.00,273.00,245.00,780.00,1227.00,1822.00,,,,,,,,,,,,0,0,0,,-3420,14908,4784,-156,130,-42
15.87,15.47,-2.54,-1.94,1.21,-9.02,8.57,-1.47,2.39,-0.30,-0.01,821.00,1600.00,112.00,273.00,272.00,717.00,1264.00,1776.00,,,,,,,,,,,,0,0,0,,-3356,14892,4592,-168,127,-222
15.91,15.53,-2.48,0.15,-0.33,5.05,-2.04,-1.26,0.45,-0.55,-0.35,859.00,1535.00,154.00,208.00,301.00,749.00,1294.00,1811.00,,,,,,,,,,,,0,0,0,,-3532,15116,4600,-133,97,-225
15.971,15.58,-2.67,0.56,-0.93,2.76,-4.15,-6.29,6.17,-1.65,1.16,881.00,1535.00,180.00,241.00,242.00,784.00,1216.00,1816.00,,,,,,,,,,,,0,0,0,,-3460,14840,4724,-99,133,-35
16.054,15.64,-2.64,-1.72,1.59,-9.00,6.69,-2.20,3.26,0.19,0.08,801.00,1570.00,124.00,287.00,263.00,721.00,1247.00,1738.00,,,,,,,,,,,,0,0,0,,-3468,14904,4676,-44,110,-225
16.095,15.69,-2.49,0.71,0.01,3.03,-0.12,0.43,-1.14,-0.05,-0.32,835.00,1488.00,144.00,214.00,318.00,731.00,1280.00,1774.00,,,,,,,,,,,,0,0,0,,-3320,14888,4552,-39,137,-118
16.137,15.75,-2.51,1.20,-1.28,6.08,-6.65,-2.98,1.34,-0.93,0.26,887.00,1510.00,194.00,226.00,296.00,783.00,1260.00,1808.00,,,,,,,,,,,,0,0,0,,-3548,14868,4644,-65,184,-147
16.22,15.80,-2.61,-0.70,-0.11,-3.89,-0.86,-4.44,4.65,-0.54,0.35,862.00,1578.00,170.00,287.00,254.00,759.00,1245.00,1776.00,,,,,,,,,,,,0,0,0,,-3476,14952,4532,3,138,-163
16.24,15.86,-2.36,-0.41,0.49,-5.13,4.66,2.42,-3.04,0.63,-0.99,830.00,1535.00,129.00,260.00,340.00,711.00,1311.00,1758.00,,,,,,,,,,,,0,0,0,,-3436,14972,4664,-35,99,-161
16.303,15.91,-2.36,1.48,-1.54,8.80,-7.75,-2.45,0.79,-1.22,0.30,895.00,1504.00,196.00,209.00,302.00,778.00,1264.00,1827.00,,,,,,,,,,,,0,0,0,,-3508,14960,4616,-55,108,-197
16.385,15.97,-2.53,-0.84,-0.04,-1.79,-1.67,-5.66,6.11,-1.07,0.91,861.00,1584.00,171.00,270.00,240.00,766.00,1220.00,1787.00,,,,,,,,,,,,0,0,0,,-3528,14996,4392,-21,118,-193
16.405,16.02,-2.48,-1.42,1.21,-9.21,8.31,-1.56,2.83,-0.85,1.53,813.00,1567.00,114.00,277.00,266.00,711.00,1175.00,1742.00,,,,,,,,,,,,0,0,0,,-3472,14908,4536,-24,35,-199
16.466,16.08,-2.38,0.48,-0.20,0.72,5.63,-0.43,-0.01,-0.37,-0.22,848.00,1510.00,110.00,201.00,304.00,734.00,1280.00,1791.00,,,,,,,,,,,,0,0,0,,-3600,14860,4652,-55,95,-93
16.527,16.13,-2.54,0.54,-0.91,3.61,-4.94,-5.57,5.40,-1.67,1.24,880.00,1535.00,185.00,238.00,249.00,778.00,1211.00,1813.00,,,,,,,,,,,,0,0,0,,-3480,14868,4568,-59,182,-148
16.589,16.19,-2.52,-1.98,1.36,-8.78,7.69,-2.18,3.18,-0.09,0.12,815.00,1596.00,117.00,277.00,264.00,722.00,1251.00,1756.00,,,,,,,,,,,,0,0,0,,-3560,14996,4516,-43,123,-113
16.652,16.24,-2.37,-0.00,-0.11,2.13,0.19,0.43,-1.14,-0.22,-0.58,851.00,1535.00,144.00,220.00,318.00,731.00,1302.00,1798.00,,,,,,,,,,,,0,0,0,,-3584,14964,4524,-48,113,-139
16.693,16.30,-2.43,0.06,-1.04,5.25,-6.08,-3.45,1.56,-1.53,0.28,894.00,1570.00,191.00,230.00,295.00,793.00,1273.00,1851.00,,,,,,,,,,,,0,0,0,,-3420,14868,4568,-119,90,-158
16.753,16.35,-2.55,-1.73,-0.14,-4.10,-2.45,-5.00,4.70,-1.43,0.39,880.00,1645.00,186.00,302.00,256.00,775.00,1263.00,1838.00,,,,,,,,,,,,0,0,0,,-3432,14864,4600,-136,63,-226
16.815,16.41,-2.39,-1.75,0.50,-5.51,3.54,0.66,-1.67,-0.07,-1.01,850.00,1618.00,138.00,272.00,326.00,735.00,1329.00,1808.00,,,,,,,,,,,,0,0,0,,-3428,15120,4512,-156,73,-341
16.896,16.46,-2.41,1.21,-1.89,7.24,-7.69,-2.80,0.78,-1.57,0.29,917.00,1535.00,201.00,222.00,304.00,789.00,1273.00,1853.00,,,,,,,,,,,,0,0,0,,-3396,14780,4624,-131,103,-7
16.957,16.52,-2.59,-1.00,-0.16,-2.40,-2.00,-5.84,5.94,-1.32,0.95,869.00,1599.00,176.00,279.00,243.00,775.00,1223.00,1803.00,,,,,,,,,,,,0,0,0,,-3420,14884,4792,-290,87,-181
16.978,16.57,-2.53,-1.89,1.53,-7.75,6.57,-1.45,2.52,0.22,-0.11,806.00,1583.00,122.00,274.00,270.00,714.00,1259.00,1745.00,,,,,,,,,,,,0,0,0,,-3472,15104,4688,-135,45,-99
17.019,16.63,-2.43,1.00,-0.36,5.53,-1.84,-0.56,-0.03,-0.24,-0.08,847.00,1485.00,151.00,203.00,305.00,738.00,1268.00,1776.00,,,,,,,,,,,,0,0,0,,-3500,15112,4768,-82,5,-194
17.081,16.68,-2.60,0.55,-0.85,2.90,-4.19,-5.81,5.55,-1.53,1.29,877.00,1532.00,180.00,240.00,248.00,782.00,1205.00,1801.00,,,,,,,,,,,,0,0,0,,-3564,14884,4788,-51,93,-201
17.121,16.74,-2.60,-2.77,3.11,-7.43,5.29,-2.53,3.79,0.44,-0.09,752.00,1571.00,130.00,280.00,257.00,720.00,1253.00,1729.00,,,,,,,,,,,,0,0,0,,-3532,14864,4636,-150,53,-168
17.182,16.79,-2.45,0.36,0.12,2.08,0.59,0.38,-1.06,-0.03,-0.40,835.00,1504.00,141.00,218.00,317.00,731.00,1285.00,1776.00,,,,,,,,,,,,0,0,0,,-3532,15048,4780,-27,66,-175
17.244,16.85,-2.48,0.79,-1.18,6.05,-6.45,-3.20,1.47,-1.22,0.30,889.00,1531.00,192.00,225.00,295.00,787.00,1264.00,1827.00,,,,,,,,,,,,0,0,0,,-3512,14932,4704,85,149,-132
17.327,16.90,-2.59,-1.34,0.06,-4.68,-0.59,-4.62,4.57,-0.95,0.36,864.00,1611.00,170.00,294.00,256.00,766.00,1254.00,1805.00,,,,,,,,,,,,0,0,0,,-3496,14952,4708,92,74,-156
17.348,16.96,-2.41,-1.17,0.44,-4.79,3.16,0.93,-1.30,0.22,-0.95,844.00,1584.00,139.00,267.00,318.00,720.00,1318.00,1785.00,,,,,,,,,,,,0,0,0,,-3412,14920,4488,-19,106,-117
17.41,17.01,-2.43,1.08,-1.71,7.06,-7.26,-2.78,0.90,-1.70,0.36,910.00,1535.00,197.00,221.00,302.00,786.00,1271.00,1859.00,,,,,,,,,,,,0,0,0,,-3368,14944,4568,-22,120,-170
17.47,17.07,-2.62,-1.44,-0.20,-2.11,-1.88,-6.15,6.20,-1.62,0.92,878.00,1629.00,174.00,275.00,241.00,779.00,1231.00,1825.00,,,,,,,,,,,,0,0,0,,-3464,14868,4648,-21,163,-148
17.511,17.12,-2.57,-2.01,1.01,-9.73,8.81,-1.61,2.44,-0.19,-0.15,831.00,1613.00,112.00,279.00,272.00,720.00,1271.00,1775.00,,,,,,,,,,,,0,0,0,,-3468,14888,4664,1,131,-155
17.572,17.18,-2.48,-0.22,-0.25,2.27,-0.37,-0.87,-0.17,-0.78,-0.31,861.00,1554.00,148.00,222.00,309.00,750.00,1296.00,1825.00,,,,,,,,,,,,0,0,0,,-3540,14956,4532,-24,151,-155
17.695,17.23,-2.67,-0.63,-0.83,3.38,-5.06,-6.13,5.37,-2.27,1.27,895.00,1604.00,187.00,241.00,252.00,796.00,1223.00,1856.00,,,,,,,,,,,,0,0,0,,-3408,14776,4564,-165,179,-125
17.716,17.29,-2.67,-2.62,1.23,-9.17,6.16,-2.75,2.96,-0.45,0.02,830.00,1642.00,128.00,293.00,270.00,743.00,1266.00,1786.00,,,,,,,,,,,,0,0,0,,-3472,14932,4664,-282,105,-202
17.737,17.34,-2.55,0.20,-0.11,0.35,0.03,-0.19,-1.27,-0.03,-0.88,848.00,1523.00,150.00,237.00,324.00,752.00,1319.00,1799.00,,,,,,,,,,,,0,0,0,,-3464,14924,4604,-142,195,-102
17.777,17.40,-2.59,0.83,-1.34,5.83,-6.94,-3.52,1.15,-1.29,0.14,896.00,1535.00,198.00,230.00,302.00,804.00,1277.00,1840.00,,,,,,,,,,,,0,0,0,,-3496,14868,4668,-146,83,-171
17.839,17.45,-2.72,-1.30,0.03,-5.61,-0.71,-5.10,4.66,-0.99,0.42,865.00,1610.00,174.00,306.00,257.00,779.00,1251.00,1805.00,,,,,,,,,,,,0,0,0,,-3548,15052,4728,-152,89,-153
17.901,17.51,-2.54,-1.01,0.63,-5.75,4.72,0.89,-1.35,0.30,-1.04,833.00,1566.00,130.00,266.00,319.00,722.00,1322.00,1783.00,,,,,,,,,,,,0,0,0,,-3336,14868,4708,-59,139,-117
17.943,17.56,-2.58,1.12,-1.50,8.25,-7.47,-3.42,1.42,-1.64,0.37,899.00,1524.00,195.00,212.00,297.00,795.00,1269.00,1854.00,,,,,,,,,,,,0,0,0,,-3540,14888,4608,-83,112,-262
18.066,17.62,-2.78,-1.04,-0.14,-1.83,-2.29,-6.55,6.80,-1.41,0.93,869.00,1601.00,177.00,275.00,235.00,779.00,1226.00,1810.00,,,,,,,,,,,,0,0,0,,-3532,15020,4540,-115,114,-144
18.087,17.67,-2.72,-1.79,1.39,-4.22,5.84,-1.56,2.42,-0.09,-0.08,811.00,1583.00,119.00,243.00,272.00,719.00,1264.00,1765.00,,,,,,,,,,,,0,0,0,,-3472,14912,4712,-61,151,-229
18.128,17.73,-2.62,0.82,-0.36,4.03,-0.71,-0.76,-0.08,-0.62,-0.17,850.00,1496.00,146.00,209.00,307.00,745.00,1283.00,1807.00,,,,,,,,,,,,0,0,0,,-3560,15012,4544,-27,142,-191
18.189,17.78,-2.81,-0.45,-0.57,3.11,-4.97,-6.29,6.17,-1.94,1.21,880.00,1582.00,187.00,243.00,242.00,784.00,1219.00,1834.00,,,,,,,,,,,,0,0,0,,-3520,14900,4520,6,86,-206
18.251,17.84,-2.80,-2.35,1.46,-8.73,6.16,-2.71,3.50,-0.22,-0.03,816.00,1615.00,127.00,288.00,262.00,731.00,1264.00,1772.00,,,,,,,,,,,,0,0,0,,-3504,14928,4468,-45,149,-180
18.293,17.89,-2.68,-0.40,-0.10,3.92,-0.54,-0.36,-0.87,0.36,-1.85,857.00,1559.00,145.00,209.00,318.00,749.00,1380.00,1818.00,,,,,,,,,,,,0,0,0,,-3528,14996,4636,-98,86,-171
18.353,17.95,-2.76,-0.26,-0.95,4.85,-7.07,-4.30,2.16,-1.84,0.31,895.00,1586.00,203.00,240.00,290.00,807.00,1278.00,1872.00,,,,,,,,,,,,0,0,0,,-3492,14976,4504,-49,140,-227
18.416,18.00,-2.88,-1.85,-0.10,-4.66,-1.85,-5.08,4.30,-1.58,0.42,880.00,1651.00,182.00,304.00,262.00,786.00,1264.00,1847.00,,,,,,,,,,,,0,0,0,,-3496,14844,4524,-60,183,-235
18.436,18.06,-2.75,-2.05,0.60,-5.51,3.54,-0.26,-1.02,-0.56,-0.94,850.00,1633.00,138.00,272.00,320.00,749.00,1336.00,1840.00,,,,,,,,,,,,0,0,0,,-3424,14772,4576,2,109,-287
18.498,18.11,-2.79,0.19,-1.73,6.76,-7.99,-3.56,1.16,-1.96,0.19,926.00,1591.00,206.00,228.00,302.00,805.00,1289.00,1887.00,,,,,,,,,,,,0,0,0,,-3516,15076,4576,-105,2,-309
18.56,18.17,-2.98,-1.23,-0.35,-2.85,-2.26,-6.69,6.38,-1.64,0.92,882.00,1622.00,180.00,286.00,241.00,792.00,1232.00,1827.00,,,,,,,,,,,,0,0,0,,-3580,14912,4728,-46,129,-94
18.621,18.22,-2.93,-2.04,1.58,-9.35,7.72,-1.98,2.43,-0.22,-0.03,806.00,1590.00,118.00,283.00,274.00,731.00,1264.00,1772.00,,,,,,,,,,,,0,0,0,,-3560,14752,4608,-8,258,-171
18.702,18.28,-2.84,0.58,-0.24,4.58,-1.88,-1.12,0.10,-0.54,-0.17,848.00,1505.00,154.00,211.00,306.00,752.00,1281.00,1801.00,,,,,,,,,,,,0,0,0,,-3576,15016,4696,-36,139,-81
18.742,18.33,-3.02,0.00,-0.60,3.43,-4.98,-6.37,6.20,-1.82,1.27,874.00,1555.00,186.00,240.00,242.00,786.00,1213.00,1823.00,,,,,,,,,,,,0,0,0,,-3488,14960,4580,50,214,-116
18.783,18.39,-3.00,-2.10,1.53,-9.33,6.65,-2.62,3.47,0.13,-0.34,809.00,1596.00,125.00,291.00,262.00,729.00,1277.00,1762.00,,,,,,,,,,,,0,0,0,,-3520,14968,4408,49,187,-200
18.844,18.44,-2.85,0.14,0.04,0.84,0.75,-0.11,-0.54,0.71,-0.81,842.00,1520.00,143.00,228.00,311.00,735.00,1296.00,1744.00,,,,,,,,,,,,0,0,0,,-3496,14856,4436,-50,171,-130
18.905,18.50,-2.90,0.18,-0.79,5.75,-6.82,-3.84,1.94,-1.64,0.36,880.00,1552.00,197.00,230.00,291.00,797.00,1270.00,1855.00,,,,,,,,,,,,0,0,0,,-3480,15076,4584,-68,160,-196
18.946,18.55,-3.01,-1.54,0.11,-5.13,-0.55,-5.08,4.87,-1.00,0.24,865.00,1622.00,171.00,299.00,254.00,774.00,1263.00,1814.00,,,,,,,,,,,,0,0,0,,-3464,14972,4540,-9,166,-178
18.987,18.61,-2.83,-1.61,0.83,-5.15,3.42,0.59,-1.01,0.10,-1.02,833.00,1595.00,138.00,269.00,315.00,724.00,1326.00,1797.00,,,,,,,,,,,,0,0,0,,-3528,14880,4540,-74,109,-159
19.049,18.66,-2.83,0.68,-1.55,8.89,-7.88,-2.71,0.75,-1.78,0.22,909.00,1553.00,197.00,209.00,304.00,787.00,1283.00,1872.00,,,,,,,,,,,,0,0,0,,-3592,15016,4556,-134,114,-145
19.11,18.72,-2.99,-1.45,-0.24,-2.04,-2.12,-6.17,6.28,-1.87,1.00,880.00,1631.00,176.00,276.00,240.00,778.00,1232.00,1840.00,,,,,,,,,,,,0,0,0,,-3656,15036,4520,-189,154,-173
19.15,18.77,-2.97,-2.47,1.45,-9.06,8.10,-2.44,3.41,-0.35,-0.23,818.00,1623.00,115.00,277.00,262.00,725.00,1281.00,1791.00,,,,,,,,,,,,0,0,0,,-3484,14988,4592,-55,135,-109
19.211,18.83,-2.88,-0.15,-0.40,3.72,-0.60,-1.23,0.25,-1.12,-0.19,867.00,1556.00,146.00,211.00,304.00,752.00,1296.00,1844.00,,,,,,,,,,,,0,0,0,,-3432,14940,4480,-28,106,-207
19.273,18.88,-3.08,-0.81,-0.77,2.40,-3.92,-7.00,6.56,-2.43,1.19,895.00,1613.00,179.00,243.00,240.00,798.00,1232.00,1872.00,,,,,,,,,,,,0,0,0,,-3572,14884,4420,-65,96,-251
19.314,18.94,-3.09,-2.97,1.38,-10.93,8.25,-3.13,3.36,-0.69,0.04,829.00,1659.00,118.00,297.00,266.00,746.00,1270.00,1802.00,,,,,,,,,,,,0,0,0,,-3552,15136,4444,-129,-50,-333
19.376,18.99,-2.94,-0.41,0.05,0.53,0.72,-0.21,-0.74,-0.59,-0.44,850.00,1553.00,144.00,231.00,315.00,742.00,1301.00,1818.00,,,,,,,,,,,,0,0,0,,-3628,14996,4660,-109,111,-105
19.437,19.05,-3.00,0.38,-1.08,5.19,-6.63,-4.09,2.21,-1.65,0.35,891.00,1552.00,197.00,234.00,288.00,799.00,1271.00,1856.00,,,,,,,,,,,,0,0,0,,-3604,14704,4472,-144,74,-249
19.581,19.10,-3.13,-1.39,0.02,-5.08,-0.99,-5.66,5.43,-1.16,0.37,867.00,1616.00,175.00,302.00,249.00,780.00,1258.00,1819.00,,,,,,,,,,,,0,0,0,,-3524,15012,4556,-142,55,-133
19.602,19.16,-2.95,-1.31,0.86,-4.90,3.47,0.55,-0.65,0.35,-1.11,827.00,1575.00,137.00,266.00,309.00,718.00,1326.00,1783.00,,,,,,,,,,,,0,0,0,,-3580,14912,4756,-102,116,-150
19.622,19.21,-2.98,1.22,-1.57,9.04,-7.93,-3.51,1.83,-1.72,0.43,901.00,1521.00,197.00,208.00,291.00,789.00,1267.00,1857.00,,,,,,,,,,,,0,0,0,,-3500,15092,4440,-84,139,-201
19.663,19.27,-3.13,-1.12,-0.01,-2.22,-1.31,-5.97,6.37,-1.57,1.06,864.00,1600.00,169.00,272.00,238.00,770.00,1221.00,1815.00,,,,,,,,,,,,0,0,0,,-3520,15020,4588,-165,145,-105
19.704,19.32,-3.05,-1.87,1.53,-8.78,8.49,-1.66,3.36,-0.22,0.16,806.00,1582.00,112.00,271.00,259.00,704.00,1251.00,1763.00,,,,,,,,,,,,0,0,0,,-3452,15072,4616,-124,56,-157
19.767,19.38,-2.92,0.46,-0.15,4.28,-0.54,-0.30,-0.06,-0.72,-0.02,846.00,1509.00,144.00,206.00,304.00,731.00,1275.00,1807.00,,,,,,,,,,,,0,0,0,,-3556,14860,4640,-49,174,-132
19.829,19.43,-3.09,0.07,-0.79,2.81,-4.06,-6.41,6.83,-2.19,1.60,882.00,1559.00,179.00,240.00,234.00,774.00,1199.00,1833.00,,,,,,,,,,,,0,0,0,,-3556,14856,4596,-110,114,-187
19.892,19.49,-3.09,-2.17,1.42,-9.74,7.39,-3.00,4.39,-0.13,-0.06,815.00,1605.00,121.00,290.00,251.00,722.00,1264.00,1767.00,,,,,,,,,,,,0,0,0,,-3476,14900,4672,-119,108,-106
19.933,19.54,-2.93,-0.06,-0.02,0.12,1.65,-0.01,-0.28,-0.38,-0.48,848.00,1535.00,138.00,229.00,306.00,727.00,1299.00,1805.00,,,,,,,,,,,,0,0,0,,-3588,15068,4560,-169,125,-174
19.974,19.60,-2.97,-0.03,-0.90,6.05,-6.45,-3.78,2.37,-1.81,0.27,889.00,1570.00,192.00,225.00,284.00,786.00,1280.00,1872.00,,,,,,,,,,,,0,0,0,,-3524,14908,4592,-68,119,-187
20.057,19.65,-3.08,-1.82,0.05,-5.99,0.97,-5.10,4.95,-1.45,0.38,872.00,1642.00,160.00,297.00,253.00,773.00,1264.00,1840.00,,,,,,,,,,,,0,0,0,,-3540,14948,4528,-54,177,-120
20.099,19.71,-2.92,-1.88,0.66,-5.87,4.62,0.15,-0.21,-0.28,-0.93,845.00,1620.00,131.00,268.00,304.00,721.00,1328.00,1819.00,,,,,,,,,,,,0,0,0,,-3468,14768,4580,-86,182,-74
20.161,19.76,-2.94,0.46,-1.56,7.86,-7.25,-3.35,1.84,-1.53,0.03,913.00,1567.00,194.00,214.00,290.00,784.00,1290.00,1863.00,,,,,,,,,,,,0,0,0,,-3612,15020,4760,-134,89,-175
20.264,19.82,-3.12,-0.83,-0.17,-0.75,-1.80,-6.61,7.46,-1.59,1.01,867.00,1589.00,169.00,260.00,227.00,767.00,1225.00,1819.00,,,,,,,,,,,,0,0,0,,-3524,15140,4676,-2,174,-150
20.285,19.87,-3.07,-1.74,1.64,-8.43,8.54,-1.99,3.68,-0.03,-0.02,799.00,1569.00,111.00,267.00,256.00,707.00,1259.00,1758.00,,,,,,,,,,,,0,0,0,,-3544,14744,4508,-33,106,-210
20.325,19.93,-2.95,0.64,-0.15,4.92,-0.75,-0.68,0.81,-0.51,-0.05,843.00,1498.00,144.00,202.00,292.00,725.00,1272.00,1793.00,,,,,,,,,,,,0,0,0,,-3588,14856,4764,-33,77,-193
20.386,19.98,-3.09,0.39,-0.52,3.97,-4.35,-5.71,6.13,-1.67,1.35,864.00,1528.00,178.00,231.00,240.00,767.00,1204.00,1808.00,,,,,,,,,,,,0,0,0,,-3556,14816,4552,-9,201,-118
20.448,20.04,-3.06,-1.91,1.61,-9.30,8.18,-2.52,4.30,0.18,-0.01,803.00,1581.00,115.00,279.00,250.00,710.00,1253.00,1743.00,,,,,,,,,,,,0,0,0,,-3568,14880,4604,-60,119,-247
20.49,20.09,-2.86,0.29,0.37,1.55,1.03,0.79,-0.43,-0.03,-0.46,825.00,1498.00,139.00,220.00,304.00,707.00,1289.00,1779.00,,,,,,,,,,,,0,0,0,,-3552,14868,4624,-118,99,-119
20.552,20.15,-2.90,0.84,-1.01,7.46,-6.82,-3.60,2.97,-1.45,0.38,880.00,1521.00,191.00,215.00,274.00,768.00,1264.00,1840.00,,,,,,,,,,,,0,0,0,,-3620,15032,4684,-51,148,-184
20.635,20.20,-3.01,-1.37,0.31,-4.57,0.15,-5.06,5.91,-1.00,0.39,853.00,1602.00,163.00,287.00,240.00,752.00,1253.00,1807.00,,,,,,,,,,,,0,0,0,,-3580,15032,4552,22,108,-196
20.656,20.26,-2.82,-1.16,0.84,-4.36,4.54,0.69,-0.27,0.03,-0.90,826.00,1567.00,128.00,253.00,302.00,707.00,1319.00,1796.00,,,,,,,,,,,,0,0,0,,-3580,14856,4564,16,130,-204
20.698,20.31,-2.80,0.99,-1.35,10.14,-7.14,-2.41,1.65,-1.57,0.23,894.00,1526.00,185.00,195.00,288.00,759.00,1277.00,1856.00,,,,,,,,,,,,0,0,0,,-3628,14920,4652,-63,125,-140
20.759,20.37,-2.95,-0.95,-0.02,0.08,-1.42,-5.76,6.46,-1.36,0.90,862.00,1590.00,163.00,249.00,236.00,762.00,1227.00,1808.00,,,,,,,,,,,,0,0,0,,-3548,14912,4648,-16,186,-134
20.801,20.42,-2.89,-2.24,1.77,-10.01,10.46,-1.71,3.59,-0.26,-0.06,801.00,1595.00,103.00,270.00,256.00,701.00,1267.00,1776.00,,,,,,,,,,,,0,0,0,,-3464,15004,4564,7,138,-121
20.905,20.48,-2.80,-0.06,-0.02,5.96,-0.98,-1.02,0.80,-0.90,-0.25,848.00,1535.00,143.00,195.00,294.00,735.00,1295.00,1831.00,,,,,,,,,,,,0,0,0,,-3592,14868,4652,-81,191,-99
20.926,20.53,-2.99,-0.43,-0.58,3.36,-3.93,-6.76,7.11,-2.07,1.23,880.00,1581.00,176.00,234.00,232.00,779.00,1221.00,1843.00,,,,,,,,,,,,0,0,0,,-3580,14952,4556,-88,46,-247
21.008,20.59,-2.95,-1.99,1.77,-9.25,8.65,-2.19,3.82,-0.09,0.08,797.00,1579.00,112.00,275.00,255.00,710.00,1253.00,1757.00,,,,,,,,,,,,0,0,0,,-3624,14956,4608,-16,216,-65
21.029,20.64,-2.80,0.53,0.24,1.29,1.25,0.18,-0.10,0.01,-0.56,827.00,1489.00,138.00,221.00,302.00,718.00,1295.00,1781.00,,,,,,,,,,,,0,0,0,,-3636,14824,4652,34,191,-158
21.09,20.70,-2.83,1.02,-0.88,7.45,-5.93,-3.50,2.87,-1.25,0.33,871.00,1505.00,182.00,210.00,275.00,767.00,1263.00,1828.00,,,,,,,,,,,,0,0,0,,-3576,15072,4404,-25,83,-155
21.152,20.75,-2.93,-0.84,0.26,-4.61,0.74,-4.76,5.96,-0.80,0.60,847.00,1571.00,158.00,283.00,238.00,742.00,1234.00,1782.00,,,,,,,,,,,,0,0,0,,-3396,14832,4580,-7,137,-98
21.212,20.81,-2.72,-0.59,0.96,-4.49,5.93,1.20,-0.01,0.61,-0.90,812.00,1527.00,119.00,245.00,295.00,688.00,1305.00,1755.00,,,,,,,,,,,,0,0,0,,-3580,14980,4376,-7,148,-271
21.273,20.86,-2.65,1.72,-1.24,11.59,-6.91,-1.33,0.41,-1.10,0.29,877.00,1478.00,178.00,183.00,302.00,752.00,1262.00,1819.00,,,,,,,,,,,,0,0,0,,-3492,14832,4344,-147,162,-92
21.294,20.92,-2.84,-0.00,-0.11,1.36,-1.62,-6.40,8.13,-1.24,1.07,851.00,1535.00,161.00,238.00,218.00,747.00,1213.00,1791.00,,,,,,,,,,,,0,0,0,,-3468,15084,4360,-61,85,-140
21.376,20.97,-2.74,-1.25,1.73,-7.91,9.93,-0.89,3.46,0.22,-0.09,788.00,1535.00,102.00,252.00,254.00,681.00,1258.00,1744.00,,,,,,,,,,,,0,0,0,,-3500,15068,4508,-19,167,-167
21.437,21.03,-2.62,0.88,0.10,8.38,-0.73,-0.30,0.88,-0.45,-0.07,828.00,1474.00,135.00,176.00,289.00,713.00,1272.00,1790.00,,,,,,,,,,,,0,0,0,,-3572,14976,4292,-25,111,-209
21.5,21.08,-2.78,0.25,-0.43,6.37,-4.52,-5.73,6.60,-1.90,1.38,862.00,1533.00,172.00,211.00,234.00,758.00,1207.00,1823.00,,,,,,,,,,,,0,0,0,,-3524,14892,4404,-36,22,-187
21.521,21.14,-2.82,-2.10,1.81,-8.53,8.41,-3.66,6.14,0.18,-0.24,797.00,1584.00,112.00,269.00,231.00,707.00,1269.00,1754.00,,,,,,,,,,,,0,0,0,,-3548,14872,4520,-1,30,-171
21.582,21.19,-2.63,-0.32,0.51,-0.06,4.44,0.90,-0.58,-0.37,-0.45,828.00,1529.00,119.00,214.00,306.00,707.00,1296.00,1802.00,,,,,,,,,,,,0,0,0,,-3516,14996,4480,30,83,-192
21.623,21.25,-2.71,0.59,-0.99,8.04,-6.63,-4.06,3.13,-1.71,0.29,883.00,1535.00,187.00,209.00,274.00,779.00,1276.00,1863.00,,,,,,,,,,,,0,0,0,,-3480,14868,4556,-11,62,-208
21.727,21.30,-2.86,-1.81,0.42,-4.72,0.89,-5.89,7.14,-1.42,0.52,855.00,1626.00,157.00,283.00,228.00,752.00,1254.00,1831.00,,,,,,,,,,,,0,0,0,,-3612,15188,4392,-102,140,-225
21.748,21.36,-2.68,-1.13,0.98,-5.56,6.60,0.90,-0.15,0.33,-0.81,819.00,1559.00,117.00,251.00,299.00,699.00,1305.00,1770.00,,,,,,,,,,,,0,0,0,,-3612,14680,4576,-214,51,-64
21.789,21.41,-2.64,1.97,-1.41,10.36,-6.50,-1.97,1.69,-1.23,0.35,881.00,1470.00,178.00,190.00,285.00,745.00,1261.00,1825.00,,,,,,,,,,,,0,0,0,,-3612,15112,4484,-105,134,-119
21.849,21.47,-2.83,0.43,-0.17,3.69,-2.28,-6.50,8.08,-1.30,1.20,847.00,1511.00,160.00,221.00,219.00,751.00,1206.00,1789.00,,,,,,,,,,,,0,0,0,,-3520,15020,4340,-94,158,-102
21.91,21.52,-2.75,-1.22,2.06,-8.63,11.29,-1.15,3.84,0.36,0.02,774.00,1520.00,96.00,250.00,250.00,681.00,1247.00,1729.00,,,,,,,,,,,,0,0,0,,-3496,15100,4592,-80,182,-125
21.972,21.58,-2.59,1.18,0.25,6.79,0.79,0.37,0.53,-0.15,-0.07,817.00,1451.00,128.00,180.00,291.00,701.00,1265.00,1769.00,,,,,,,,,,,,0,0,0,,-3524,15088,4516,-136,183,-166
22.014,21.63,-2.75,0.96,-0.49,6.64,-3.85,-5.75,6.93,-1.59,1.29,854.00,1493.00,165.00,205.00,230.00,752.00,1206.00,1805.00,,,,,,,,,,,,0,0,0,,-3584,15012,4340,-170,114,-225
22.098,21.69,-2.73,-1.33,1.86,-8.87,9.89,-2.38,5.01,0.15,0.12,784.00,1535.00,104.00,262.00,240.00,693.00,1245.00,1739.00,,,,,,,,,,,,0,0,0,,-3628,15072,4524,-139,43,-143
22.139,21.74,-2.56,0.27,0.65,0.94,3.50,0.67,0.62,-0.03,-0.40,813.00,1488.00,123.00,211.00,288.00,691.00,1285.00,1776.00,,,,,,,,,,,,0,0,0,,-3540,14924,4544,-114,82,-223
22.201,21.80,-2.60,1.24,-0.95,9.44,-6.29,-3.39,2.90,-1.52,0.42,871.00,1495.00,179.00,196.00,274.00,763.00,1263.00,1843.00,,,,,,,,,,,,0,0,0,,-3560,14988,4432,-153,31,-145
22.242,21.85,-2.70,-1.12,0.27,-2.53,0.39,-4.51,5.96,-0.95,0.36,851.00,1588.00,155.00,263.00,237.00,735.00,1254.00,1805.00,,,,,,,,,,,,0,0,0,,-3516,14824,4476,-160,14,-138
22.284,21.91,-2.52,-1.17,1.06,-3.41,5.11,0.97,-0.36,0.34,-0.97,816.00,1558.00,122.00,240.00,302.00,701.00,1316.00,1777.00,,,,,,,,,,,,0,0,0,,-3600,15036,4488,-143,140,-191
22.347,21.96,-2.52,1.22,-1.55,8.01,-5.50,-2.66,2.12,-1.31,0.14,900.00,1520.00,176.00,203.00,282.00,757.00,1277.00,1841.00,,,,,,,,,,,,0,0,0,,-3504,14892,4484,-99,143,-181
22.408,22.02,-2.64,-0.57,-0.13,0.37,-0.46,-4.90,5.78,-1.44,0.64,861.00,1571.00,154.00,240.00,241.00,750.00,1246.00,1826.00,,,,,,,,,,,,0,0,0,,-3620,15068,4460,-99,106,-183
22.49,22.07,-2.56,-1.46,0.91,-4.89,6.22,-1.01,2.23,-0.36,-0.20,827.00,1582.00,118.00,247.00,272.00,707.00,1279.00,1790.00,,,,,,,,,,,,0,0,0,,-3572,14956,4356,-172,175,16
22.51,22.13,-2.50,0.42,-0.25,6.07,-1.52,-1.35,1.30,-0.79,-0.03,851.00,1515.00,147.00,197.00,288.00,735.00,1277.00,1812.00,,,,,,,,,,,,0,0,0,,-3656,15000,4780,-213,62,-215
22.571,22.18,-2.66,0.28,-0.18,5.04,-3.08,-5.62,6.10,-1.56,1.19,850.00,1521.00,163.00,214.00,240.00,765.00,1212.00,1808.00,,,,,,,,,,,,0,0,0,,-3744,14912,4616,6,140,-197
22.632,22.24,-2.61,-1.01,1.37,-7.84,8.51,-1.63,3.21,0.20,-0.10,800.00,1535.00,110.00,261.00,261.00,706.00,1259.00,1746.00,,,,,,,,,,,,0,0,0,,-3544,15036,4608,-11,226,-59
22.693,22.29,-2.56,0.56,0.14,1.75,0.57,-1.68,1.02,-0.18,-0.28,831.00,1491.00,142.00,221.00,294.00,750.00,1280.00,1781.00,,,,,,,,,,,,0,0,0,,-3472,14948,4456,3,150,-111
22.775,22.35,-2.61,1.17,-0.95,6.53,-5.11,-3.64,2.99,-1.17,0.29,872.00,1499.00,177.00,213.00,274.00,769.00,1264.00,1824.00,,,,,,,,,,,,0,0,0,,-3572,15088,4504,46,222,-45
22.837,22.40,-2.68,-0.62,0.28,-4.38,1.87,-3.89,4.84,-0.57,0.17,843.00,1557.00,148.00,272.00,249.00,739.00,1258.00,1787.00,,,,,,,,,,,,0,0,0,,-3612,14940,4328,-79,218,-219
22.857,22.46,-2.47,-0.25,0.62,-2.63,3.96,1.42,-0.33,0.61,-0.99,822.00,1520.00,128.00,240.00,299.00,688.00,1311.00,1759.00,,,,,,,,,,,,0,0,0,,-3544,15036,4428,-91,110,-125
22.899,22.51,-2.44,1.34,-0.90,9.51,-6.21,-1.87,1.86,-0.96,0.25,867.00,1487.00,178.00,195.00,282.00,739.00,1262.00,1811.00,,,,,,,,,,,,0,0,0,,-3744,14912,4568,-1,112,-211
22.961,22.57,-2.55,0.04,0.10,0.84,-0.38,-4.69,6.02,-1.07,0.80,841.00,1524.00,152.00,235.00,237.00,739.00,1227.00,1792.00,,,,,,,,,,,,0,0,0,,-3528,15016,4456,73,196,-188
23.001,22.62,-2.49,-0.69,0.90,-5.83,8.52,-1.23,2.52,0.15,-0.30,816.00,1535.00,106.00,241.00,269.00,708.00,1274.00,1759.00,,,,,,,,,,,,0,0,0,,-3556,14988,4436,-66,120,-225
23.063,22.68,-2.42,0.79,-0.26,5.41,-0.92,-1.19,1.30,-0.69,-0.09,846.00,1494.00,144.00,199.00,287.00,730.00,1279.00,1808.00,,,,,,,,,,,,0,0,0,,-3632,15024,4512,-98,91,-110
23.125,22.73,-2.57,0.17,-0.36,2.68,-2.29,-5.32,6.15,-1.74,1.03,860.00,1535.00,163.00,230.00,238.00,755.00,1227.00,1829.00,,,,,,,,,,,,0,0,0,,-3632,14972,4608,8,205,-166
23.207,22.79,-2.58,-1.89,1.51,-6.47,7.07,-2.76,3.73,-0.25,-0.10,807.00,1584.00,116.00,257.00,259.00,728.00,1269.00,1777.00,,,,,,,,,,,,0,0,0,,-3576,15080,4300,-19,154,-127
23.228,22.84,-2.47,-0.74,0.21,-0.72,1.14,-0.43,-0.01,-0.76,-0.31,848.00,1567.00,144.00,240.00,304.00,734.00,1296.00,1824.00,,,,,,,,,,,,0,0,0,,-3448,15024,4256,3,172,-89
23.289,22.90,-2.56,0.32,-1.02,5.62,-6.30,-4.23,3.32,-1.57,0.29,889.00,1553.00,192.00,228.00,272.00,780.00,1273.00,1853.00,,,,,,,,,,,,0,0,0,,-3520,14924,4760,-177,114,-145
23.331,22.95,-2.62,-0.91,0.42,-3.60,0.99,-3.76,4.50,-0.46,0.00,841.00,1569.00,153.00,270.00,253.00,742.00,1267.00,1787.00,,,,,,,,,,,,0,0,0,,-3608,15132,4496,-81,230,-168
23.413,23.01,-2.43,-0.20,0.60,-1.94,3.73,1.15,-0.79,0.43,-0.92,822.00,1518.00,128.00,235.00,308.00,704.00,1311.00,1769.00,,,,,,,,,,,,0,0,0,,-3572,15004,4204,-54,150,-127
23.454,23.06,-2.40,1.57,-1.06,8.66,-5.72,-1.82,2.04,-0.50,0.06,871.00,1480.00,176.00,199.00,279.00,734.00,1264.00,1787.00,,,,,,,,,,,,0,0,0,,-3536,15132,4472,-72,99,-155
23.495,23.12,-2.53,0.56,-0.23,2.01,-1.13,-4.99,6.35,-0.95,0.73,848.00,1506.00,155.00,229.00,234.00,741.00,1229.00,1787.00,,,,,,,,,,,,0,0,0,,-3620,14972,4436,-39,163,-114
23.557,23.17,-2.44,-0.64,1.21,-5.35,7.51,-0.68,2.61,0.32,-0.21,802.00,1520.00,111.00,243.00,265.00,691.00,1264.00,1743.00,,,,,,,,,,,,0,0,0,,-3704,14904,4460,-54,187,-188
23.619,23.23,-2.36,1.09,-0.08,7.56,-1.77,-0.85,1.06,-0.19,-0.20,833.00,1469.00,145.00,187.00,289.00,725.00,1275.00,1778.00,,,,,,,,,,,,0,0,0,,-3584,15004,4440,-137,115,-90
23.681,23.28,-2.51,0.66,-0.39,4.42,-3.87,-5.33,6.31,-1.43,0.94,854.00,1507.00,172.00,224.00,236.00,752.00,1226.00,1811.00,,,,,,,,,,,,0,0,0,,-3588,14888,4456,-37,101,-156
23.723,23.34,-2.50,-1.35,1.46,-4.76,6.02,-2.40,3.61,-0.26,-0.02,801.00,1552.00,119.00,247.00,259.00,720.00,1264.00,1774.00,,,,,,,,,,,,0,0,0,,-3556,14964,4480,-107,113,-153
23.786,23.39,-2.39,-0.15,0.23,-1.01,2.99,-0.34,0.57,-0.24,-0.49,838.00,1530.00,131.00,231.00,294.00,720.00,1296.00,1795.00,,,,,,,,,,,,0,0,0,,-3512,14908,4432,-129,96,-123
23.847,23.45,-2.48,0.66,-0.99,7.07,-5.90,-4.14,3.29,-1.65,0.45,882.00,1531.00,183.00,213.00,272.00,778.00,1264.00,1851.00,,,,,,,,,,,,0,0,0,,-3544,15076,4400,-162,147,-158
23.927,23.50,-2.56,-1.23,0.37,-3.37,0.79,-3.98,4.57,-0.90,0.09,848.00,1591.00,154.00,269.00,253.00,747.00,1271.00,1814.00,,,,,,,,,,,,0,0,0,,-3656,14948,4424,-147,131,-140
23.948,23.56,-2.41,-1.07,0.90,-3.69,4.76,0.32,-0.14,-0.06,-0.79,822.00,1559.00,125.00,245.00,302.00,715.00,1313.00,1797.00,,,,,,,,,,,,0,0,0,,-3556,14980,4412,-52,163,-88
24.009,23.61,-2.40,0.54,-0.91,7.45,-4.67,-2.08,1.67,-1.04,-0.05,880.00,1535.00,170.00,203.00,286.00,749.00,1284.00,1831.00,,,,,,,,,,,,0,0,0,,-3448,14852,4368,-53,127,-136
24.049,23.67,-2.54,-0.53,-0.08,1.47,-1.31,-5.29,5.91,-1.38,0.64,858.00,1566.00,158.00,235.00,241.00,759.00,1245.00,1822.00,,,,,,,,,,,,0,0,0,,-3700,14952,4460,-179,43,-211
24.112,23.72,-2.47,-0.90,1.27,-5.20,7.13,-1.11,2.54,0.16,-0.32,803.00,1533.00,113.00,244.00,268.00,704.00,1275.00,1759.00,,,,,,,,,,,,0,0,0,,-3540,15080,4412,-91,169,-124
24.173,23.78,-2.40,1.10,-0.17,6.07,-1.14,-1.04,0.94,-0.42,-0.18,837.00,1472.00,144.00,195.00,292.00,733.00,1279.00,1793.00,,,,,,,,,,,,0,0,0,,-3544,14860,4428,-44,135,-143
24.234,23.83,-2.53,0.67,-0.42,4.99,-4.38,-5.01,5.59,-1.41,0.99,855.00,1507.00,175.00,222.00,244.00,757.00,1222.00,1807.00,,,,,,,,,,,,0,0,0,,-3640,15068,4384,-118,112,-113
24.295,23.89,-2.55,-0.90,1.36,-5.25,4.84,-3.01,3.74,-0.30,-0.11,799.00,1529.00,128.00,260.00,260.00,735.00,1271.00,1781.00,,,,,,,,,,,,0,0,0,,-3648,14924,4392,-49,174,-84
24.336,23.94,-2.40,-0.04,0.39,-0.42,1.17,0.42,-0.60,-0.09,-0.54,829.00,1517.00,143.00,237.00,309.00,721.00,1296.00,1787.00,,,,,,,,,,,,0,0,0,,-3556,14988,4400,-27,97,-182
24.377,24.00,-2.46,1.16,-1.12,7.12,-6.32,-3.55,2.75,-1.42,0.33,880.00,1506.00,187.00,215.00,277.00,771.00,1267.00,1840.00,,,,,,,,,,,,0,0,0,,-3484,15052,4560,-105,125,-102
24.438,24.05,-2.53,-0.74,0.41,-3.06,1.18,-3.83,4.45,-0.74,0.33,839.00,1559.00,150.00,263.00,254.00,745.00,1251.00,1791.00,,,,,,,,,,,,0,0,0,,-3516,14968,4372,-57,141,-177
24.499,24.11,-2.37,-0.47,0.81,-4.80,7.16,0.74,-0.35,0.35,-0.95,817.00,1526.00,112.00,240.00,303.00,707.00,1315.00,1776.00,,,,,,,,,,,,0,0,0,,-3548,14964,4272,11,61,-149
24.561,24.16,-2.32,0.63,-0.21,6.47,-1.53,-1.35,1.30,-0.79,0.06,846.00,1501.00,146.00,194.00,288.00,735.00,1271.00,1808.00,,,,,,,,,,,,0,0,0,,-3588,14972,4344,-84,127,-175
24.602,24.22,-2.44,0.18,-0.38,4.50,-4.32,-4.81,5.44,-1.40,0.64,861.00,1535.00,176.00,226.00,245.00,754.00,1245.00,1823.00,,,,,,,,,,,,0,0,0,,-3496,15088,4404,-124,94,-172
24.664,24.27,-2.37,-1.37,1.34,-5.90,7.86,-1.01,2.23,-0.14,-0.22,807.00,1559.00,110.00,246.00,272.00,707.00,1275.00,1775.00,,,,,,,,,,,,0,0,0,,-3540,15028,4460,-96,108,-100
24.705,24.33,-2.30,0.28,-0.16,5.09,-1.19,-1.04,0.68,-0.75,-0.32,849.00,1520.00,147.00,203.00,296.00,738.00,1296.00,1823.00,,,,,,,,,,,,0,0,0,,-3476,14980,4348,-31,165,-149
24.788,24.38,-2.46,-0.16,-0.54,4.07,-4.17,-5.48,5.08,-1.98,1.02,874.00,1563.00,176.00,229.00,253.00,782.00,1233.00,1847.00,,,,,,,,,,,,0,0,0,,-3460,14992,4384,-71,73,-187
24.83,24.44,-2.51,-1.91,0.93,-5.51,3.54,-3.40,3.31,-1.05,-0.03,833.00,1610.00,138.00,272.00,268.00,755.00,1283.00,1831.00,,,,,,,,,,,,0,0,0,,-3620,15156,4364,-131,100,-249
24.87,24.49,-2.38,-0.08,0.01,-1.84,2.17,0.12,-1.03,-0.18,-0.76,847.00,1535.00,139.00,244.00,318.00,738.00,1314.00,1804.00,,,,,,,,,,,,0,0,0,,-3484,14916,4448,-196,175,-64
24.932,24.55,-2.43,1.14,-1.26,5.83,-5.79,-3.47,2.20,-1.44,0.36,887.00,1513.00,186.00,223.00,285.00,780.00,1265.00,1840.00,,,,,,,,,,,,0,0,0,,-3572,14892,4584,-149,71,-223
25.033,24.60,-2.54,-0.67,0.21,-3.85,0.96,-4.59,5.22,-0.93,0.53,847.00,1563.00,154.00,273.00,247.00,752.00,1242.00,1795.00,,,,,,,,,,,,0,0,0,,-3604,15052,4520,-76,143,-123
25.054,24.66,-2.44,-0.48,0.97,-3.28,4.77,-0.57,0.90,0.09,-0.56,810.00,1520.00,124.00,241.00,290.00,720.00,1293.00,1775.00,,,,,,,,,,,,0,0,0,,-3488,14928,4300,-55,94,-192
25.096,24.71,-2.38,0.92,-0.15,6.30,-1.47,-1.32,1.09,-0.63,-0.01,839.00,1482.00,146.00,195.00,291.00,738.00,1272.00,1800.00,,,,,,,,,,,,0,0,0,,-3488,15028,4308,-78,89,-169
25.158,24.77,-2.55,0.30,-0.14,1.09,-1.06,-5.66,6.11,-1.22,0.78,848.00,1518.00,157.00,237.00,240.00,766.00,1232.00,1804.00,,,,,,,,,,,,0,0,0,,-3608,14948,4420,-148,57,-149
25.199,24.82,-2.44,-0.88,1.31,-6.27,7.65,-0.41,1.04,0.08,-0.21,801.00,1530.00,112.00,251.00,287.00,713.00,1269.00,1759.00,,,,,,,,,,,,0,0,0,,-3488,15004,4468,-120,67,-184
25.283,24.88,-2.36,0.87,-0.29,5.18,-0.58,-0.72,0.20,-0.63,-0.20,846.00,1490.00,142.00,199.00,302.00,738.00,1285.00,1809.00,,,,,,,,,,,,0,0,0,,-3608,14972,4536,-94,88,-189
25.387,24.93,-2.45,0.35,-0.63,2.94,-3.79,-4.23,3.66,-1.41,0.66,870.00,1535.00,176.00,237.00,267.00,773.00,1244.00,1823.00,,,,,,,,,,,,0,0,0,,-3476,14856,4472,-125,91,-161
25.408,24.99,-2.59,-0.93,0.23,-4.01,1.75,-5.22,3.79,-0.91,0.02,850.00,1578.00,148.00,269.00,270.00,801.00,1276.00,1818.00,,,,,,,,,,,,0,0,0,,-3432,14984,4344,-136,87,-148
25.428,25.04,-2.47,-0.67,0.21,-1.60,2.91,-0.14,-0.65,-0.26,-0.93,847.00,1563.00,133.00,237.00,313.00,738.00,1328.00,1818.00,,,,,,,,,,,,0,0,0,,-3556,15012,4484,-102,82,-170
25.491,25.10,-2.54,1.16,-2.35,5.89,-5.71,-3.95,2.62,-1.90,0.30,941.00,1557.00,185.00,222.00,281.00,786.00,1280.00,1877.00,,,,,,,,,,,,0,0,0,,-3516,15056,4512,-74,133,-174
25.532,25.15,-2.67,-1.46,0.21,-3.57,0.27,-5.07,5.38,-1.45,0.38,859.00,1612.00,159.00,275.00,247.00,763.00,1264.00,1840.00,,,,,,,,,,,,0,0,0,,-3608,15012,4460,-66,121,-180
25.594,25.21,-2.60,-1.44,0.84,-4.48,5.17,-1.39,1.50,-0.53,-0.39,830.00,1584.00,124.00,250.00,285.00,732.00,1296.00,1811.00,,,,,,,,,,,,0,0,0,,-3500,14756,4460,-148,149,-98
25.654,25.26,-2.58,0.24,-0.47,4.95,-2.24,-2.10,1.55,-0.96,-0.16,864.00,1535.00,156.00,210.00,288.00,752.00,1290.00,1831.00,,,,,,,,,,,,0,0,0,,-3476,14920,4656,-249,58,-237
25.715,25.32,-2.75,0.03,-0.16,1.74,-2.64,-5.99,6.07,-1.56,0.85,853.00,1535.00,169.00,241.00,242.00,777.00,1235.00,1825.00,,,,,,,,,,,,0,0,0,,-3484,15036,4464,-97,190,-131
25.776,25.37,-2.67,-0.81,1.08,-6.04,6.15,-1.16,1.43,-0.18,-0.12,810.00,1535.00,121.00,259.00,285.00,727.00,1269.00,1773.00,,,,,,,,,,,,0,0,0,,-3640,14828,4520,-89,138,-134
25.816,25.43,-2.58,1.00,-0.36,4.09,-0.98,-0.80,-0.07,-0.46,-0.42,847.00,1485.00,148.00,210.00,307.00,746.00,1296.00,1807.00,,,,,,,,,,,,0,0,0,,-3592,15064,4576,-30,177,-138
25.878,25.48,-2.63,0.47,-0.42,3.03,-3.61,-3.76,2.62,-0.91,0.13,858.00,1519.00,174.00,235.00,280.00,780.00,1269.00,1813.00,,,,,,,,,,,,0,0,0,,-3508,14912,4536,-8,196,-83
25.94,25.54,-2.68,-0.63,0.15,-3.01,-0.15,-3.48,3.48,-0.70,-0.02,849.00,1563.00,161.00,272.00,266.00,754.00,1274.00,1805.00,,,,,,,,,,,,0,0,0,,-3596,14924,4556,-4,110,-205
25.98,25.59,-2.52,-0.00,-0.08,-2.07,2.52,0.52,-1.17,0.01,-0.99,850.00,1534.00,137.00,244.00,318.00,729.00,1326.00,1802.00,,,,,,,,,,,,0,0,0,,-3544,14964,4396,-59,113,-133
26.042,25.65,-2.56,1.16,-1.24,7.16,-6.72,-3.47,2.01,-1.48,0.16,886.00,1511.00,191.00,217.00,288.00,784.00,1280.00,1853.00,,,,,,,,,,,,0,0,0,,-3512,15132,4364,-20,152,-198
26.165,25.70,-2.70,-0.98,0.16,-2.95,0.18,-5.26,5.37,-1.25,0.44,854.00,1584.00,158.00,269.00,248.00,769.00,1255.00,1822.00,,,,,,,,,,,,0,0,0,,-3580,14884,4388,1,69,-190
26.185,25.76,-2.63,-1.12,0.82,-5.27,5.89,-1.37,1.62,-0.51,-0.31,826.00,1565.00,121.00,253.00,283.00,729.00,1290.00,1806.00,,,,,,,,,,,,0,0,0,,-3672,14940,4468,-43,85,-162
26.206,25.81,-2.58,0.62,-0.49,4.89,-1.62,-1.68,0.77,-1.05,-0.12,859.00,1513.00,151.00,207.00,298.00,755.00,1289.00,1835.00,,,,,,,,,,,,0,0,0,,-3584,14980,4448,-189,105,-163
26.246,25.87,-2.73,-0.36,-0.39,0.75,-1.64,-5.49,5.22,-1.64,0.65,870.00,1569.00,163.00,244.00,251.00,779.00,1250.00,1840.00,,,,,,,,,,,,0,0,0,,-3628,15068,4464,-133,115,-147
26.307,25.92,-2.68,-1.74,1.07,-7.31,6.88,-1.80,1.90,-0.57,-0.25,824.00,1593.00,119.00,267.00,281.00,736.00,1287.00,1807.00,,,,,,,,,,,,0,0,0,,-3492,14956,4500,-80,123,-151
26.369,25.98,-2.62,0.24,-0.47,2.73,-1.38,-1.45,0.09,-1.22,-0.29,864.00,1535.00,155.00,224.00,308.00,762.00,1305.00,1856.00,,,,,,,,,,,,0,0,0,,-3644,14864,4392,-159,56,-219
26.43,26.03,-2.71,-0.45,-0.76,2.35,-3.70,-4.44,2.46,-1.61,-0.03,889.00,1590.00,177.00,242.00,286.00,805.00,1296.00,1872.00,,,,,,,,,,,,0,0,0,,-3580,15200,4356,-181,84,-248
26.513,26.09,-2.75,-1.36,0.13,-6.04,2.05,-3.49,2.67,-1.00,-0.10,861.00,1609.00,151.00,289.00,278.00,771.00,1287.00,1831.00,,,,,,,,,,,,0,0,0,,-3532,14900,4692,-213,113,-116
26.533,26.14,-2.61,-0.10,0.04,-2.19,1.64,0.15,-1.27,-0.24,-0.94,846.00,1535.00,144.00,251.00,322.00,742.00,1328.00,1817.00,,,,,,,,,,,,0,0,0,,-3528,14896,4480,-40,112,-234
26.574,26.20,-2.65,1.17,-1.45,7.27,-7.24,-3.45,1.75,-1.56,0.21,896.00,1519.00,196.00,219.00,292.00,789.00,1278.00,1856.00,,,,,,,,,,,,0,0,0,,-3680,15020,4556,-78,151,-89
26.677,26.25,-2.76,-0.04,-0.05,-0.70,-1.15,-4.85,4.72,-1.06,0.41,849.00,1535.00,163.00,255.00,255.00,770.00,1253.00,1810.00,,,,,,,,,,,,0,0,0,,-3496,14932,4692,-31,174,-150
26.696,26.31,-2.69,-0.69,0.90,-5.90,5.80,-1.28,1.86,-0.26,-0.27,816.00,1535.00,123.00,260.00,279.00,722.00,1281.00,1786.00,,,,,,,,,,,,0,0,0,,-3604,14988,4408,30,181,-182
26.757,26.36,-2.64,0.82,-0.34,6.06,-2.61,-1.76,0.99,-0.91,-0.12,849.00,1495.00,156.00,203.00,295.00,753.00,1286.00,1825.00,,,,,,,,,,,,0,0,0,,-3552,14988,4280,-81,117,-136
26.798,26.42,-2.80,0.32,-0.56,2.06,-2.97,-5.87,5.50,-1.75,0.82,867.00,1534.00,171.00,240.00,249.00,785.00,1241.00,1840.00,,,,,,,,,,,,0,0,0,,-3596,15040,4372,-97,102,-164
26.86,26.47,-2.76,-1.49,1.19,-7.38,6.29,-1.98,2.23,-0.19,-0.29,815.00,1572.00,123.00,272.00,277.00,735.00,1281.00,1782.00,,,,,,,,,,,,0,0,0,,-3572,15080,4368,-12,169,-190
26.921,26.53,-2.68,0.10,-0.14,0.30,0.42,-1.13,-0.08,-0.78,-0.44,851.00,1530.00,147.00,235.00,309.00,756.00,1305.00,1831.00,,,,,,,,,,,,0,0,0,,-3592,14868,4544,-58,79,-181
26.982,26.58,-2.75,-0.02,-0.80,3.51,-5.11,-4.14,2.10,-1.71,0.08,884.00,1565.00,187.00,240.00,290.00,803.00,1291.00,1874.00,,,,,,,,,,,,0,0,0,,-3476,15096,4520,-140,158,-107
27.045,26.64,-2.80,-1.30,0.01,-5.69,1.94,-3.65,2.85,-1.07,-0.21,866.00,1611.00,151.00,286.00,276.00,772.00,1296.00,1841.00,,,,,,,,,,,,0,0,0,,-3588,14916,4456,-204,166,-147
27.088,26.69,-2.68,-0.84,-0.04,-3.22,1.98,-0.39,-0.97,-0.53,-0.90,861.00,1584.00,144.00,259.00,320.00,752.00,1332.00,1836.00,,,,,,,,,,,,0,0,0,,-3512,15004,4408,-78,161,-121
27.149,26.75,-2.70,0.32,-1.49,5.48,-6.25,-3.19,1.59,-1.64,-0.05,912.00,1573.00,192.00,229.00,293.00,784.00,1298.00,1875.00,,,,,,,,,,,,0,0,0,,-3536,14912,4432,-37,111,-121
27.272,26.80,-2.83,-0.42,-0.52,-0.43,-2.13,-5.31,4.73,-1.80,0.31,877.00,1578.00,171.00,259.00,257.00,784.00,1277.00,1869.00,,,,,,,,,,,,0,0,0,,-3476,14844,4432,-21,131,-161
27.293,26.86,-2.77,-1.84,0.73,-6.52,5.85,-1.52,1.03,-0.75,-0.32,841.00,1614.00,124.00,266.00,293.00,745.00,1296.00,1823.00,,,,,,,,,,,,0,0,0,,-3496,14948,4480,-140,88,-269
27.313,26.91,-2.73,0.39,-0.33,3.64,-2.73,-1.97,0.56,-1.02,-0.20,855.00,1520.00,164.00,224.00,303.00,768.00,1294.00,1837.00,,,,,,,,,,,,0,0,0,,-3632,15048,4500,-70,149,-88
27.354,26.97,-2.84,0.54,-0.91,1.29,-3.34,-5.00,4.13,-1.65,0.61,880.00,1535.00,177.00,250.00,264.00,787.00,1253.00,1843.00,,,,,,,,,,,,0,0,0,,-3588,14860,4612,-51,111,-134
27.416,27.02,-2.84,-1.28,1.10,-6.35,4.37,-2.88,2.59,-0.53,-0.22,816.00,1563.00,134.00,275.00,276.00,754.00,1284.00,1803.00,,,,,,,,,,,,0,0,0,,-3508,15016,4280,-88,184,-126
27.478,27.08,-2.73,-0.42,0.10,-1.60,0.32,-0.65,-0.60,-0.26,-0.72,848.00,1552.00,153.00,254.00,315.00,752.00,1313.00,1808.00,,,,,,,,,,,,0,0,0,,-3544,14960,4480,-52,139,-96
27.52,27.13,-2.79,0.72,-1.18,4.96,-6.93,-3.92,1.78,-1.62,0.11,890.00,1535.00,201.00,238.00,294.00,803.00,1287.00,1866.00,,,,,,,,,,,,0,0,0,,-3532,14952,4380,-55,115,-210
27.604,27.19,-2.87,-1.10,0.18,-5.23,0.49,-4.41,4.07,-0.99,0.08,855.00,1591.00,162.00,292.00,262.00,770.00,1274.00,1821.00,,,,,,,,,,,,0,0,0,,-3612,14936,4308,-119,102,-128
27.625,27.24,-2.72,-0.86,0.62,-4.37,4.26,0.12,-0.62,0.18,-1.07,831.00,1557.00,130.00,255.00,311.00,730.00,1327.00,1793.00,,,,,,,,,,,,0,0,0,,-3624,15116,4464,-2,86,-167
27.687,27.30,-2.68,0.96,-1.09,0.42,-2.95,-1.78,0.62,-1.11,-0.12,882.00,1517.00,176.00,256.00,301.00,761.00,1291.00,1840.00,,,,,,,,,,,,0,0,0,,-3568,15004,4536,-41,122,-179
27.749,27.35,-2.85,-0.03,-0.71,0.91,-2.03,-6.24,6.00,-1.81,0.78,880.00,1562.00,166.00,245.00,244.00,786.00,1245.00,1846.00,,,,,,,,,,,,0,0,0,,-3684,14884,4460,-27,174,-132
27.79,27.41,-2.79,-1.64,1.02,-8.35,7.86,-1.53,2.28,-0.30,-0.40,825.00,1589.00,115.00,271.00,274.00,721.00,1291.00,1795.00,,,,,,,,,,,,0,0,0,,-3592,15044,4420,-115,99,-117
27.852,27.46,-2.67,0.05,-0.17,3.18,-0.17,-0.44,-0.96,-0.97,-0.46,853.00,1534.00,144.00,213.00,320.00,753.00,1311.00,1846.00,,,,,,,,,,,,0,0,0,,-3524,14948,4520,-114,139,-127
27.894,27.52,-2.86,0.09,-1.27,3.94,-5.74,-6.39,4.88,-2.06,0.78,905.00,1578.00,192.00,240.00,260.00,815.00,1251.00,1865.00,,,,,,,,,,,,0,0,0,,-3568,15024,4476,-49,174,-137
27.996,27.57,-2.92,-1.79,0.47,-6.01,2.67,-4.10,3.27,-1.54,-0.05,852.00,1622.00,146.00,284.00,272.00,777.00,1296.00,1868.00,,,,,,,,,,,,0,0,0,,-3628,15048,4364,-30,142,-145
28.016,27.63,-2.78,-1.32,0.04,-4.58,2.44,-0.20,-1.55,-0.89,-0.91,865.00,1611.00,144.00,270.00,329.00,758.00,1342.00,1863.00,,,,,,,,,,,,0,0,0,,-3544,14952,4468,-45,128,-136
28.077,27.68,-2.85,0.27,-1.68,6.54,-7.82,-4.07,1.46,-2.19,0.20,922.00,1584.00,205.00,229.00,300.00,815.00,1294.00,1904.00,,,,,,,,,,,,0,0,0,,-3592,14836,4676,-166,88,-213
28.138,27.74,-2.98,-1.27,-0.09,-3.55,-1.61,-5.50,5.01,-1.34,0.31,870.00,1613.00,176.00,289.00,254.00,784.00,1266.00,1835.00,,,,,,,,,,,,0,0,0,,-3472,15040,4400,-86,171,-82
28.18,27.79,-2.85,-1.04,0.71,-7.26,6.25,-0.44,0.36,0.08,-0.89,830.00,1565.00,123.00,271.00,298.00,727.00,1317.00,1792.00,,,,,,,,,,,,0,0,0,,-3580,14896,4436,-54,156,-145
28.242,27.85,-2.80,0.99,-0.59,4.48,-2.08,-1.86,0.90,-0.80,-0.20,858.00,1495.00,156.00,213.00,297.00,758.00,1289.00,1821.00,,,,,,,,,,,,0,0,0,,-3636,15012,4468,-25,168,-134
28.344,27.90,-2.96,0.30,-0.55,2.53,-3.66,-6.00,5.85,-1.67,0.88,867.00,1535.00,176.00,240.00,245.00,782.00,1235.00,1831.00,,,,,,,,,,,,0,0,0,,-3536,14940,4352,-55,132,-125
28.364,27.96,-2.91,-1.42,1.15,-4.22,6.00,-1.86,2.45,0.04,-0.38,816.00,1570.00,118.00,242.00,273.00,727.00,1282.00,1770.00,,,,,,,,,,,,0,0,0,,-3592,14940,4408,-220,26,-226
28.406,28.01,-2.79,0.53,-0.35,4.03,-0.71,-0.52,-0.64,-0.42,-0.60,854.00,1513.00,146.00,209.00,315.00,749.00,1308.00,1813.00,,,,,,,,,,,,0,0,0,,-3700,15068,4564,-181,122,-100
28.468,28.07,-2.86,0.67,-1.10,4.56,-5.06,-4.24,3.05,-1.66,0.48,887.00,1535.00,183.00,230.00,276.00,786.00,1262.00,1850.00,,,,,,,,,,,,0,0,0,,-3628,15064,4684,-96,134,-171
28.53,28.12,-2.92,-0.69,-0.26,-3.48,-0.66,-3.94,3.43,-1.13,0.04,869.00,1584.00,167.00,281.00,269.00,769.00,1280.00,1833.00,,,,,,,,,,,,0,0,0,,-3628,14948,4564,51,155,-142
28.573,28.18,-2.76,-1.03,0.28,-3.30,2.40,0.25,-1.42,-0.23,-1.08,849.00,1582.00,141.00,257.00,324.00,742.00,1338.00,1823.00,,,,,,,,,,,,0,0,0,,-3616,14948,4552,-1,207,-105
28.614,28.23,-2.80,0.76,-1.64,7.02,-7.71,-3.70,1.64,-1.98,0.20,912.00,1552.00,202.00,224.00,295.00,799.00,1289.00,1888.00,,,,,,,,,,,,0,0,0,,-3520,14976,4528,-36,257,-109
28.698,28.29,-2.93,-1.14,-0.34,-2.84,-1.74,-5.28,5.30,-1.62,0.48,880.00,1616.00,175.00,282.00,249.00,771.00,1261.00,1847.00,,,,,,,,,,,,0,0,0,,-3556,15024,4428,-63,208,-99
28.738,28.34,-2.85,-1.56,0.95,-6.67,6.36,-1.45,2.05,-0.71,-0.33,827.00,1587.00,121.00,264.00,277.00,723.00,1296.00,1821.00,,,,,,,,,,,,0,0,0,,-3520,14960,4432,7,277,-65
28.799,28.40,-2.78,0.22,-0.44,3.91,-1.41,-1.36,0.30,-1.41,-0.12,863.00,1535.00,152.00,214.00,304.00,755.00,1298.00,1862.00,,,,,,,,,,,,0,0,0,,-3444,15020,4248,30,341,-3
28.841,28.45,-2.96,-0.42,-0.69,2.39,-3.61,-6.33,5.81,-2.20,0.73,885.00,1585.00,176.00,241.00,247.00,793.00,1257.00,1877.00,,,,,,,,,,,,0,0,0,,-3636,14628,4412,-126,401,12
28.903,28.51,-2.89,-2.05,1.00,-7.87,6.61,-1.69,1.99,-0.70,-0.35,832.00,1616.00,122.00,275.00,279.00,731.00,1297.00,1821.00,,,,,,,,,,,,0,0,0,,-3548,15060,4320,-332,393,-52
28.983,28.56,-2.78,1.25,-1.13,4.07,-1.83,-0.65,-0.60,-0.62,-0.67,879.00,1501.00,155.00,215.00,315.00,752.00,1318.00,1831.00,,,,,,,,,,,,0,0,0,,-3544,14940,4616,-316,589,211
29.004,28.62,-2.84,0.75,-0.87,3.24,-5.01,-3.90,2.21,-1.22,0.00,875.00,1521.00,187.00,242.00,287.00,793.00,1285.00,1842.00,,,,,,,,,,,,0,0,0,,-3468,14816,4524,-507,566,92
29.066,28.67,-2.87,-1.09,0.07,-4.67,0.30,-3.55,3.09,-0.78,-0.21,860.00,1595.00,162.00,287.00,272.00,764.00,1289.00,1820.00,,,,,,,,,,,,0,0,0,,-3388,15080,4408,-528,560,235
29.13,28.73,-2.69,-0.13,0.22,-1.99,1.19,0.78,-1.60,-0.10,-1.03,838.00,1529.00,147.00,252.00,324.00,730.00,1331.00,1811.00,,,,,,,,,,,,0,0,0,,-3480,15068,4440,-433,415,186
29.173,28.78,-2.72,1.34,-1.32,6.21,-6.01,-3.34,1.96,-1.51,0.08,887.00,1504.00,187.00,221.00,288.00,781.00,1286.00,1859.00,,,,,,,,,,,,0,0,0,,-3260,14992,4324,-444,301,34
29.233,28.84,-2.82,-0.48,-0.03,-1.21,-0.98,-4.59,4.92,-1.23,0.48,855.00,1561.00,163.00,259.00,251.00,758.00,1252.00,1819.00,,,,,,,,,,,,0,0,0,,-3244,15056,4556,-424,218,15
29.315,28.89,-2.74,-0.69,0.90,-5.82,6.69,-1.21,2.17,-0.33,-0.32,816.00,1535.00,117.00,253.00,274.00,714.00,1286.00,1793.00,,,,,,,,,,,,0,0,0,,-3316,15040,4572,-323,141,-74
29.357,28.95,-2.67,1.07,-0.53,5.05,-1.67,-1.42,0.69,-1.01,-0.23,854.00,1488.00,151.00,206.00,298.00,749.00,1296.00,1838.00,,,,,,,,,,,,0,0,0,,-3344,14952,4644,-317,131,-38
29.459,29.00,-2.80,0.35,-0.52,2.29,-3.15,-5.26,5.52,-1.90,0.75,865.00,1531.00,172.00,239.00,246.00,766.00,1249.00,1854.00,,,,,,,,,,,,0,0,0,,-3276,14992,4640,-304,99,-144
29.48,29.06,-2.75,-1.26,1.02,-6.19,6.66,-1.74,2.48,-0.27,-0.46,819.00,1565.00,118.00,257.00,272.00,723.00,1295.00,1796.00,,,,,,,,,,,,0,0,0,,-3276,15068,4592,-315,149,-83
29.523,29.11,-2.65,0.49,-0.25,2.05,-0.04,-0.79,0.11,-0.91,-0.42,850.00,1511.00,146.00,222.00,304.00,742.00,1307.00,1840.00,,,,,,,,,,,,0,0,0,,-3448,15048,4904,-143,106,-109
29.563,29.17,-2.76,0.54,-0.91,4.34,-4.58,-4.84,3.93,-1.73,0.08,880.00,1535.00,179.00,229.00,266.00,786.00,1291.00,1875.00,,,,,,,,,,,,0,0,0,,-3352,14912,4736,-169,141,-113
29.626,29.22,-2.80,-1.29,0.18,-3.96,1.11,-3.54,3.57,-1.34,-0.05,858.00,1603.00,153.00,273.00,265.00,754.00,1291.00,1853.00,,,,,,,,,,,,0,0,0,,-3240,14960,4760,-177,-33,-156
29.687,29.28,-2.63,-0.78,0.22,-2.30,3.00,0.57,-0.77,-0.41,-1.07,848.00,1569.00,134.00,243.00,311.00,720.00,1342.00,1836.00,,,,,,,,,,,,0,0,0,,-3296,15072,4616,-199,39,-261
29.729,29.33,-2.50,1.33,-1.47,8.20,-5.77,-0.07,1.06,-1.28,-0.14,894.00,1510.00,178.00,203.00,285.00,703.00,1296.00,1853.00,,,,,,,,,,,,0,0,0,,-3324,14864,4708,-166,110,-199
29.834,29.39,-2.59,0.39,-0.17,1.36,-1.62,-4.29,4.97,-0.98,0.19,848.00,1514.00,161.00,238.00,249.00,748.00,1266.00,1815.00,,,,,,,,,,,,0,0,0,,-3348,14936,4840,-50,84,-285
29.855,29.44,-2.50,-0.23,0.75,-3.95,5.14,-0.82,2.17,-0.10,-0.29,816.00,1514.00,123.00,245.00,272.00,703.00,1279.00,1776.00,,,,,,,,,,,,0,0,0,,-3440,14984,4784,-10,69,-224
29.895,29.50,-2.40,0.99,-0.27,6.64,-1.59,-0.43,0.54,-0.59,-0.34,843.00,1482.00,146.00,193.00,295.00,723.00,1294.00,1813.00,,,,,,,,,,,,0,0,0,,-3232,14908,4844,-28,88,-230
29.958,29.55,-2.53,0.95,-0.54,3.31,-3.39,-5.12,5.70,-1.52,0.74,856.00,1495.00,171.00,231.00,243.00,758.00,1241.00,1827.00,,,,,,,,,,,,0,0,0,,-3404,15092,4744,-22,86,-195
29.997,29.61,-2.50,-0.57,0.97,-5.65,5.71,-1.79,2.70,-0.23,-0.29,811.00,1525.00,123.00,258.00,269.00,720.00,1282.00,1785.00,,,,,,,,,,,,0,0,0,,-3412,14900,4724,-72,79,-213
30.079,29.66,-2.36,0.28,0.08,-0.59,1.10,0.20,-0.23,-0.37,-0.54,838.00,1510.00,144.00,239.00,304.00,720.00,1303.00,1807.00,,,,,,,,,,,,1,1,0,,-3380,14948,4780,-117,75,-177
30.1,29.72,-2.39,1.22,-1.18,6.34,-5.86,-2.89,1.88,-1.50,0.11,882.00,1505.00,185.00,219.00,287.00,769.00,1284.00,1857.00,,,,,,,,,,,,1,1,0,,-3368,14904,4704,-25,103,-186
30.182,29.77,-2.45,-0.54,0.01,-1.86,-0.30,-3.57,4.22,-0.94,0.05,854.00,1563.00,159.00,261.00,256.00,742.00,1275.00,1819.00,,,,,,,,,,,,1,1,0,,-3276,14976,4744,-49,94,-220
30.224,29.83,-2.29,-0.43,0.56,-2.08,3.78,0.74,-0.35,0.06,-1.05,827.00,1533.00,128.00,236.00,303.00,707.00,1329.00,1801.00,,,,,,,,,,,,1,1,0,,-3524,14896,4804,-68,50,-182
30.284,29.88,-2.25,1.19,-1.08,8.43,-5.00,-1.59,1.70,-1.08,-0.15,878.00,1503.00,170.00,197.00,283.00,734.00,1292.00,1839.00,,,,,,,,,,,,1,1,0,,-3388,15004,4872,-109,128,-150
30.344,29.94,-2.47,-0.14,-0.36,1.19,-1.67,-6.59,8.11,-1.44,0.38,865.00,1554.00,162.00,240.00,219.00,753.00,1264.00,1839.00,,,,,,,,,,,,1,1,0,,-3420,14932,4800,-73,124,-141
30.385,29.99,-2.41,-1.24,1.00,-4.50,6.41,-1.33,2.34,-0.47,-0.27,820.00,1565.00,116.00,242.00,272.00,714.00,1286.00,1801.00,,,,,,,,,,,,1,1,0,,-3304,14912,4756,2,65,-265
30.467,30.05,-2.33,0.62,-0.62,6.29,-1.85,-0.78,0.35,-0.85,-0.51,865.00,1518.00,149.00,197.00,300.00,737.00,1312.00,1840.00,,,,,,,,,,,,1,1,0,,-3400,15056,4764,54,65,-324
30.488,30.10,-2.45,1.02,-1.03,4.50,-4.32,-4.70,4.60,-1.74,0.74,878.00,1511.00,176.00,226.00,256.00,768.00,1246.00,1843.00,,,,,,,,,,,,1,1,0,,-3276,14804,4952,20,78,-148
30.551,30.16,-2.48,-0.56,0.86,-3.78,2.96,-3.13,3.36,-0.78,-0.01,816.00,1529.00,138.00,258.00,266.00,746.00,1275.00,1810.00,,,,,,,,,,,,1,1,0,,-3416,14836,4692,45,126,-244
30.633,30.21,-2.30,0.43,0.17,-0.52,2.27,1.13,-1.14,0.23,-1.10,832.00,1498.00,135.00,231.00,314.00,711.00,1328.00,1791.00,,,,,,,,,,,,1,1,0,,-3356,14836,4684,-11,152,-181
30.674,30.27,-2.32,1.87,-1.46,8.54,-7.19,-2.69,2.07,-1.25,0.08,885.00,1478.00,191.00,208.00,283.00,759.00,1280.00,1840.00,,,,,,,,,,,,1,1,0,,-3316,14824,4652,-108,158,-156
30.716,30.32,-2.41,0.00,-0.02,-2.93,1.13,-4.04,5.26,-0.66,0.07,847.00,1531.00,150.00,262.00,244.00,735.00,1267.00,1798.00,,,,,,,,,,,,1,1,0,,-3380,14904,4592,-88,146,-200
30.779,30.38,-2.25,0.13,0.58,-3.68,5.82,0.72,0.22,0.30,-0.83,818.00,1499.00,118.00,238.00,294.00,697.00,1307.00,1773.00,,,,,,,,,,,,1,1,0,,-3484,14968,4756,-154,189,-35
30.841,30.43,-2.17,1.65,-0.57,8.74,-2.29,-0.68,1.07,-0.52,-0.33,847.00,1456.00,146.00,181.00,288.00,720.00,1292.00,1808.00,,,,,,,,,,,,1,1,0,,-3384,15044,4588,-120,221,-27
30.923,30.49,-2.32,0.58,-0.24,4.08,-2.18,-5.16,6.41,-1.29,0.61,848.00,1505.00,158.00,217.00,234.00,745.00,1245.00,1817.00,,,,,,,,,,,,1,1,0,,-3356,14912,4652,-2,220,-40
30.944,30.54,-2.26,-0.71,1.18,-5.62,7.60,-1.17,2.63,-0.23,-0.46,804.00,1525.00,111.00,245.00,267.00,704.00,1294.00,1793.00,,,,,,,,,,,,1,1,0,,-3320,14976,4724,-61,212,-48
30.985,30.60,-2.14,1.24,-0.33,6.75,-1.37,0.20,-0.23,-0.43,-0.68,842.00,1470.00,144.00,191.00,304.00,720.00,1314.00,1818.00,,,,,,,,,,,,1,1,0,,-3352,14952,4664,-68,202,-40
31.048,30.65,-2.35,0.99,-1.06,5.68,-4.71,-6.31,4.85,-1.46,0.32,880.00,1514.00,176.00,218.00,260.00,813.00,1268.00,1843.00,,,,,,,,,,,,1,1,0,,-3164,15020,4564,-92,236,-45
31.11,30.71,-2.38,-0.56,-0.00,-2.36,0.58,-3.02,3.60,-1.03,-0.17,855.00,1565.00,153.00,260.00,262.00,738.00,1292.00,1836.00,,,,,,,,,,,,1,1,0,,-3392,14972,4576,-80,228,-95
31.151,30.76,-2.22,-0.23,0.23,-1.06,1.65,0.94,-1.42,-0.43,-1.07,839.00,1535.00,141.00,240.00,320.00,722.00,1342.00,1837.00,,,,,,,,,,,,1,1,0,,-3232,14768,4620,-9,209,-120
31.213,30.82,-2.30,1.09,-1.40,7.51,-5.85,-3.81,2.51,-1.59,-0.12,895.00,1522.00,181.00,209.00,282.00,784.00,1302.00,1875.00,,,,,,,,,,,,1,1,0,,-3408,15016,4604,-90,93,-286
31.275,30.87,-2.41,-0.06,-0.02,-1.98,0.45,-4.48,5.26,-1.16,0.30,848.00,1535.00,153.00,257.00,246.00,748.00,1263.00,1823.00,,,,,,,,,,,,1,1,0,,-3156,15088,4480,-63,189,-118
31.316,30.93,-2.31,-0.22,0.93,-5.51,7.90,-0.41,1.83,0.08,-0.58,808.00,1506.00,109.00,242.00,275.00,698.00,1295.00,1777.00,,,,,,,,,,,,1,1,0,,-3304,14884,4648,31,124,-256
31.378,30.98,-2.22,1.44,-0.24,8.11,-1.57,-0.63,0.48,-0.44,-0.42,835.00,1455.00,142.00,182.00,297.00,730.00,1296.00,1806.00,,,,,,,,,,,,1,1,0,,-3264,15008,4552,-52,59,-283
31.419,31.04,-2.36,1.05,-0.50,3.84,-2.68,-5.06,5.91,-1.30,0.58,853.00,1488.00,163.00,222.00,240.00,752.00,1247.00,1819.00,,,,,,,,,,,,1,1,0,,-3348,14896,4620,-112,85,-238
31.481,31.09,-2.30,-0.34,1.08,-5.04,6.75,-1.01,2.23,0.06,-0.43,803.00,1507.00,115.00,245.00,272.00,707.00,1285.00,1771.00,,,,,,,,,,,,1,1,0,,-3312,14828,4732,-115,101,-374
31.542,31.15,-2.19,1.50,-0.31,5.57,-0.97,-0.12,-0.12,-0.30,-0.67,837.00,1454.00,144.00,198.00,304.00,727.00,1310.00,1808.00,,,,,,,,,,,,1,1,0,,-3476,15048,4684,-70,63,-209
31.583,31.20,-2.23,1.22,-0.80,5.40,-4.30,-2.98,2.10,-1.13,-0.16,864.00,1490.00,173.00,218.00,284.00,767.00,1294.00,1843.00,,,,,,,,,,,,1,1,0,,-3416,15092,4712,84,63,-279
31.666,31.26,-2.28,-0.04,-0.05,-2.28,0.31,-3.27,3.62,-0.87,-0.04,849.00,1535.00,155.00,261.00,263.00,745.00,1280.00,1819.00,,,,,,,,,,,,1,1,0,,-3428,15004,4508,44,57,-269
31.748,31.31,-2.13,-0.01,0.29,-1.41,3.26,0.72,-0.94,0.08,-1.27,833.00,1519.00,130.00,233.00,313.00,719.00,1344.00,1810.00,,,,,,,,,,,,1,1,0,,-3508,14776,4520,29,11,-201
31.768,31.37,-2.18,1.78,-1.43,9.16,-7.00,-3.18,0.97,-1.54,-0.15,885.00,1482.00,187.00,202.00,303.00,797.00,1303.00,1873.00,,,,,,,,,,,,1,1,0,,-3660,15168,4804,90,265,-247
31.81,31.42,-2.32,0.05,-0.19,-0.62,-1.85,-4.96,4.54,-1.51,0.40,854.00,1535.00,169.00,259.00,258.00,777.00,1264.00,1843.00,,,,,,,,,,,,1,1,0,,-3380,15004,4636,213,355,-218
31.871,31.48,-2.28,-0.65,0.84,-4.62,5.67,-1.48,1.79,-0.55,-0.44,818.00,1535.00,121.00,248.00,281.00,729.00,1300.00,1815.00,,,,,,,,,,,,1,1,0,,-3388,14968,4384,314,204,-201
31.912,31.53,-2.15,0.90,-0.62,6.29,-1.85,0.22,-2.08,-1.09,-0.46,861.00,1502.00,149.00,197.00,336.00,756.00,1314.00,1855.00,,,,,,,,,,,,1,1,0,,-3520,15204,4308,237,25,-275
32.015,31.59,-2.32,0.50,-0.57,3.41,-2.87,-5.39,5.56,-1.49,0.44,865.00,1524.00,166.00,227.00,246.00,769.00,1261.00,1840.00,,,,,,,,,,,,1,1,0,,-3516,14924,4484,37,1,-209
32.036,31.64,-2.28,-0.49,0.90,-5.56,6.60,-1.65,2.45,0.03,-0.51,813.00,1523.00,117.00,251.00,272.00,721.00,1291.00,1777.00,,,,,,,,,,,,1,1,0,,-3620,15076,4452,-6,-90,-114
32.077,31.70,-2.15,1.38,-0.50,4.69,-0.42,0.34,-0.69,-0.30,-0.67,848.00,1469.00,142.00,202.00,311.00,725.00,1310.00,1808.00,,,,,,,,,,,,1,1,0,,-3528,15148,4444,-139,-63,92
32.139,31.75,-2.21,1.41,-0.90,7.02,-5.48,-3.27,2.20,-1.12,-0.35,866.00,1483.00,179.00,211.00,284.00,774.00,1307.00,1852.00,,,,,,,,,,,,1,1,0,,-3608,15132,4564,173,60,35
32.201,31.81,-2.19,-0.08,0.01,-2.75,-0.12,-1.94,1.56,-0.78,-0.06,847.00,1535.00,160.00,269.00,287.00,747.00,1279.00,1813.00,,,,,,,,,,,,1,1,0,,-3476,15236,4588,859,517,-165
32.263,31.86,-2.04,0.15,0.30,-1.41,3.26,0.92,-1.18,0.27,-1.32,830.00,1509.00,130.00,233.00,316.00,718.00,1343.00,1799.00,,,,,,,,,,,,1,1,0,,-3416,15056,4324,761,536,-432
32.306,31.92,-2.06,1.87,-1.48,9.84,-6.11,-2.41,1.27,-1.28,-0.15,886.00,1479.00,176.00,192.00,294.00,767.00,1297.00,1854.00,,,,,,,,,,,,1,1,0,,-3384,15084,3880,343,285,-539
32.429,31.97,-2.19,0.55,-0.49,1.37,-0.68,-4.81,5.00,-1.26,0.32,860.00,1517.00,153.00,232.00,251.00,763.00,1264.00,1829.00,,,,,,,,,,,,1,1,0,,-3520,14840,3888,-41,-246,-263
32.45,32.03,-2.13,-0.45,0.84,-4.65,6.94,-0.92,1.47,-0.29,-0.54,815.00,1523.00,113.00,240.00,283.00,719.00,1301.00,1801.00,,,,,,,,,,,,1,1,0,,-3596,14924,4432,-454,-320,-53
32.492,32.08,-2.07,1.38,-0.66,6.36,-1.36,-1.01,0.18,-0.84,-0.50,855.00,1475.00,145.00,194.00,304.00,747.00,1311.00,1839.00,,,,,,,,,,,,1,1,0,,-3640,14988,4436,-728,133,55
32.534,32.14,-2.23,0.41,-0.50,4.32,-3.73,-5.21,4.77,-1.94,0.52,863.00,1526.00,171.00,224.00,256.00,780.00,1266.00,1869.00,,,,,,,,,,,,1,1,0,,-3808,14968,4660,-655,823,46
32.596,32.19,-2.23,-1.19,1.09,-6.91,7.87,-2.24,2.65,-0.57,-0.52,815.00,1558.00,112.00,256.00,272.00,734.00,1306.00,1820.00,,,,,,,,,,,,1,1,0,,-3284,15216,4032,-371,854,211
32.656,32.25,-2.14,0.24,-0.12,0.20,2.03,-0.36,-0.87,-0.74,-1.02,848.00,1521.00,135.00,226.00,318.00,749.00,1346.00,1857.00,,,,,,,,,,,,1,1,0,,-3172,15200,4212,-181,-169,-92
32.759,32.30,-2.22,0.83,-1.34,5.74,-5.66,-3.83,1.75,-1.93,-0.19,896.00,1535.00,185.00,223.00,294.00,801.00,1315.00,1904.00,,,,,,,,,,,,1,1,0,,-3364,15072,4492,95,-202,-381
32.78,32.36,-2.29,-0.39,0.00,-3.75,0.80,-3.60,2.97,-0.79,-0.60,852.00,1554.00,155.00,273.00,274.00,768.00,1317.00,1840.00,,,,,,,,,,,,1,1,0,,-3464,15152,4528,51,188,-256
32.801,32.41,-2.18,0.42,-0.14,-1.85,2.05,0.02,-0.94,-0.12,-1.20,846.00,1511.00,140.00,245.00,317.00,739.00,1344.00,1821.00,,,,,,,,,,,,1,1,0,,-3468,15028,4368,148,198,-352
32.883,32.47,-2.19,2.03,-1.70,6.68,-5.67,-2.37,1.01,-1.11,-0.25,894.00,1478.00,182.00,215.00,298.00,771.00,1300.00,1846.00,,,,,,,,,,,,1,1,0,,-3520,15052,4416,221,199,-280
32.904,32.52,-2.34,0.85,-0.48,0.00,-0.70,-5.21,5.21,-1.37,0.28,855.00,1499.00,157.00,245.00,250.00,771.00,1269.00,1839.00,,,,,,,,,,,,1,1,0,,-3520,14860,4332,17,288,-187
32.966,32.58,-2.28,-0.29,0.65,-5.52,5.67,-1.25,1.91,-0.04,-0.78,821.00,1521.00,123.00,257.00,278.00,720.00,1312.00,1795.00,,,,,,,,,,,,1,1,0,,-3500,15008,4076,-114,407,-130
33.007,32.63,-2.21,1.30,-0.54,6.39,-2.37,-0.91,-0.21,-0.75,-0.64,851.00,1475.00,153.00,199.00,310.00,752.00,1319.00,1839.00,,,,,,,,,,,,1,1,0,,-3428,15004,4100,-273,308,16
33.111,32.69,-2.39,0.79,-0.89,3.50,-3.98,-5.75,4.95,-1.90,0.53,875.00,1519.00,176.00,233.00,256.00,793.00,1264.00,1865.00,,,,,,,,,,,,1,1,0,,-3432,15252,4204,-68,133,-130
33.131,32.74,-2.43,-1.26,1.05,-7.11,5.76,-3.21,2.84,-0.78,-0.44,818.00,1564.00,126.00,273.00,274.00,759.00,1305.00,1831.00,,,,,,,,,,,,1,1,0,,-3384,15168,4136,-73,21,-267
33.192,32.80,-2.33,-0.41,0.03,-1.84,1.26,-0.31,-1.00,-0.76,-0.89,851.00,1554.00,146.00,250.00,320.00,750.00,1337.00,1852.00,,,,,,,,,,,,1,1,0,,-3448,15036,4396,-42,129,-248
33.232,32.85,-2.41,1.17,-1.72,7.41,-8.11,-3.98,1.36,-2.05,-0.15,909.00,1530.00,205.00,223.00,301.00,814.00,1315.00,1911.00,,,,,,,,,,,,1,1,0,,-3452,15032,4200,-96,80,-251
33.314,32.91,-2.56,-1.18,-0.24,-3.74,-0.01,-5.42,4.69,-1.61,-0.11,876.00,1614.00,162.00,279.00,258.00,788.00,1302.00,1876.00,,,,,,,,,,,,1,1,0,,-3468,14980,4236,-128,88,-202
33.355,32.96,-2.44,-1.19,0.49,-5.01,4.05,-0.09,-1.08,-0.46,-1.34,842.00,1583.00,133.00,263.00,320.00,745.00,1363.00,1853.00,,,,,,,,,,,,1,1,0,,-3536,14940,4148,-127,-109,-84
33.396,33.02,-2.45,1.03,-1.63,6.98,-5.77,-2.64,0.79,-1.48,-0.52,907.00,1535.00,182.00,213.00,303.00,784.00,1328.00,1887.00,,,,,,,,,,,,1,1,0,,-3608,15268,4164,-11,-95,90
33.479,33.07,-2.64,-0.08,-0.72,0.80,-3.08,-6.38,5.09,-1.98,0.30,881.00,1565.00,176.00,253.00,257.00,810.00,1282.00,1883.00,,,,,,,,,,,,1,1,0,,-3520,15168,4384,-134,-68,47
33.519,33.13,-2.61,-0.60,0.87,-8.80,7.86,-2.03,1.14,-0.47,-0.71,816.00,1531.00,116.00,276.00,294.00,758.00,1317.00,1822.00,,,,,,,,,,,,1,1,0,,-3348,15136,4376,230,147,-124
33.561,33.18,-2.57,1.10,-0.50,3.79,-2.43,-1.77,-0.45,-0.84,-0.81,852.00,1485.00,161.00,221.00,319.00,783.00,1333.00,1854.00,,,,,,,,,,,,1,1,0,,-3416,15112,4304,432,186,-156
33.622,33.24,-2.73,0.84,-1.01,3.54,-5.60,-5.72,3.89,-2.12,0.58,880.00,1521.00,192.00,243.00,271.00,815.00,1266.00,1879.00,,,,,,,,,,,,1,1,0,,-3460,15208,4056,230,98,-230
33.683,33.29,-2.81,-1.01,0.85,-7.62,4.66,-4.35,3.02,-1.16,-0.33,823.00,1557.00,135.00,287.00,277.00,790.00,1307.00,1854.00,,,,,,,,,,,,1,1,0,,-3528,15088,3960,116,272,-194
33.723,33.35,-2.67,0.01,-0.13,-3.00,0.67,-0.01,-1.78,-0.53,-1.10,852.00,1535.00,154.00,266.00,332.00,757.00,1347.00,1846.00,,,,,,,,,,,,1,1,0,,-3504,15000,3920,-40,145,-231
33.787,33.40,-2.73,1.40,-1.84,5.79,-7.84,-3.90,1.15,-1.87,-0.24,911.00,1521.00,208.00,236.00,304.00,816.00,1317.00,1902.00,,,,,,,,,,,,1,1,0,,-3540,15156,4020,-22,94,-220
33.847,33.46,-2.86,-0.85,-0.31,-4.76,-1.10,-5.39,4.33,-1.29,-0.31,874.00,1596.00,175.00,299.00,263.00,795.00,1308.00,1862.00,,,,,,,,,,,,1,1,0,,-3464,15076,4076,1,123,-188
33.908,33.51,-2.73,-0.78,0.46,-7.12,5.91,-0.26,-1.02,-0.20,-1.39,837.00,1559.00,125.00,272.00,320.00,749.00,1360.00,1836.00,,,,,,,,,,,,1,1,0,,-3488,15076,4120,-63,253,-107
33.969,33.57,-2.71,0.67,-0.76,4.38,-1.93,-2.36,0.51,-1.19,-0.65,871.00,1521.00,155.00,213.00,306.00,781.00,1330.00,1872.00,,,,,,,,,,,,1,1,0,,-3476,15040,4104,-184,242,-80
34.011,33.62,-2.90,-0.16,-0.71,-0.06,-2.68,-6.38,4.94,-1.95,0.13,882.00,1570.00,175.00,259.00,259.00,813.00,1293.00,1889.00,,,,,,,,,,,,1,1,0,,-3532,15092,4212,-208,156,-89
34.094,33.68,-2.85,-1.66,0.94,-7.58,5.92,-1.93,1.30,-0.88,-0.58,829.00,1594.00,126.00,277.00,291.00,752.00,1318.00,1846.00,,,,,,,,,,,,1,1,0,,-3336,15212,4192,-84,168,-97
34.114,33.73,-2.79,0.30,-0.55,3.45,-2.43,-1.66,-0.66,-1.30,-0.84,867.00,1535.00,162.00,224.00,322.00,784.00,1347.00,1890.00,,,,,,,,,,,,1,1,0,,-3452,15108,4172,-6,160,-102
34.237,33.79,-2.97,0.07,-1.39,2.25,-5.64,-6.30,4.01,-2.47,0.33,911.00,1584.00,197.00,256.00,272.00,831.00,1291.00,1918.00,,,,,,,,,,,,1,1,0,,-3532,15040,4200,5,154,-151
34.258,33.84,-3.06,-1.62,0.22,-6.71,2.28,-4.90,3.27,-1.60,-0.47,861.00,1622.00,151.00,295.00,276.00,802.00,1327.00,1893.00,,,,,,,,,,,,1,1,0,,-3460,15160,4064,-64,32,-268
34.299,33.90,-2.92,-0.96,0.37,-3.88,0.73,-0.23,-2.09,-0.46,-1.43,844.00,1574.00,156.00,275.00,339.00,770.00,1369.00,1857.00,,,,,,,,,,,,1,1,0,,-3440,15340,4124,27,-101,-23
34.36,33.95,-2.98,1.08,-1.71,4.97,-7.56,-4.18,1.07,-1.96,-0.26,910.00,1535.00,208.00,242.00,307.00,827.00,1321.00,1910.00,,,,,,,,,,,,1,1,0,,-3624,15160,4220,-22,36,-107
34.403,34.01,-3.09,-1.04,-0.10,-4.83,-0.86,-5.15,3.83,-1.55,-0.01,867.00,1599.00,173.00,298.00,269.00,798.00,1293.00,1866.00,,,,,,,,,,,,1,1,0,,-3436,15032,4136,-44,207,-136
34.464,34.06,-2.98,-0.70,0.39,-8.44,5.35,-0.86,-0.23,-0.31,-1.12,839.00,1557.00,132.00,291.00,310.00,751.00,1343.00,1831.00,,,,,,,,,,,,1,1,0,,-3392,15080,4104,-10,197,-90
34.527,34.12,-2.95,0.74,-0.76,3.99,-3.40,-2.43,0.24,-1.32,-0.43,870.00,1517.00,169.00,225.00,311.00,789.00,1318.00,1871.00,,,,,,,,,,,,1,1,0,,-3500,15044,3872,-87,121,-154
34.588,34.17,-3.11,0.11,-0.76,0.24,-3.40,-6.01,4.82,-1.83,0.28,880.00,1555.00,181.00,261.00,259.00,804.00,1280.00,1873.00,,,,,,,,,,,,1,1,0,,-3424,15220,4000,-109,176,-111
34.609,34.23,-3.06,-1.05,0.60,-7.29,4.82,-2.23,1.59,-0.49,-0.67,835.00,1570.00,133.00,282.00,288.00,755.00,1315.00,1822.00,,,,,,,,,,,,1,1,0,,-3372,15096,4196,-56,167,-140
34.669,34.28,-3.00,0.54,-0.91,2.56,-2.92,-1.80,-0.50,-1.07,-0.78,880.00,1535.00,169.00,235.00,320.00,785.00,1337.00,1870.00,,,,,,,,,,,,1,1,0,,-3544,15236,4112,-35,193,-66
34.73,34.34,-3.12,0.17,-1.16,1.11,-4.98,-5.37,2.77,-2.12,0.23,898.00,1568.00,194.00,263.00,286.00,828.00,1290.00,1897.00,,,,,,,,,,,,1,1,0,,-3376,15072,3868,-187,138,19
34.771,34.39,-3.18,-0.79,-0.42,-5.39,-0.78,-4.46,2.21,-1.33,-0.56,878.00,1597.00,174.00,304.00,290.00,811.00,1327.00,1878.00,,,,,,,,,,,,1,1,0,,-3360,15128,4088,-108,-47,6
34.833,34.45,-3.11,-0.63,-0.51,-2.03,-1.59,-1.62,-1.52,-1.11,-1.09,880.00,1591.00,171.00,272.00,337.00,801.00,1360.00,1888.00,,,,,,,,,,,,1,1,0,,-3408,15192,4172,-10,54,44
34.895,34.50,-3.17,0.29,-1.77,3.26,-6.98,-4.39,1.20,-2.11,-0.30,926.00,1586.00,208.00,255.00,306.00,831.00,1327.00,1923.00,,,,,,,,,,,,1,1,0,,-3300,15212,4080,-3,279,-214
34.975,34.56,-3.28,-1.52,-0.40,-5.01,-1.22,-5.36,3.50,-1.94,-0.21,889.00,1643.00,177.00,303.00,275.00,812.00,1317.00,1906.00,,,,,,,,,,,,1,1,0,,-3412,15352,3736,47,230,-225
34.996,34.61,-3.25,-1.46,0.17,-9.52,9.59,-2.65,0.86,-1.42,-0.67,861.00,1614.00,107.00,271.00,302.00,783.00,1337.00,1890.00,,,,,,,,,,,,1,1,0,,-3320,15048,3896,55,183,-151
35.059,34.67,-3.26,0.04,-0.97,1.80,-3.20,-3.44,0.94,-1.56,-0.48,891.00,1568.00,174.00,244.00,305.00,806.00,1327.00,1891.00,,,,,,,,,,,,1,1,0,,-3412,15132,4144,-182,56,-262
35.1,34.72,-3.37,-0.16,-0.65,-1.57,-2.28,-5.44,3.93,-1.83,0.19,879.00,1567.00,176.00,272.00,269.00,805.00,1286.00,1877.00,,,,,,,,,,,,1,1,0,,-3424,15264,4116,-195,156,-121
35.162,34.78,-3.30,-0.76,0.23,-5.99,3.97,-1.94,0.86,-0.64,-0.72,847.00,1567.00,136.00,274.00,298.00,761.00,1322.00,1835.00,,,,,,,,,,,,1,1,0,,-3412,15092,3988,-48,244,-143
35.223,34.83,-3.22,0.89,-0.83,2.17,-2.34,-1.86,-0.36,-0.76,-0.98,871.00,1511.00,165.00,235.00,318.00,784.00,1344.00,1857.00,,,,,,,,,,,,1,1,0,,-3388,15180,4048,-94,251,-131
35.326,34.89,-3.31,1.08,-1.71,1.32,-4.86,-4.87,2.67,-1.80,0.05,910.00,1535.00,192.00,260.00,285.00,814.00,1295.00,1882.00,,,,,,,,,,,,1,1,0,,-3280,15100,3880,-16,220,-141
35.347,34.94,-3.31,-0.70,-0.13,-4.60,-0.07,-3.30,1.76,-1.16,-0.56,863.00,1579.00,165.00,289.00,291.00,784.00,1323.00,1865.00,,,,,,,,,,,,1,1,0,,-3380,15232,3992,-9,125,-162
35.389,35.00,-3.19,-0.01,-0.53,-1.71,-0.81,-1.04,-1.04,-0.64,-1.16,871.00,1553.00,163.00,263.00,325.00,773.00,1354.00,1857.00,,,,,,,,,,,,1,1,0,,-3248,15260,4152,-91,182,-159
35.451,35.05,-3.15,0.85,-1.36,3.32,-6.19,-2.28,-1.24,-1.78,-0.24,897.00,1535.00,199.00,249.00,336.00,816.00,1315.00,1895.00,,,,,,,,,,,,1,1,0,,-3244,15272,3984,116,172,-228
35.493,35.11,-3.22,-0.95,-0.26,-4.50,-0.21,-4.66,3.53,-1.60,0.01,873.00,1600.00,166.00,289.00,271.00,789.00,1293.00,1869.00,,,,,,,,,,,,1,1,0,,-3416,15328,3924,221,143,-316
35.574,35.16,-3.15,-0.72,0.14,-3.72,2.15,-1.67,0.96,-0.95,-0.64,851.00,1569.00,144.00,263.00,295.00,751.00,1324.00,1854.00,,,,,,,,,,,,1,1,0,,-3516,15076,4144,267,151,-343
35.594,35.22,-3.12,0.52,-0.88,3.26,-2.82,-2.59,0.71,-1.32,-0.57,879.00,1535.00,166.00,228.00,304.00,784.00,1328.00,1878.00,,,,,,,,,,,,1,1,0,,-3448,15144,3788,147,188,-298
35.698,35.27,-3.23,-0.33,-0.68,0.55,-2.99,-5.42,4.41,-1.89,0.07,883.00,1579.00,176.00,255.00,262.00,794.00,1296.00,1888.00,,,,,,,,,,,,1,1,0,,-3500,14964,4160,43,59,-77
35.718,35.33,-3.18,-1.33,0.54,-6.96,5.27,-2.12,1.43,-0.91,-0.74,842.00,1590.00,129.00,275.00,290.00,755.00,1330.00,1856.00,,,,,,,,,,,,1,1,0,,-3452,15148,3656,28,107,-200
35.76,35.38,-3.14,0.54,-0.91,3.79,-3.44,-2.43,0.24,-1.56,-0.77,880.00,1535.00,170.00,227.00,311.00,789.00,1348.00,1906.00,,,,,,,,,,,,1,1,0,,-3560,15328,3920,15,211,-297
35.822,35.44,-3.20,-0.54,-0.85,1.40,-4.69,-4.44,1.95,-2.11,-0.31,895.00,1600.00,190.00,258.00,294.00,816.00,1328.00,1924.00,,,,,,,,,,,,1,1,0,,-3548,15352,3620,140,40,-349
35.883,35.49,-3.24,-1.02,-0.38,-4.95,-0.06,-3.84,2.33,-1.25,-0.69,880.00,1610.00,166.00,293.00,285.00,789.00,1335.00,1879.00,,,,,,,,,,,,1,1,0,,-3452,14976,3876,6,169,-275
35.944,35.55,-3.12,-0.07,-0.47,-1.13,-0.67,-0.82,-1.23,-0.83,-1.18,869.00,1554.00,160.00,256.00,327.00,770.00,1360.00,1872.00,,,,,,,,,,,,1,1,0,,-3512,15284,3808,88,183,-277
36.006,35.60,-3.16,0.92,-1.47,2.99,-5.70,-3.99,1.62,-1.83,-0.32,901.00,1535.00,195.00,249.00,297.00,809.00,1322.00,1903.00,,,,,,,,,,,,1,1,0,,-3516,15208,3664,1,150,-143
36.067,35.66,-3.24,-0.63,-0.30,-4.40,0.55,-4.86,4.15,-1.26,-0.23,870.00,1582.00,159.00,282.00,263.00,782.00,1302.00,1856.00,,,,,,,,,,,,1,1,0,,-3576,15072,3768,23,62,-237
36.109,35.71,-3.16,-0.12,0.06,-5.13,4.80,-1.47,1.27,-0.66,-0.77,845.00,1535.00,128.00,259.00,289.00,739.00,1326.00,1839.00,,,,,,,,,,,,1,1,0,,-3432,15128,3436,121,-118,156
36.17,35.77,-3.10,0.60,-0.65,3.20,-2.24,-2.14,0.87,-1.13,-0.63,867.00,1521.00,161.00,225.00,299.00,767.00,1327.00,1866.00,,,,,,,,,,,,1,1,0,,-3348,15268,3492,175,-424,274
36.211,35.82,-3.22,0.33,-0.61,0.34,-2.39,-5.31,4.73,-1.80,0.25,869.00,1535.00,171.00,253.00,257.00,784.00,1281.00,1872.00,,,,,,,,,,,,1,1,0,,-3436,15560,3932,259,-408,110
36.273,35.88,-3.14,-0.85,0.64,-5.75,4.58,-1.74,1.81,-0.69,-0.70,830.00,1556.00,131.00,267.00,282.00,736.00,1322.00,1838.00,,,,,,,,,,,,1,1,0,,-3484,15532,3932,89,303,-589
36.333,35.93,-3.07,0.65,-0.75,2.52,-1.89,-1.74,0.12,-1.29,-0.74,871.00,1522.00,160.00,229.00,309.00,770.00,1339.00,1884.00,,,,,,,,,,,,1,1,0,,-3496,15160,3552,-132,456,-898
36.418,35.99,-3.11,-0.16,-0.67,1.77,-3.61,-3.90,2.21,-1.82,-0.31,880.00,1568.00,178.00,247.00,287.00,793.00,1321.00,1902.00,,,,,,,,,,,,1,1,0,,-3544,14984,3624,11,103,-570
36.437,36.04,-3.14,-1.01,-0.28,-4.11,-0.01,-3.69,2.87,-1.39,-0.55,875.00,1605.00,163.00,283.00,276.00,773.00,1328.00,1882.00,,,,,,,,,,,,1,1,0,,-3564,15180,3668,-14,-279,-143
36.478,36.10,-3.04,-0.58,-0.42,-2.30,0.92,-1.02,-0.59,-1.21,-1.08,875.00,1584.00,150.00,257.00,317.00,763.00,1362.00,1895.00,,,,,,,,,,,,1,1,0,,-3688,15360,3840,-37,-18,-67
36.54,36.15,-3.09,0.21,-1.60,4.68,-6.83,-4.08,2.02,-2.33,-0.22,919.00,1584.00,201.00,240.00,291.00,803.00,1327.00,1936.00,,,,,,,,,,,,1,1,0,,-3544,15340,3632,-61,283,-354
36.601,36.21,-3.20,-1.40,-0.36,-2.91,-1.51,-5.31,4.73,-1.90,-0.25,885.00,1633.00,173.00,281.00,257.00,784.00,1319.00,1905.00,,,,,,,,,,,,1,1,0,,-3340,15076,3644,-70,58,-479
36.662,36.26,-3.14,-1.52,0.21,-5.50,4.22,-2.10,1.55,-1.12,-0.74,860.00,1616.00,133.00,267.00,288.00,752.00,1335.00,1871.00,,,,,,,,,,,,1,1,0,,-3608,14976,3660,-327,10,-357
36.724,36.32,-3.11,0.43,-0.74,4.69,-2.74,-2.49,1.23,-1.31,-0.55,874.00,1535.00,161.00,215.00,295.00,770.00,1326.00,1876.00,,,,,,,,,,,,1,1,0,,-3700,15296,3836,-335,98,-106
36.828,36.37,-3.24,-0.06,-0.56,-0.25,-1.08,-5.67,5.21,-1.68,0.07,873.00,1557.00,161.00,250.00,252.00,785.00,1291.00,1872.00,,,,,,,,,,,,1,1,0,,-3584,15160,3880,-148,120,-84
36.848,36.43,-3.17,-1.11,0.68,-6.73,5.34,-1.90,2.20,-0.61,-0.66,832.00,1570.00,128.00,272.00,277.00,733.00,1317.00,1830.00,,,,,,,,,,,,1,1,0,,-3676,15308,3792,-8,163,-98
36.868,36.48,-3.04,0.68,-0.57,1.79,0.17,-0.52,-0.64,-0.87,-0.95,862.00,1513.00,145.00,223.00,315.00,749.00,1344.00,1863.00,,,,,,,,,,,,1,1,0,,-3556,15212,3740,141,146,-99
36.929,36.54,-3.09,0.87,-1.39,6.49,-6.60,-3.96,2.17,-1.74,-0.28,898.00,1535.00,192.00,222.00,288.00,796.00,1317.00,1894.00,,,,,,,,,,,,1,1,0,,-3596,15228,3652,10,100,-193
36.971,36.59,-3.17,-0.94,-0.35,-4.32,-0.60,-4.79,4.62,-1.45,-0.15,877.00,1603.00,169.00,290.00,256.00,770.00,1301.00,1866.00,,,,,,,,,,,,1,1,0,,-3568,15248,3692,-185,105,-120
37.032,36.65,-2.99,-0.62,0.06,-3.20,2.11,0.45,-1.31,-0.46,-1.30,853.00,1566.00,143.00,258.00,321.00,734.00,1360.00,1851.00,,,,,,,,,,,,1,1,0,,-3496,15304,3536,-202,222,-106
37.093,36.70,-3.01,1.14,-1.77,8.89,-7.88,-3.34,1.77,-2.39,-0.23,912.00,1534.00,197.00,209.00,291.00,785.00,1329.00,1941.00,,,,,,,,,,,,1,1,0,,-3636,15316,3708,-206,290,-148
37.154,36.76,-3.13,-0.71,-0.61,-2.13,-0.90,-5.56,5.62,-1.80,0.06,886.00,1600.00,165.00,268.00,246.00,773.00,1294.00,1881.00,,,,,,,,,,,,1,1,0,,-3508,15188,3768,-171,187,-113
37.215,36.81,-3.07,-1.55,0.72,-7.29,7.99,-1.88,2.53,-0.76,-0.67,837.00,1596.00,112.00,259.00,272.00,726.00,1321.00,1841.00,,,,,,,,,,,,1,1,0,,-3532,15196,3696,-224,92,-176
37.256,36.87,-2.99,0.52,-0.86,0.63,-0.06,-1.44,0.57,-1.24,-0.67,878.00,1534.00,150.00,235.00,300.00,752.00,1333.00,1877.00,,,,,,,,,,,,1,1,0,,-3628,15232,3720,-156,79,-226
37.317,36.92,-3.15,-0.28,-0.94,3.07,-4.76,-6.16,5.75,-2.39,0.46,895.00,1587.00,185.00,242.00,247.00,789.00,1280.00,1905.00,,,,,,,,,,,,1,1,0,,-3556,15260,3640,-67,21,-148
37.379,36.98,-3.12,-1.98,0.73,-8.37,5.89,-2.50,2.94,-0.95,-0.69,843.00,1623.00,128.00,286.00,269.00,736.00,1327.00,1856.00,,,,,,,,,,,,1,1,0,,-3572,15104,3816,-70,236,-129
37.441,37.03,-3.02,-0.17,-0.60,0.94,-0.05,-1.22,0.19,-1.11,-0.91,877.00,1566.00,149.00,232.00,305.00,753.00,1347.00,1879.00,,,,,,,,,,,,1,1,0,,-3696,15048,3852,-287,185,-107
37.543,37.09,-3.08,0.81,-1.31,4.85,-6.61,-4.12,2.04,-1.61,-0.35,895.00,1535.00,198.00,237.00,291.00,804.00,1319.00,1888.00,,,,,,,,,,,,1,1,0,,-3712,15236,3708,-374,338,308
37.565,37.14,-3.13,-0.77,-0.40,-4.48,-0.10,-4.06,3.60,-1.28,-0.24,877.00,1595.00,165.00,288.00,267.00,769.00,1303.00,1858.00,,,,,,,,,,,,1,1,0,,-3444,15244,3780,-21,-51,-40
37.605,37.20,-3.08,0.13,-0.30,-2.56,1.89,-2.13,2.54,-0.23,-1.41,858.00,1535.00,143.00,253.00,273.00,733.00,1362.00,1839.00,,,,,,,,,,,,1,1,0,,-3504,15300,3748,324,22,-104
37.665,37.25,-3.06,1.76,-1.88,5.14,-6.23,-2.78,1.33,-1.61,-0.35,907.00,1501.00,193.00,232.00,295.00,777.00,1319.00,1888.00,,,,,,,,,,,,1,1,0,,-3564,15276,3680,147,188,-171
37.706,37.31,-3.18,-0.47,-0.38,-0.66,-1.50,-5.47,5.97,-1.63,0.19,871.00,1575.00,166.00,257.00,241.00,763.00,1281.00,1862.00,,,,,,,,,,,,1,1,0,,-3600,15236,3840,-74,354,-148
37.767,37.36,-3.08,-0.85,0.73,-6.84,5.23,-1.07,2.12,-0.29,-0.74,826.00,1552.00,129.00,274.00,274.00,711.00,1315.00,1811.00,,,,,,,,,,,,1,1,0,,-3640,15084,3680,77,257,-186
37.83,37.42,-2.96,1.12,-0.79,6.41,-1.64,-0.72,0.20,-0.80,-0.76,865.00,1495.00,147.00,195.00,302.00,738.00,1329.00,1849.00,,,,,,,,,,,,1,1,0,,-3576,15352,3676,171,156,-232
37.891,37.47,-3.08,0.03,-0.74,0.53,-2.66,-5.47,5.59,-1.87,0.35,880.00,1559.00,173.00,253.00,246.00,771.00,1276.00,1872.00,,,,,,,,,,,,1,1,0,,-3592,15032,3696,203,130,-339
37.912,37.53,-3.05,-1.31,0.91,-8.19,7.49,-2.30,3.15,-0.53,-0.67,825.00,1573.00,117.00,272.00,265.00,726.00,1316.00,1825.00,,,,,,,,,,,,1,1,0,,-3548,15168,3376,222,2,-370
37.974,37.58,-2.89,0.53,-0.65,2.72,-0.52,-0.00,-0.70,-0.85,-0.91,868.00,1525.00,148.00,219.00,313.00,735.00,1341.00,1860.00,,,,,,,,,,,,1,1,0,,-3624,15212,3388,429,-90,14
38.015,37.64,-2.95,0.38,-1.35,3.99,-4.87,-4.04,2.85,-1.81,-0.41,904.00,1563.00,183.00,234.00,278.00,784.00,1328.00,1906.00,,,,,,,,,,,,1,1,0,,-3716,15300,3484,743,-214,436
38.096,37.69,-3.00,-1.03,-0.50,-6.30,1.31,-4.02,4.08,-1.50,-0.33,886.00,1616.00,158.00,298.00,260.00,758.00,1315.00,1879.00,,,,,,,,,,,,1,1,0,,-3656,15652,3580,162,287,193
38.137,37.75,-2.83,-0.85,-0.06,-3.57,4.28,0.38,-0.65,-0.78,-1.29,862.00,1585.00,128.00,247.00,310.00,723.00,1367.00,1874.00,,,,,,,,,,,,1,1,0,,-3512,15500,3256,-358,855,-468
38.199,37.80,-2.83,0.94,-1.98,8.63,-7.31,-2.80,1.03,-1.89,-0.38,926.00,1555.00,192.00,208.00,300.00,784.00,1328.00,1911.00,,,,,,,,,,,,1,1,0,,-3532,15136,3268,-613,572,-973
38.26,37.86,-2.95,0.09,-0.65,-0.47,-0.30,-5.21,5.88,-1.61,0.29,875.00,1552.00,155.00,247.00,241.00,757.00,1274.00,1856.00,,,,,,,,,,,,1,1,0,,-3476,15020,3164,125,-56,-222
38.301,37.91,-2.85,-0.55,0.70,-6.53,7.74,-0.87,2.19,-0.27,-0.74,823.00,1535.00,112.00,253.00,272.00,704.00,1315.00,1810.00,,,,,,,,,,,,1,1,0,,-3888,15300,3992,723,807,590
38.342,37.97,-2.76,1.35,-0.82,6.98,-1.70,-1.00,1.17,-0.79,-0.70,863.00,1483.00,146.00,191.00,288.00,727.00,1324.00,1845.00,,,,,,,,,,,,1,1,0,,-3644,15328,3360,641,395,406
38.404,38.02,-2.86,0.81,-0.87,4.46,-4.09,-4.86,5.61,-1.68,0.37,874.00,1517.00,174.00,225.00,243.00,752.00,1270.00,1857.00,,,,,,,,,,,,1,1,0,,-3340,15568,2848,-14,139,-169
38.465,38.08,-2.81,-0.79,0.62,-7.24,7.49,-1.77,3.47,-0.14,-0.78,830.00,1553.00,115.00,262.00,258.00,705.00,1314.00,1802.00,,,,,,,,,,,,1,1,0,,-3392,15424,3120,-710,-129,-672
38.528,38.13,-2.64,0.83,-0.43,3.65,-0.33,0.52,-0.33,-0.54,-0.96,853.00,1498.00,144.00,210.00,304.00,713.00,1337.00,1840.00,,,,,,,,,,,,1,1,0,,-3420,15116,3212,-744,-226,-602
38.632,38.19,-2.65,1.18,-1.41,6.73,-6.09,-2.75,1.57,-1.58,-0.33,894.00,1517.00,186.00,217.00,291.00,771.00,1317.00,1885.00,,,,,,,,,,,,1,1,0,,-3648,15324,3396,-184,-212,-27
38.652,38.24,-2.70,-0.63,-0.43,-3.63,0.76,-3.76,4.50,-1.16,-0.38,876.00,1587.00,155.00,272.00,253.00,742.00,1310.00,1856.00,,,,,,,,,,,,1,1,0,,-3656,15408,3444,-144,-217,17
38.673,38.30,-2.51,-0.02,-0.08,-2.52,3.64,1.05,-0.75,-0.30,-1.36,850.00,1535.00,130.00,241.00,308.00,706.00,1360.00,1842.00,,,,,,,,,,,,1,1,0,,-3584,15212,3408,-329,-40,-214
38.734,38.35,-2.51,1.29,-1.82,8.94,-7.42,-2.42,1.72,-1.86,-0.39,912.00,1527.00,192.00,206.00,287.00,758.00,1328.00,1909.00,,,,,,,,,,,,1,1,0,,-3560,15308,3552,-472,129,-281
38.797,38.41,-2.65,-0.34,-0.61,0.81,-1.43,-5.33,6.31,-1.80,0.16,880.00,1577.00,161.00,242.00,236.00,752.00,1287.00,1876.00,,,,,,,,,,,,1,1,0,,-3632,15300,3404,-586,181,-233
38.858,38.46,-2.56,-1.29,0.54,-6.91,7.87,-0.92,2.20,-0.80,-0.58,841.00,1587.00,112.00,256.00,272.00,705.00,1316.00,1840.00,,,,,,,,,,,,1,1,0,,-3552,15232,3688,-355,94,-324
38.899,38.52,-2.48,0.50,-0.85,6.46,-1.90,-0.95,0.91,-1.23,-0.78,878.00,1535.00,149.00,196.00,292.00,731.00,1341.00,1882.00,,,,,,,,,,,,1,1,0,,-3652,15052,3584,-232,81,-267
39.003,38.57,-2.66,-0.18,-1.04,2.84,-3.01,-5.96,6.21,-2.08,0.29,898.00,1585.00,169.00,233.00,240.00,773.00,1285.00,1891.00,,,,,,,,,,,,1,1,0,,-3744,15196,3768,-93,83,-287
39.024,38.63,-2.63,-1.39,0.91,-8.29,8.33,-2.18,3.75,-0.32,-0.70,826.00,1578.00,112.00,267.00,256.00,711.00,1313.00,1811.00,,,,,,,,,,,,1,1,0,,-3580,15164,3636,-99,210,-145
39.066,38.68,-2.50,0.24,0.08,2.65,-0.24,0.09,-0.07,-0.57,-0.88,839.00,1513.00,146.00,218.00,302.00,720.00,1332.00,1838.00,,,,,,,,,,,,1,1,0,,-3692,15152,3648,-11,168,-195
39.128,38.74,-2.55,0.97,-1.18,6.21,-6.01,-3.62,3.04,-1.63,-0.21,886.00,1520.00,187.00,221.00,273.00,767.00,1309.00,1882.00,,,,,,,,,,,,1,1,0,,-3700,15256,3680,-54,196,-148
39.169,38.79,-2.62,-0.46,-0.30,-3.61,0.05,-3.83,4.74,-0.92,-0.26,867.00,1571.00,161.00,277.00,250.00,739.00,1296.00,1833.00,,,,,,,,,,,,1,1,0,,-3724,15208,3796,-1,246,-37
39.23,38.85,-2.42,-0.02,-0.08,-2.63,3.96,1.40,-0.63,-0.05,-1.35,850.00,1535.00,128.00,240.00,304.00,694.00,1353.00,1823.00,,,,,,,,,,,,1,1,0,,-3692,15548,3336,52,223,24
39.293,38.90,-2.41,1.77,-1.84,10.99,-8.01,-2.39,1.97,-1.34,-0.43,905.00,1499.00,191.00,193.00,283.00,752.00,1318.00,1872.00,,,,,,,,,,,,1,1,0,,-3672,15340,3828,32,349,182
39.435,38.96,-2.54,0.40,-0.59,0.95,-1.02,-5.03,6.37,-1.43,0.24,867.00,1530.00,157.00,238.00,234.00,742.00,1273.00,1845.00,,,,,,,,,,,,1,1,0,,-3656,15388,3696,96,524,308
39.456,39.01,-2.46,-0.47,0.58,-6.13,7.61,-0.95,2.84,-0.32,-0.67,827.00,1535.00,112.00,250.00,263.00,694.00,1311.00,1810.00,,,,,,,,,,,,1,1,0,,-3376,15180,3604,183,509,13
39.476,39.07,-2.36,0.94,-0.66,7.67,-1.93,-0.40,0.66,-0.86,-0.72,862.00,1501.00,146.00,187.00,293.00,720.00,1327.00,1851.00,,,,,,,,,,,,1,1,0,,-3448,15304,3372,-33,83,-347
39.497,39.12,-2.52,0.59,-0.99,5.49,-4.44,-5.53,6.07,-2.01,0.54,883.00,1535.00,174.00,218.00,240.00,763.00,1266.00,1873.00,,,,,,,,,,,,1,1,0,,-3432,15644,3144,-62,234,-69
39.556,39.18,-2.49,-1.03,0.86,-8.23,7.82,-1.85,2.58,-0.40,-0.84,823.00,1558.00,115.00,270.00,271.00,724.00,1325.00,1824.00,,,,,,,,,,,,1,1,0,,-3296,14616,3548,-216,134,81
39.617,39.23,-2.37,0.35,-0.14,-0.36,0.77,-0.13,-1.06,-0.89,-1.09,847.00,1515.00,146.00,239.00,320.00,746.00,1355.00,1872.00,,,,,,,,,,,,1,1,0,,-3580,15072,3436,291,-389,602
39.679,39.29,-2.46,0.78,-1.26,6.62,-7.11,-4.17,2.24,-2.13,-0.30,893.00,1535.00,197.00,224.00,288.00,801.00,1328.00,1925.00,,,,,,,,,,,,1,1,0,,-3436,15516,3376,891,-457,986
39.741,39.34,-2.55,-1.18,-0.29,-4.82,0.01,-4.21,4.36,-1.33,-0.45,878.00,1616.00,165.00,291.00,257.00,758.00,1319.00,1872.00,,,,,,,,,,,,1,1,0,,-3344,15932,3600,650,-359,279
39.803,39.40,-2.34,-0.12,0.06,-2.38,3.59,1.64,-1.25,0.03,-1.40,845.00,1535.00,130.00,240.00,313.00,699.00,1355.00,1820.00,,,,,,,,,,,,1,1,0,,-3204,15236,2676,-111,-118,-53
