Time_Host,Time_Arduino,easingdata,CH1_Oxy,CH1_Deoxy,CH2_Oxy,CH2_Deoxy,CH3_Oxy,CH3_Deoxy,CH4_Oxy,CH4_Deoxy,CH1_PD730,CH1_PD850,CH2_PD730,CH2_PD850,CH3_PD730,CH3_PD850,CH4_PD730,CH4_PD850,Answers,airplane_playstate,trail_times,frameRate,Airplane X,Airplane Y,Correct,Wrong,Slow,AnswerRate,CorrectRate,VFTstates,VFTchoose,VFTCount,Culfstates,ax,ay,az,gx,gy,gz
1.225,0.04,0.00,0.00,0.00,0.00,0.00,0.00,0.00,0.00,0.00,351.00,872.00,454.00,505.00,816.00,1980.00,2979.00,4095.00,,,,,,,,,,,,0,0,0,,-2928,15764,2024,185,52,58
1.246,0.10,0.00,0.00,0.00,0.00,0.00,0.00,0.00,0.00,0.00,350.00,911.00,470.00,573.00,741.00,2001.00,2901.00,4095.00,,,,,,,,,,,,0,0,0,,-2972,15752,1612,62,127,202
1.267,0.15,0.00,0.00,0.00,0.00,0.00,0.00,0.00,0.00,0.00,295.00,924.00,389.00,589.00,803.00,1917.00,2455.00,4095.00,,,,,,,,,,,,0,0,0,,-2916,15888,1732,35,109,249
1.287,0.21,0.00,0.00,0.00,0.00,0.00,0.00,0.00,0.00,0.00,343.00,837.00,442.00,508.00,835.00,1975.00,3222.00,4095.00,,,,,,,,,,,,0,0,0,,-2796,15840,1580,-113,3,306
1.308,0.26,0.00,0.00,0.00,0.00,0.00,0.00,0.00,0.00,0.00,370.00,921.00,483.00,561.00,753.00,2015.00,2516.00,4095.00,,,,,,,,,,,,0,0,0,,-2684,15920,1604,57,57,217
1.329,0.32,0.00,0.00,0.00,0.00,0.00,0.00,0.00,0.00,0.00,322.00,943.00,441.00,609.00,781.00,1981.00,2864.00,4095.00,,,,,,,,,,,,0,0,0,,-2600,15952,1556,-70,142,164
1.35,1.06,0.00,0.00,0.00,0.00,0.00,0.00,0.00,0.00,0.00,382.00,927.00,511.00,561.00,799.00,2061.00,2427.00,4095.00,,,,,,,,,,,,0,0,0,,-2780,15832,1476,15,361,66
1.371,1.12,0.00,0.00,0.00,0.00,0.00,0.00,0.00,0.00,0.00,331.00,976.00,459.00,639.00,773.00,2002.00,3211.00,4095.00,,,,,,,,,,,,0,0,0,,-2772,15912,1524,-29,352,58
1.413,1.17,0.00,0.00,0.00,0.00,0.00,0.00,0.00,0.00,0.00,345.00,917.00,415.00,582.00,855.00,1959.00,2814.00,4095.00,,,,,,,,,,,,0,0,0,,-2696,15936,1448,0,232,-9
1.475,1.23,0.00,0.00,0.00,0.00,0.00,0.00,0.00,0.00,0.00,402.00,903.00,501.00,528.00,816.00,2057.00,2663.00,4095.00,,,,,,,,,,,,0,0,0,,-2604,15968,1528,21,150,-89
1.581,1.28,-0.10,-2.12,1.42,-1.21,-0.05,-1.93,2.20,2.05,-3.02,336.00,956.00,468.00,594.00,733.00,2030.00,3183.00,4095.00,,,,,,,,,,,,0,0,0,,-2556,15912,1632,-72,136,-178
1.601,1.34,-0.06,-3.09,3.35,-3.96,4.00,0.63,-0.25,-2.05,3.02,308.00,943.00,395.00,594.00,799.00,1959.00,2472.00,4095.00,,,,,,,,,,,,0,0,0,,-2756,15740,1492,-24,57,-157
1.661,1.39,-0.06,0.55,0.14,2.25,-0.41,0.02,-0.55,1.83,-2.70,343.00,890.00,448.00,523.00,821.00,2023.00,3141.00,4095.00,,,,,,,,,,,,0,0,0,,-2552,15960,1460,-66,91,-135
1.683,1.45,-0.14,-0.68,-0.59,-0.24,-1.23,-1.70,1.43,0.34,-0.50,365.00,953.00,490.00,590.00,761.00,2053.00,2864.00,4095.00,,,,,,,,,,,,0,0,0,,-2716,15996,1592,-100,101,-177
1.743,1.50,-0.10,-4.33,4.75,-5.23,3.92,0.62,-0.27,-1.50,2.22,292.00,954.00,406.00,626.00,800.00,1961.00,2557.00,4095.00,,,,,,,,,,,,0,0,0,,-2684,15788,1576,-143,79,-53
1.784,1.56,-0.05,2.04,-0.94,1.99,-0.73,0.89,-1.40,2.45,-3.62,354.00,864.00,458.00,533.00,846.00,1999.00,3263.00,4095.00,,,,,,,,,,,,0,0,0,,-2608,15968,1448,-96,152,21
1.845,1.61,-0.08,0.65,-1.64,1.37,-1.99,-0.69,0.31,-1.97,2.90,377.00,930.00,496.00,565.00,794.00,2033.00,2485.00,4095.00,,,,,,,,,,,,0,0,0,,-2636,15920,1584,-92,173,-32
1.95,1.67,-0.09,-2.77,2.14,-3.46,1.55,-0.24,0.39,1.19,-1.76,327.00,962.00,447.00,622.00,784.00,1993.00,3019.00,4095.00,,,,,,,,,,,,0,0,0,,-2520,15944,1336,-56,195,-84
1.971,1.72,-0.00,0.21,-0.22,-1.33,1.34,1.66,-2.02,1.03,-1.52,352.00,911.00,435.00,575.00,863.00,1972.00,2989.00,4095.00,,,,,,,,,,,,0,0,0,,-2516,16040,1532,38,137,-129
2.013,1.78,-0.05,1.71,-3.09,2.68,-2.91,-0.99,0.25,-2.04,3.01,400.00,927.00,509.00,550.00,801.00,2061.00,2474.00,4095.00,,,,,,,,,,,,0,0,0,,-2512,15908,1452,34,83,-198
2.056,1.83,-0.10,-3.07,1.63,-3.33,1.18,-1.09,1.32,2.34,-3.45,338.00,987.00,455.00,625.00,757.00,2010.00,3241.00,4095.00,,,,,,,,,,,,0,0,0,,-2668,15980,1460,1,58,-250
2.119,1.89,-0.05,-1.96,2.21,-3.51,3.53,0.98,-0.83,-1.30,1.92,321.00,930.00,402.00,591.00,819.00,1962.00,2589.00,4095.00,,,,,,,,,,,,0,0,0,,-2620,15892,1468,23,103,-230
2.18,1.94,-0.04,1.20,-1.02,2.57,-1.17,0.13,-0.68,0.52,-0.76,361.00,895.00,464.00,527.00,825.00,2021.00,2896.00,4095.00,,,,,,,,,,,,0,0,0,,-2668,15928,1484,16,107,-193
2.241,2.00,-0.13,-1.38,0.68,-0.72,-0.65,-1.87,1.98,1.13,-1.67,345.00,947.00,479.00,592.00,741.00,2037.00,3008.00,4095.00,,,,,,,,,,,,0,0,0,,-2620,15900,1352,-86,118,-162
2.342,2.05,-0.06,-4.12,4.56,-4.88,4.13,1.32,-0.83,-2.20,3.25,294.00,951.00,399.00,614.00,814.00,1936.00,2449.00,4095.00,,,,,,,,,,,,0,0,0,,-2612,15936,1428,-98,162,-163
2.363,2.11,-0.04,1.10,-0.63,2.77,-1.66,0.25,-0.98,2.49,-3.67,354.00,889.00,475.00,530.00,837.00,2028.00,3271.00,4095.00,,,,,,,,,,,,0,0,0,,-2648,15912,1456,-89,75,-147
2.424,2.16,-0.15,-0.62,-1.11,0.80,-2.06,-2.21,1.82,-1.03,1.52,375.00,964.00,503.00,579.00,752.00,2073.00,2633.00,4095.00,,,,,,,,,,,,0,0,0,,-2640,16008,1556,-110,113,-34
2.445,2.22,-0.16,-4.69,4.44,-5.52,3.53,-0.33,0.07,0.00,-0.01,299.00,976.00,417.00,640.00,799.00,2017.00,2806.00,4095.00,,,,,,,,,,,,0,0,0,,-2516,15996,1476,-123,172,-302
2.507,2.27,-0.10,0.02,-0.47,-0.90,0.44,1.01,-1.54,1.78,-2.62,358.00,924.00,453.00,579.00,851.00,1998.00,3130.00,4095.00,,,,,,,,,,,,0,0,0,,-2736,15896,1436,-225,62,-268
2.568,2.33,-0.15,1.08,-2.83,1.86,-2.71,-1.10,0.33,-2.43,3.58,399.00,944.00,511.00,565.00,799.00,2065.00,2415.00,4095.00,,,,,,,,,,,,0,0,0,,-2744,15940,1504,-115,-44,-137
2.629,2.38,-0.17,-3.76,2.53,-4.41,1.96,-0.60,0.77,2.21,-3.26,326.00,990.00,445.00,639.00,773.00,2001.00,3215.00,4095.00,,,,,,,,,,,,0,0,0,,-2536,15944,1560,-16,135,-114
2.692,2.44,-0.07,-0.28,0.42,-2.11,2.29,1.91,-1.94,-0.13,0.20,343.00,913.00,419.00,578.00,855.00,1948.00,2782.00,4095.00,,,,,,,,,,,,0,0,0,,-2748,15944,1480,-4,242,-130
2.733,2.49,-0.09,2.39,-3.32,3.94,-3.04,-0.39,-0.16,-0.72,1.07,400.00,908.00,501.00,525.00,810.00,2035.00,2683.00,4095.00,,,,,,,,,,,,0,0,0,,-2624,15928,1316,-23,167,-112
2.773,2.55,-0.15,-1.74,1.13,-1.09,0.03,-1.34,1.68,1.87,-2.76,339.00,949.00,465.00,590.00,746.00,2011.00,3148.00,4095.00,,,,,,,,,,,,0,0,0,,-2608,16012,1368,-68,78,-117
2.856,2.60,-0.07,-2.49,2.80,-4.49,4.85,1.37,-0.96,-2.24,3.31,314.00,935.00,381.00,593.00,819.00,1939.00,2443.00,4095.00,,,,,,,,,,,,0,0,0,,-2644,15988,1528,-37,124,-123
2.899,2.66,-0.06,1.20,-0.82,2.45,-1.12,0.24,-0.58,1.89,-2.79,357.00,890.00,464.00,529.00,819.00,2007.00,3152.00,4095.00,,,,,,,,,,,,0,0,0,,-2484,15912,1268,-60,182,-157
2.939,2.71,-0.15,-0.48,-0.61,-0.33,-0.78,-1.80,1.86,0.03,-0.04,364.00,946.00,479.00,585.00,745.00,2038.00,2810.00,4095.00,,,,,,,,,,,,0,0,0,,-2660,16004,1456,-63,128,-162
3.043,2.77,-0.09,-5.02,5.11,-5.42,4.26,0.89,-0.53,-1.17,1.73,290.00,971.00,400.00,625.00,807.00,1953.00,2610.00,4095.00,,,,,,,,,,,,0,0,0,,-2572,15980,1452,-120,130,-140
3.063,2.82,-0.05,1.58,-1.00,1.34,-0.39,0.74,-1.28,2.35,-3.47,358.00,881.00,455.00,542.00,843.00,2005.00,3243.00,4095.00,,,,,,,,,,,,0,0,0,,-2688,16016,1364,-73,157,-129
3.105,2.88,-0.10,-0.31,-1.22,0.90,-2.20,-1.08,0.32,-2.06,3.04,375.00,955.00,506.00,579.00,799.00,2064.00,2470.00,4095.00,,,,,,,,,,,,0,0,0,,-2556,15908,1424,-130,96,-151
3.166,2.93,-0.12,-3.68,2.11,-4.16,1.46,-0.40,0.23,1.43,-2.10,333.00,998.00,455.00,641.00,793.00,2014.00,3063.00,4095.00,,,,,,,,,,,,0,0,0,,-2664,15920,1380,-62,110,-119
3.228,2.99,-0.06,-0.56,-0.02,-1.97,1.38,1.12,-1.84,0.81,-1.20,353.00,934.00,439.00,589.00,863.00,2005.00,2949.00,4095.00,,,,,,,,,,,,0,0,0,,-2444,16108,1356,-23,168,-106
3.268,3.04,-0.10,0.78,-2.82,2.50,-3.53,-1.02,-0.02,-1.79,2.64,401.00,955.00,528.00,563.00,813.00,2078.00,2512.00,4095.00,,,,,,,,,,,,0,0,0,,-2552,15940,1292,-82,156,-266
3.329,3.10,-0.16,-3.52,1.62,-3.84,1.11,-1.25,1.55,2.31,-3.40,341.00,1005.00,461.00,639.00,750.00,2011.00,3234.00,4095.00,,,,,,,,,,,,0,0,0,,-2688,15852,1368,-155,66,-206
3.432,3.15,-0.10,-2.10,1.97,-3.51,3.53,1.14,-0.70,-1.58,2.33,326.00,941.00,402.00,591.00,811.00,1943.00,2545.00,4095.00,,,,,,,,,,,,0,0,0,,-2680,15880,1568,-66,92,-149
3.453,3.21,-0.08,1.17,-1.06,2.51,-1.15,0.15,-0.32,0.69,-1.02,362.00,897.00,464.00,528.00,809.00,2000.00,2928.00,4095.00,,,,,,,,,,,,0,0,0,,-2756,15980,1296,-53,158,-184
3.493,3.26,-0.16,-0.87,0.09,-0.83,-0.41,-1.61,2.02,0.97,-1.43,353.00,943.00,474.00,591.00,736.00,2014.00,2978.00,4095.00,,,,,,,,,,,,0,0,0,,-2568,15916,1408,23,177,-150
3.556,3.32,-0.09,-3.34,3.80,-4.54,4.25,1.22,-0.54,-2.20,3.25,302.00,941.00,394.00,604.00,803.00,1929.00,2449.00,4095.00,,,,,,,,,,,,0,0,0,,-2684,15932,1288,-117,138,-172
3.599,3.37,-0.05,1.54,-0.51,3.37,-1.19,0.80,-1.06,2.36,-3.48,349.00,871.00,458.00,511.00,832.00,1988.00,3245.00,4095.00,,,,,,,,,,,,0,0,0,,-2568,15988,1212,-150,103,-133
3.658,3.43,-0.13,-0.10,-1.09,0.69,-1.76,-1.71,1.80,-1.49,2.20,371.00,944.00,496.00,577.00,746.00,2034.00,2559.00,4095.00,,,,,,,,,,,,0,0,0,,-2536,16000,1492,-42,109,-185
3.781,3.48,-0.12,-4.02,3.91,-4.61,3.13,0.07,0.12,0.14,-0.21,304.00,964.00,419.00,624.00,791.00,1983.00,2830.00,4095.00,,,,,,,,,,,,0,0,0,,-2680,15976,1312,-140,176,-213
3.801,3.54,-0.05,0.70,-1.11,-1.14,1.19,1.24,-1.67,1.60,-2.37,366.00,915.00,437.00,573.00,853.00,1986.00,3097.00,4095.00,,,,,,,,,,,,0,0,0,,-2752,15956,1272,-27,97,-189
3.843,3.59,-0.11,1.00,-2.76,2.21,-2.83,-1.24,0.56,-2.47,3.64,398.00,945.00,511.00,559.00,791.00,2064.00,2409.00,4095.00,,,,,,,,,,,,0,0,0,,-2644,15852,1336,-149,150,-138
3.905,3.65,-0.14,-3.40,1.85,-4.18,1.55,-0.66,0.81,2.20,-3.25,336.00,994.00,453.00,640.00,772.00,2003.00,3213.00,4095.00,,,,,,,,,,,,0,0,0,,-2624,15956,1420,-90,227,-108
3.989,3.70,-0.04,-1.12,0.81,-2.66,2.21,1.78,-1.96,-0.41,0.60,341.00,934.00,425.00,592.00,858.00,1959.00,2736.00,4095.00,,,,,,,,,,,,0,0,0,,-2612,16120,1260,-103,110,-174
4.009,3.76,-0.03,2.02,-3.47,2.74,-2.45,0.27,-0.88,-0.46,0.69,406.00,925.00,496.00,542.00,832.00,2021.00,2726.00,4095.00,,,,,,,,,,,,0,0,0,,-2588,15852,1468,-67,82,-179
4.051,3.81,-0.10,-2.05,0.96,-1.35,-0.28,-1.47,1.55,1.72,-2.54,344.00,965.00,475.00,601.00,753.00,2028.00,3120.00,4095.00,,,,,,,,,,,,0,0,0,,-2640,15912,1480,20,181,-6
4.153,3.87,-0.05,-3.69,3.49,-5.01,4.08,0.91,-0.67,-2.39,3.52,309.00,962.00,401.00,618.00,813.00,1959.00,2421.00,4095.00,,,,,,,,,,,,0,0,0,,-2528,16188,1480,92,302,-224
4.174,3.92,-0.07,0.28,-0.61,2.10,-0.89,-0.49,0.59,1.94,-2.86,359.00,918.00,461.00,533.00,779.00,2002.00,3162.00,4095.00,,,,,,,,,,,,0,0,0,,-2620,15900,1192,83,173,-193
4.235,3.98,-0.14,-0.96,0.01,-0.13,-0.88,-1.42,1.60,-0.26,0.39,355.00,948.00,480.00,582.00,750.00,2021.00,2760.00,4095.00,,,,,,,,,,,,0,0,0,,-2708,15924,1204,172,87,-107
4.276,4.03,-0.08,-4.86,5.58,-5.37,4.24,0.93,-0.15,-1.08,1.60,282.00,953.00,400.00,624.00,790.00,1930.00,2624.00,4095.00,,,,,,,,,,,,0,0,0,,-2624,15948,1192,111,267,-34
4.338,4.09,-0.02,2.01,-0.98,1.64,-0.29,1.11,-1.25,2.02,-2.98,355.00,866.00,450.00,534.00,836.00,1974.00,3177.00,4095.00,,,,,,,,,,,,0,0,0,,-2584,15984,1088,-14,244,-84
4.4,4.14,-0.06,0.16,-1.47,1.26,-1.96,-0.66,0.48,-2.41,3.55,377.00,944.00,496.00,567.00,786.00,2021.00,2418.00,4095.00,,,,,,,,,,,,0,0,0,,-2512,15904,1044,-47,108,-95
4.46,4.20,-0.05,-3.39,2.18,-3.79,1.62,0.01,0.40,1.39,-2.06,330.00,985.00,448.00,629.00,780.00,1973.00,3057.00,4095.00,,,,,,,,,,,,0,0,0,,-2640,16040,1168,-8,-2,-141
4.522,4.25,0.04,-0.13,0.16,-0.94,1.29,1.78,-1.78,0.43,-0.64,347.00,914.00,433.00,567.00,850.00,1950.00,2881.00,4095.00,,,,,,,,,,,,0,0,0,,-2604,16040,1284,0,134,-202
4.542,4.31,-0.00,1.52,-2.89,2.97,-2.94,-0.75,0.42,-1.75,2.57,397.00,929.00,507.00,544.00,790.00,2032.00,2519.00,4095.00,,,,,,,,,,,,0,0,0,,-2600,16000,1096,-72,152,-229
4.604,4.36,-0.05,-3.10,1.75,-3.47,1.15,-0.95,1.40,2.05,-3.02,336.00,985.00,457.00,629.00,752.00,1995.00,3183.00,4095.00,,,,,,,,,,,,0,0,0,,-2572,15952,1144,-10,58,-198
4.644,4.42,0.02,-1.98,2.27,-3.70,3.68,1.41,-0.90,-1.86,2.75,320.00,929.00,400.00,593.00,816.00,1933.00,2501.00,4095.00,,,,,,,,,,,,0,0,0,,-2616,15992,1216,-76,-6,-170
4.706,4.47,0.04,0.22,-0.49,2.51,-1.15,0.34,-0.55,0.95,-1.40,357.00,917.00,464.00,528.00,816.00,1997.00,2974.00,4095.00,,,,,,,,,,,,0,0,0,,-2528,15932,1340,-117,187,-147
4.768,4.53,-0.04,-1.12,0.33,-0.82,-0.50,-1.61,1.94,0.63,-0.93,350.00,946.00,476.00,592.00,739.00,2018.00,2917.00,4095.00,,,,,,,,,,,,0,0,0,,-2728,15996,1120,-216,222,-150
4.809,4.58,0.01,-3.96,4.01,-4.77,3.91,0.91,-0.42,-2.09,3.08,302.00,959.00,403.00,615.00,802.00,1946.00,2466.00,4095.00,,,,,,,,,,,,0,0,0,,-2548,16008,1176,-62,90,-146
4.91,4.64,0.05,1.44,-1.00,1.34,-0.39,0.88,-1.37,2.37,-3.49,359.00,886.00,455.00,542.00,845.00,1999.00,3246.00,4095.00,,,,,,,,,,,,0,0,0,,-2640,16052,1116,13,78,-99
4.932,4.69,-0.04,-0.10,-1.48,0.30,-1.71,-1.73,1.47,-1.57,2.32,379.00,954.00,498.00,585.00,760.00,2054.00,2546.00,4095.00,,,,,,,,,,,,0,0,0,,-2568,16036,1280,-102,179,-69
4.994,4.75,-0.04,-3.41,2.58,-3.92,2.17,-0.02,0.27,0.35,-0.51,323.00,975.00,436.00,623.00,786.00,1982.00,2866.00,4095.00,,,,,,,,,,,,0,0,0,,-2520,15932,1268,-73,170,-178
5.035,4.80,0.03,0.27,-0.56,-0.85,0.76,1.32,-1.41,1.30,-1.91,358.00,917.00,445.00,573.00,840.00,1966.00,3039.00,4095.00,,,,,,,,,,,,0,0,0,,-2624,15912,1196,86,97,-108
5.097,4.86,-0.01,1.50,-3.02,2.15,-2.81,-0.79,0.53,-2.56,3.78,400.00,933.00,511.00,560.00,786.00,2029.00,2395.00,4095.00,,,,,,,,,,,,0,0,0,,-2592,16072,1160,36,57,-118
5.159,4.91,-0.03,-3.24,2.19,-3.82,1.55,-0.32,0.94,2.11,-3.11,329.00,979.00,450.00,631.00,762.00,1970.00,3195.00,4095.00,,,,,,,,,,,,0,0,0,,-2580,16100,1156,67,136,-163
5.2,4.97,0.08,-0.80,1.14,-3.02,3.32,2.05,-1.85,-0.80,1.18,333.00,914.00,403.00,583.00,849.00,1933.00,2670.00,4095.00,,,,,,,,,,,,0,0,0,,-2596,15964,1072,107,71,-196
5.264,5.02,0.10,1.95,-2.46,4.33,-2.61,0.53,-0.52,-0.39,0.57,385.00,903.00,486.00,511.00,812.00,1981.00,2739.00,4095.00,,,,,,,,,,,,0,0,0,,-2648,15884,852,60,64,-159
5.325,5.08,0.05,-1.15,0.50,-0.54,-0.08,-0.96,1.45,1.36,-2.01,347.00,943.00,463.00,579.00,750.00,1993.00,3051.00,4095.00,,,,,,,,,,,,0,0,0,,-2600,15928,924,-184,168,-149
5.388,5.13,0.12,-2.98,3.56,-4.12,4.06,1.49,-0.80,-2.48,3.66,304.00,934.00,395.00,597.00,810.00,1921.00,2407.00,4095.00,,,,,,,,,,,,0,0,0,,-2580,15996,928,-368,220,-132
5.448,5.19,0.14,1.34,-0.81,4.70,-4.30,0.53,-0.63,1.90,-2.80,356.00,885.00,529.00,527.00,817.00,1987.00,3153.00,4095.00,,,,,,,,,,,,0,0,0,,-2596,15976,1116,-254,37,-188
5.509,5.24,0.06,-0.63,-0.36,-0.17,-0.75,-1.54,1.82,-0.49,0.73,360.00,945.00,477.00,581.00,743.00,2019.00,2721.00,4095.00,,,,,,,,,,,,0,0,0,,-2764,15824,1380,-96,68,-113
5.55,5.30,0.11,-5.11,5.40,-5.26,4.21,1.09,-0.59,-0.70,1.03,286.00,967.00,400.00,622.00,807.00,1941.00,2687.00,4095.00,,,,,,,,,,,,0,0,0,,-2512,16076,1240,30,209,-27
5.61,5.35,0.16,0.24,-0.39,-0.17,0.61,1.09,-1.36,1.90,-2.80,355.00,914.00,443.00,560.00,841.00,1981.00,3153.00,4095.00,,,,,,,,,,,,0,0,0,,-2548,16044,1192,-70,180,-138
5.631,5.41,0.12,-0.02,-1.61,1.49,-2.29,-0.59,-0.10,-2.42,3.57,381.00,954.00,503.00,567.00,810.00,2047.00,2416.00,4095.00,,,,,,,,,,,,0,0,0,,-2600,15944,964,-20,108,-140
5.693,5.46,0.11,-4.35,2.73,-4.68,1.88,-0.10,0.36,1.63,-2.40,326.00,1008.00,449.00,647.00,783.00,1983.00,3101.00,4095.00,,,,,,,,,,,,0,0,0,,-2584,15948,1108,-180,97,-260
5.756,5.52,0.19,0.04,-0.58,-1.42,1.29,1.66,-1.70,0.25,-0.37,360.00,926.00,437.00,578.00,848.00,1955.00,2849.00,4095.00,,,,,,,,,,,,0,0,0,,-2656,15956,1252,-371,121,-189
5.796,5.57,0.16,1.86,-3.18,3.09,-3.05,-0.37,0.13,-1.55,2.29,401.00,924.00,509.00,543.00,797.00,2017.00,2549.00,4095.00,,,,,,,,,,,,0,0,0,,-2592,16064,1256,-65,157,-106
5.857,5.63,0.12,-2.63,1.59,-2.34,0.69,-0.63,1.44,1.96,-2.89,336.00,971.00,459.00,609.00,746.00,1968.00,3166.00,4095.00,,,,,,,,,,,,0,0,0,,-2612,16064,1080,-19,147,-237
5.919,5.68,0.19,-2.40,3.30,-3.51,3.85,1.60,-0.63,-2.07,3.05,305.00,919.00,395.00,586.00,801.00,1904.00,2469.00,4095.00,,,,,,,,,,,,0,0,0,,-2648,15920,1220,-34,106,-20
5.982,5.74,0.22,1.53,-0.93,3.47,-1.27,0.80,-0.68,1.05,-1.55,357.00,881.00,459.00,510.00,815.00,1968.00,2993.00,4095.00,,,,,,,,,,,,0,0,0,,-2552,16096,1116,-4,181,-64
6.041,5.79,0.16,-0.76,0.15,-0.06,-0.79,-1.06,1.86,0.35,-0.52,351.00,937.00,477.00,579.00,735.00,1979.00,2867.00,4095.00,,,,,,,,,,,,0,0,0,,-2628,15968,1052,-88,191,-116
6.102,5.85,0.22,-3.44,4.27,-4.45,4.36,1.46,-0.44,-2.00,2.96,295.00,933.00,391.00,600.00,795.00,1905.00,2479.00,4095.00,,,,,,,,,,,,0,0,0,,-2400,15892,1024,-160,78,-150
6.143,5.90,0.27,2.49,-1.10,3.04,-0.63,1.22,-1.18,2.20,-3.25,354.00,852.00,447.00,510.00,831.00,1962.00,3213.00,4095.00,,,,,,,,,,,,0,0,0,,-2672,16040,1184,-91,24,-188
6.205,5.96,0.21,0.59,-1.47,0.91,-1.31,-1.04,1.26,-1.85,2.74,374.00,928.00,482.00,565.00,759.00,2010.00,2502.00,4095.00,,,,,,,,,,,,0,0,0,,-2676,15932,1112,-81,75,-186
6.266,6.01,0.21,-2.85,2.34,-3.90,2.20,0.27,0.22,0.53,-0.79,324.00,960.00,435.00,622.00,784.00,1962.00,2899.00,4095.00,,,,,,,,,,,,0,0,0,,-2652,15904,1068,-116,66,-157
6.348,6.07,0.30,0.58,-0.61,-0.79,1.20,1.99,-2.05,1.15,-1.69,357.00,907.00,434.00,565.00,859.00,1948.00,3011.00,4095.00,,,,,,,,,,,,0,0,0,,-2584,15996,1132,-120,20,-162
6.367,6.12,0.26,1.39,-2.93,2.03,-2.77,-0.52,0.25,-2.39,3.52,399.00,935.00,511.00,562.00,794.00,2023.00,2421.00,4095.00,,,,,,,,,,,,0,0,0,,-2760,16048,1088,-94,23,-179
6.409,6.18,0.21,-3.31,1.99,-3.82,1.68,-0.75,1.40,2.17,-3.20,333.00,987.00,447.00,629.00,749.00,1979.00,3207.00,4095.00,,,,,,,,,,,,0,0,0,,-2532,15992,1132,-100,49,-116
6.471,6.23,0.31,-1.30,1.31,-2.71,2.54,2.14,-1.77,-0.95,1.41,333.00,928.00,418.00,588.00,844.00,1922.00,2645.00,4095.00,,,,,,,,,,,,0,0,0,,-2476,16116,1136,-45,161,-132
6.532,6.29,0.32,0.64,-0.73,3.41,-1.25,0.64,-0.56,-0.00,0.00,359.00,908.00,459.00,511.00,812.00,1974.00,2805.00,4095.00,,,,,,,,,,,,0,0,0,,-2496,16140,1112,-199,79,-242
6.593,6.34,0.26,-1.17,0.88,-0.57,0.09,-0.99,1.98,1.28,-1.88,340.00,934.00,459.00,577.00,729.00,1967.00,3035.00,4095.00,,,,,,,,,,,,0,0,0,,-2696,15972,1132,-20,-7,-188
6.655,6.40,0.34,-2.67,3.45,-3.61,4.31,1.95,-0.51,-2.47,3.64,304.00,925.00,386.00,581.00,791.00,1872.00,2409.00,4095.00,,,,,,,,,,,,0,0,0,,-2464,15996,1312,31,79,-159
6.718,6.45,0.39,2.08,-0.54,4.19,-1.15,1.26,-0.65,2.08,-3.07,346.00,853.00,450.00,494.00,807.00,1931.00,3189.00,4095.00,,,,,,,,,,,,0,0,0,,-2512,16036,1248,8,192,-131
6.738,6.51,0.32,0.29,-0.51,1.18,-0.97,-1.00,1.96,-0.87,1.28,357.00,915.00,471.00,554.00,730.00,1969.00,2659.00,4095.00,,,,,,,,,,,,0,0,0,,-2460,16016,896,-37,162,-94
6.8,6.56,0.38,-4.87,6.18,-6.59,7.82,1.50,-0.13,-0.63,0.92,273.00,938.00,337.00,595.00,781.00,1886.00,2699.00,4095.00,,,,,,,,,,,,0,0,0,,-2548,16012,1076,-70,105,-127
6.842,6.62,0.46,1.01,-0.28,0.68,0.79,2.05,-1.39,1.72,-2.54,348.00,884.00,432.00,539.00,828.00,1909.00,3119.00,4095.00,,,,,,,,,,,,0,0,0,,-2652,16012,1200,-101,79,-113
6.904,6.67,0.42,1.29,-1.85,2.99,-2.20,-0.34,0.75,-2.54,3.75,377.00,912.00,487.00,533.00,770.00,1981.00,2398.00,4095.00,,,,,,,,,,,,0,0,0,,-2492,16044,980,-111,97,-131
6.965,6.73,0.42,-3.34,2.90,-3.55,2.17,0.45,0.75,1.77,-2.61,317.00,964.00,433.00,614.00,759.00,1920.00,3129.00,4095.00,,,,,,,,,,,,0,0,0,,-2536,16028,1096,-102,133,-170
7.008,6.78,0.53,0.15,0.66,-1.07,2.08,2.61,-1.97,-0.06,0.09,336.00,892.00,416.00,558.00,846.00,1897.00,2795.00,4095.00,,,,,,,,,,,,0,0,0,,-2512,16096,1004,-47,131,-168
7.091,6.84,0.52,2.60,-3.29,5.24,-3.15,0.30,-0.07,-1.18,1.73,398.00,900.00,492.00,500.00,796.00,1975.00,2609.00,4095.00,,,,,,,,,,,,0,0,0,,-2564,15896,984,-93,137,-198
7.152,6.89,0.46,-1.41,1.51,-0.80,0.49,-0.62,2.01,1.81,-2.67,330.00,927.00,451.00,576.00,723.00,1937.00,3136.00,4095.00,,,,,,,,,,,,0,0,0,,-2572,15940,1104,-148,150,-193
7.214,6.95,0.53,-2.04,3.06,-3.12,4.24,1.72,-0.50,-2.21,3.26,307.00,912.00,384.00,571.00,794.00,1889.00,2448.00,4095.00,,,,,,,,,,,,0,0,0,,-2536,15956,1176,-158,64,-153
7.234,7.00,0.55,1.41,-0.57,3.77,-0.67,0.97,-0.53,1.45,-2.13,351.00,877.00,442.00,496.00,806.00,1947.00,3067.00,4095.00,,,,,,,,,,,,0,0,0,,-2440,16216,1192,-89,128,-113
7.295,7.06,0.46,-0.22,0.08,0.44,-0.29,-1.15,2.22,0.10,-0.14,349.00,919.00,460.00,560.00,722.00,1967.00,2822.00,4095.00,,,,,,,,,,,,0,0,0,,-2576,16072,1152,-108,137,-315
7.336,7.11,0.53,-3.48,4.40,-4.48,4.65,1.81,-0.16,-1.67,2.46,293.00,931.00,385.00,596.00,778.00,1865.00,2531.00,4095.00,,,,,,,,,,,,0,0,0,,-2576,15936,1172,-30,29,-223
7.48,7.17,0.60,3.04,-1.02,3.96,-0.27,1.89,-1.06,2.14,-3.15,349.00,832.00,431.00,487.00,816.00,1905.00,3200.00,4095.00,,,,,,,,,,,,0,0,0,,-2564,16040,1104,-59,76,-143
7.501,7.22,0.58,1.72,-1.70,2.44,-1.32,0.13,0.79,-1.97,2.90,371.00,893.00,469.00,532.00,762.00,1943.00,2485.00,4095.00,,,,,,,,,,,,0,0,0,,-2476,15984,1204,-48,172,-185
7.522,7.28,0.59,-1.74,2.37,-2.11,2.29,0.84,0.77,0.86,-1.27,317.00,918.00,419.00,578.00,753.00,1890.00,2958.00,4095.00,,,,,,,,,,,,0,0,0,,-2416,16000,1100,23,125,-139
7.564,7.33,0.70,1.28,-0.21,0.60,1.60,2.84,-1.70,0.72,-1.06,345.00,873.00,414.00,529.00,830.00,1866.00,2932.00,4095.00,,,,,,,,,,,,0,0,0,,-2476,16076,1088,-13,135,-181
7.625,7.39,0.69,2.67,-2.94,4.91,-2.81,0.40,0.44,-2.28,3.36,390.00,889.00,486.00,502.00,773.00,1941.00,2438.00,4095.00,,,,,,,,,,,,0,0,0,,-2488,15984,1060,-110,171,-173
7.685,7.44,0.66,-2.30,2.15,-2.06,1.33,0.14,1.71,1.97,-2.91,324.00,944.00,441.00,592.00,725.00,1895.00,3168.00,4095.00,,,,,,,,,,,,0,0,0,,-2572,16056,1132,-43,164,-221
7.726,7.50,0.75,-0.64,2.11,-1.94,3.89,2.46,-0.64,-1.69,2.50,315.00,885.00,383.00,550.00,789.00,1841.00,2527.00,4095.00,,,,,,,,,,,,0,0,0,,-2456,15984,1140,-34,108,-175
7.831,7.55,0.78,2.51,-0.94,5.13,-1.29,1.39,-0.49,0.28,-0.41,351.00,848.00,446.00,478.00,798.00,1913.00,2854.00,4095.00,,,,,,,,,,,,0,0,0,,-2564,15944,1048,-63,125,-105
7.851,7.61,0.71,-0.08,0.41,1.14,-0.24,-0.53,2.11,0.78,-1.16,342.00,906.00,453.00,544.00,718.00,1925.00,2944.00,4095.00,,,,,,,,,,,,0,0,0,,-2520,16048,1032,3,232,-137
7.891,7.66,0.78,-2.81,4.43,-3.85,5.13,1.99,-0.38,-2.46,3.63,289.00,906.00,371.00,574.00,785.00,1863.00,2410.00,4095.00,,,,,,,,,,,,0,0,0,,-2512,16048,992,-2,201,-117
7.972,7.72,0.82,2.26,-0.49,4.73,-0.78,1.56,-0.93,2.01,-2.96,344.00,846.00,437.00,479.00,815.00,1923.00,3175.00,4095.00,,,,,,,,,,,,0,0,0,,-2464,15996,884,-46,72,-136
8.014,7.77,0.74,0.85,-1.21,1.96,-1.59,-0.69,1.73,-1.49,2.20,367.00,912.00,480.00,546.00,735.00,1957.00,2559.00,4095.00,,,,,,,,,,,,0,0,0,,-2560,16068,948,-68,130,-111
8.076,7.83,0.75,-3.73,4.94,-3.57,3.87,0.86,0.26,-0.28,0.41,286.00,927.00,395.00,587.00,774.00,1915.00,2758.00,4095.00,,,,,,,,,,,,0,0,0,,-2468,16168,1008,5,225,-212
8.138,7.88,0.82,0.65,0.00,0.54,1.27,2.13,-1.30,1.29,-1.91,345.00,890.00,422.00,535.00,823.00,1899.00,3038.00,4095.00,,,,,,,,,,,,0,0,0,,-2424,15908,1156,-96,64,-243
8.2,7.94,0.77,2.27,-2.86,3.65,-2.76,-0.09,0.67,-2.81,4.14,391.00,901.00,496.00,527.00,770.00,1966.00,2359.00,4095.00,,,,,,,,,,,,0,0,0,,-2576,16004,1056,-35,13,-202
8.22,7.99,0.77,-2.24,2.42,-2.68,2.18,0.69,0.92,1.78,-2.63,319.00,935.00,426.00,593.00,749.00,1894.00,3131.00,4095.00,,,,,,,,,,,,0,0,0,,-2444,16028,1164,-82,186,-192
8.281,8.05,0.88,0.34,1.44,-1.23,3.46,3.08,-1.51,-0.72,1.07,321.00,867.00,387.00,541.00,818.00,1839.00,2683.00,4095.00,,,,,,,,,,,,0,0,0,,-2572,16036,772,-88,222,-222
8.343,8.10,0.91,4.06,-3.32,6.55,-3.40,1.44,-0.13,-0.90,1.33,388.00,850.00,487.00,478.00,782.00,1891.00,2653.00,4095.00,,,,,,,,,,,,0,0,0,,-2496,16024,832,9,96,-157
8.385,8.16,0.86,-0.17,1.04,1.06,0.58,-0.12,2.05,1.24,-1.84,331.00,894.00,434.00,534.00,715.00,1897.00,3029.00,4095.00,,,,,,,,,,,,0,0,0,,-2548,16016,988,-58,82,-179
8.447,8.21,0.94,-1.58,3.45,-2.17,4.71,2.47,-0.26,-2.71,4.00,298.00,886.00,368.00,543.00,773.00,1822.00,2373.00,4095.00,,,,,,,,,,,,0,0,0,,-2552,15976,996,-42,174,-147
8.508,8.27,0.99,2.74,-0.49,5.58,-0.86,2.01,-0.74,1.55,-2.29,341.00,830.00,432.00,464.00,800.00,1879.00,3087.00,4095.00,,,,,,,,,,,,0,0,0,,-2536,16036,972,-2,157,-189
8.57,8.32,0.91,0.80,-0.26,2.24,-0.81,-0.58,2.05,-0.63,0.92,349.00,891.00,458.00,529.00,721.00,1932.00,2699.00,4095.00,,,,,,,,,,,,0,0,0,,-2508,16004,956,-52,118,-121
8.613,8.38,0.97,-4.25,6.10,-3.79,4.91,2.00,0.07,-1.30,1.92,271.00,917.00,375.00,576.00,766.00,1840.00,2589.00,4095.00,,,,,,,,,,,,0,0,0,,-2612,15928,988,-39,108,-102
8.696,8.43,1.04,2.03,0.02,2.94,0.55,2.41,-1.47,1.71,-2.52,336.00,842.00,420.00,496.00,826.00,1886.00,3117.00,4095.00,,,,,,,,,,,,0,0,0,,-2480,15996,1032,-112,134,-138
8.716,8.49,1.00,1.12,-1.40,4.02,-1.93,0.17,0.46,-2.62,3.86,369.00,907.00,471.00,508.00,775.00,1957.00,2387.00,4095.00,,,,,,,,,,,,0,0,0,,-2464,16080,1032,-225,89,-188
8.777,8.54,0.97,-2.60,2.60,-3.03,2.08,0.51,0.78,1.19,-1.76,318.00,944.00,431.00,603.00,757.00,1914.00,3019.00,4095.00,,,,,,,,,,,,0,0,0,,-2564,16020,900,-138,75,-208
8.839,8.60,1.05,0.88,-0.13,-0.31,2.04,2.50,-1.70,0.15,-0.23,346.00,885.00,411.00,542.00,835.00,1891.00,2832.00,4095.00,,,,,,,,,,,,0,0,0,,-2624,15976,952,-132,52,-173
8.941,8.65,1.01,3.12,-3.52,5.44,-3.14,0.25,0.15,-1.82,2.69,399.00,887.00,490.00,496.00,787.00,1967.00,2507.00,4095.00,,,,,,,,,,,,0,0,0,,-2448,15968,892,-186,76,-223
8.962,8.71,0.96,-2.15,1.93,-2.06,1.71,0.02,1.49,1.79,-2.64,327.00,944.00,432.00,586.00,735.00,1915.00,3133.00,4095.00,,,,,,,,,,,,0,0,0,,-2600,15916,1076,-212,66,-204
9.003,8.76,1.02,-1.12,2.99,-2.09,4.53,2.22,-0.37,-2.18,3.22,303.00,881.00,371.00,544.00,781.00,1845.00,2452.00,4095.00,,,,,,,,,,,,0,0,0,,-2616,16116,992,-74,171,-159
9.065,8.82,1.05,2.34,-0.78,5.34,-0.82,1.63,-0.47,0.81,-1.20,349.00,850.00,433.00,468.00,794.00,1894.00,2949.00,4095.00,,,,,,,,,,,,0,0,0,,-2680,16100,1052,-35,219,-159
9.125,8.87,0.99,0.37,0.36,1.25,0.22,-0.26,1.87,0.19,-0.28,340.00,891.00,441.00,535.00,724.00,1917.00,2838.00,4095.00,,,,,,,,,,,,0,0,0,,-2608,16060,1080,-65,130,-83
9.187,8.93,1.06,-2.62,4.82,-2.88,4.95,2.52,-0.61,-2.21,3.26,282.00,890.00,368.00,555.00,787.00,1835.00,2448.00,4095.00,,,,,,,,,,,,0,0,0,,-2652,16020,1152,-39,108,-202
9.291,8.98,1.13,3.58,-1.09,5.61,-0.74,2.34,-1.29,2.00,-2.95,347.00,816.00,429.00,462.00,819.00,1882.00,3173.00,4095.00,,,,,,,,,,,,0,0,0,,-2496,16112,920,28,148,-77
9.313,9.04,1.06,1.27,-1.25,4.06,-2.22,-0.28,1.47,-2.10,3.09,365.00,898.00,478.00,511.00,740.00,1939.00,2465.00,4095.00,,,,,,,,,,,,0,0,0,,-2568,15968,852,-23,156,-66
9.353,9.09,1.05,-1.83,2.45,-1.98,2.42,0.91,0.67,0.24,-0.35,316.00,919.00,415.00,573.00,756.00,1890.00,2847.00,4095.00,,,,,,,,,,,,0,0,0,,-2648,15992,916,-131,214,-204
9.373,9.15,1.13,1.07,0.18,0.16,2.25,2.61,-1.62,0.87,-1.28,339.00,871.00,403.00,529.00,830.00,1879.00,2960.00,4095.00,,,,,,,,,,,,0,0,0,,-2528,15960,948,-108,147,-125
9.456,9.20,1.08,2.47,-3.07,5.54,-3.28,0.18,0.32,-2.64,3.89,394.00,899.00,493.00,496.00,781.00,1964.00,2384.00,4095.00,,,,,,,,,,,,0,0,0,,-2564,16008,924,-84,134,-84
9.498,9.26,1.02,-2.74,2.53,-1.78,1.62,-0.06,1.50,1.84,-2.71,320.00,951.00,432.00,581.00,736.00,1921.00,3142.00,4095.00,,,,,,,,,,,,0,0,0,,-2468,16108,976,-111,218,-101
9.559,9.31,1.11,-0.31,1.71,-1.60,3.73,2.66,-1.37,-1.32,1.95,320.00,883.00,384.00,545.00,818.00,1863.00,2586.00,4095.00,,,,,,,,,,,,0,0,0,,-2576,16092,852,-95,111,-156
9.621,9.37,1.11,1.95,-1.12,4.74,-0.96,1.10,-0.41,-0.24,0.35,358.00,871.00,441.00,481.00,799.00,1931.00,2764.00,4095.00,,,,,,,,,,,,0,0,0,,-2512,15996,1080,-63,-10,-140
9.663,9.42,1.01,-0.01,0.22,0.53,0.25,-0.72,2.10,0.99,-1.45,345.00,908.00,446.00,550.00,721.00,1940.00,2981.00,4095.00,,,,,,,,,,,,0,0,0,,-2420,16040,908,-84,79,-233
9.724,9.48,1.06,-2.24,3.43,-3.22,4.71,2.02,-0.37,-2.75,4.06,302.00,910.00,375.00,566.00,784.00,1860.00,2367.00,4095.00,,,,,,,,,,,,0,0,0,,-2492,16052,836,-287,89,-320
9.786,9.53,1.07,2.56,-0.80,5.03,-0.76,1.19,-0.02,1.81,-2.67,348.00,843.00,434.00,473.00,781.00,1904.00,3136.00,4095.00,,,,,,,,,,,,0,0,0,,-2600,15996,1016,-196,-44,-259
9.828,9.59,0.98,1.38,-1.08,2.70,-1.29,-0.66,2.10,-1.18,1.74,361.00,890.00,466.00,526.00,720.00,1935.00,2608.00,4095.00,,,,,,,,,,,,0,0,0,,-2536,15920,1092,-61,18,-210
9.889,9.64,1.01,-4.01,5.96,-2.63,4.17,1.50,0.35,-0.76,1.12,272.00,912.00,382.00,561.00,761.00,1862.00,2677.00,4095.00,,,,,,,,,,,,0,0,0,,-2596,16068,1080,-84,172,-199
9.951,9.70,1.08,1.54,-0.09,1.69,1.28,2.48,-1.33,1.41,-2.08,341.00,861.00,413.00,511.00,819.00,1874.00,3060.00,4095.00,,,,,,,,,,,,0,0,0,,-2572,16044,1004,-75,90,-176
10.032,9.75,1.05,2.42,-2.23,4.98,-2.60,0.32,0.58,-2.86,4.23,377.00,881.00,480.00,498.00,768.00,1939.00,2351.00,4095.00,,,,,,,,,,,,0,0,0,,-2628,16040,968,-74,47,-193
10.053,9.81,1.04,-2.70,2.87,-2.25,2.25,0.86,0.76,1.57,-2.32,314.00,941.00,421.00,582.00,753.00,1889.00,3091.00,4095.00,,,,,,,,,,,,0,0,0,,-2560,15996,956,-137,116,-216
10.093,9.86,1.14,1.29,0.16,0.17,2.52,3.17,-1.79,-0.42,0.61,338.00,864.00,397.00,525.00,829.00,1846.00,2734.00,4095.00,,,,,,,,,,,,0,0,0,,-2560,16036,872,-133,79,-214
10.154,9.92,1.12,3.89,-3.59,6.63,-2.96,0.73,0.04,-1.26,1.85,395.00,862.00,475.00,471.00,785.00,1936.00,2596.00,4095.00,,,,,,,,,,,,0,0,0,,-2568,15968,1068,-76,36,-217
10.195,9.97,1.04,-0.18,0.93,0.80,0.75,-0.59,2.31,1.45,-2.13,333.00,897.00,432.00,537.00,711.00,1919.00,3067.00,4095.00,,,,,,,,,,,,0,0,0,,-2692,15960,908,-29,69,-169
10.257,10.03,1.10,-1.57,3.14,-2.11,4.49,2.38,-0.56,-2.62,3.86,303.00,893.00,372.00,545.00,787.00,1843.00,2387.00,4095.00,,,,,,,,,,,,0,0,0,,-2684,16024,964,-112,129,-129
10.319,10.08,1.12,2.41,-0.75,5.55,-0.89,1.46,-0.67,1.37,-2.02,348.00,847.00,433.00,465.00,805.00,1917.00,3053.00,4095.00,,,,,,,,,,,,0,0,0,,-2608,15988,996,-186,130,-134
10.401,10.14,1.03,0.41,-0.18,2.44,-2.01,-0.75,2.00,-0.37,0.55,350.00,903.00,487.00,542.00,725.00,1947.00,2742.00,4095.00,,,,,,,,,,,,0,0,0,,-2668,16004,1128,-53,79,-149
10.421,10.19,1.06,-4.05,5.37,-3.71,4.78,1.74,-0.16,-1.58,2.34,281.00,928.00,377.00,576.00,779.00,1870.00,2544.00,4095.00,,,,,,,,,,,,0,0,0,,-2468,15984,992,-101,151,-14
10.482,10.25,1.11,2.58,-0.92,4.30,-0.38,1.94,-1.24,1.82,-2.68,350.00,845.00,431.00,482.00,823.00,1910.00,3138.00,4095.00,,,,,,,,,,,,0,0,0,,-2468,16140,1116,-77,228,-193
10.543,10.30,1.04,1.50,-1.63,3.65,-1.61,-0.23,0.79,-2.46,3.63,371.00,899.00,466.00,511.00,767.00,1971.00,2410.00,4095.00,,,,,,,,,,,,0,0,0,,-2620,15976,844,-84,97,-231
10.627,10.36,1.04,-2.76,2.83,-2.54,2.05,0.98,0.50,0.95,-1.40,315.00,944.00,428.00,592.00,762.00,1893.00,2974.00,4095.00,,,,,,,,,,,,0,0,0,,-2568,15980,1048,-54,-40,-117
10.647,10.41,1.08,1.52,-0.19,0.27,2.30,1.80,-1.35,0.22,-0.32,343.00,864.00,401.00,526.00,830.00,1926.00,2843.00,4095.00,,,,,,,,,,,,0,0,0,,-2584,16052,1144,-42,164,-131
10.71,10.47,1.04,3.73,-4.09,5.74,-2.66,0.39,0.49,-2.27,3.35,407.00,879.00,475.00,484.00,771.00,1939.00,2439.00,4095.00,,,,,,,,,,,,0,0,0,,-2492,16148,1016,-45,190,-185
10.771,10.52,1.00,-1.90,2.07,-1.25,1.48,0.12,1.66,1.62,-2.38,323.00,931.00,431.00,571.00,727.00,1899.00,3099.00,4095.00,,,,,,,,,,,,0,0,0,,-2520,15992,948,-62,78,-117
10.832,10.58,1.06,-0.76,2.75,-1.85,4.65,2.35,-0.46,-2.12,3.13,305.00,874.00,367.00,537.00,783.00,1840.00,2461.00,4095.00,,,,,,,,,,,,0,0,0,,-2596,16120,992,-62,72,-174
10.894,10.63,1.09,2.38,-0.79,5.62,-0.91,1.63,-0.45,0.34,-0.50,349.00,849.00,433.00,464.00,793.00,1893.00,2864.00,4095.00,,,,,,,,,,,,0,0,0,,-2532,16108,840,-49,109,-143
10.934,10.69,1.03,0.55,0.14,1.23,-0.03,-0.23,1.88,0.30,-0.45,343.00,890.00,447.00,539.00,723.00,1914.00,2858.00,4095.00,,,,,,,,,,,,0,0,0,,-2608,16080,964,-66,115,-203
10.994,10.74,1.07,-2.46,4.38,-2.70,4.89,1.85,0.02,-2.48,3.66,288.00,895.00,368.00,552.00,770.00,1853.00,2407.00,4095.00,,,,,,,,,,,,0,0,0,,-2660,16008,976,-42,114,-221
11.056,10.80,1.11,3.33,-0.90,5.21,-0.48,1.97,-1.05,1.89,-2.79,345.00,820.00,426.00,466.00,814.00,1898.00,3152.00,4095.00,,,,,,,,,,,,0,0,0,,-2572,15992,964,-61,63,-190
11.14,10.85,1.01,1.33,-1.42,2.55,-1.28,-0.85,1.99,-2.21,3.26,368.00,900.00,467.00,529.00,727.00,1956.00,2448.00,4095.00,,,,,,,,,,,,0,0,0,,-2664,16036,876,-145,120,-169
11.161,10.91,1.00,-1.94,2.26,-2.51,2.69,0.81,0.54,-0.01,0.02,320.00,928.00,413.00,581.00,763.00,1904.00,2803.00,4095.00,,,,,,,,,,,,0,0,0,,-2564,15976,980,-37,62,-141
11.202,10.96,1.08,1.16,-0.33,0.85,1.17,2.51,-1.96,0.98,-1.45,348.00,880.00,422.00,530.00,847.00,1904.00,2980.00,4095.00,,,,,,,,,,,,0,0,0,,-2516,15940,924,9,-29,-140
11.263,11.02,1.01,1.89,-2.54,4.95,-3.16,-0.21,0.38,-2.81,4.14,387.00,907.00,495.00,506.00,784.00,1991.00,2359.00,4095.00,,,,,,,,,,,,0,0,0,,-2540,15988,972,70,203,-81
11.325,11.07,0.96,-3.05,2.63,-1.95,1.17,-0.15,1.38,1.75,-2.58,320.00,960.00,444.00,592.00,742.00,1934.00,3125.00,4095.00,,,,,,,,,,,,0,0,0,,-2504,16008,924,-23,301,-251
11.387,11.13,1.04,0.17,1.04,-1.66,3.28,2.69,-1.40,-1.21,1.79,329.00,882.00,394.00,553.00,819.00,1862.00,2603.00,4095.00,,,,,,,,,,,,0,0,0,,-2640,15920,768,-125,26,-231
11.429,11.18,1.05,1.97,-0.71,5.30,-1.39,1.09,-0.13,-0.66,0.97,350.00,861.00,447.00,476.00,787.00,1917.00,2694.00,4095.00,,,,,,,,,,,,0,0,0,,-2568,15976,956,-75,9,-87
11.533,11.24,0.98,-0.04,0.72,0.88,0.22,-0.36,1.95,0.88,-1.29,336.00,897.00,444.00,543.00,722.00,1920.00,2961.00,4095.00,,,,,,,,,,,,0,0,0,,-2540,16152,944,-59,232,-134
11.554,11.29,1.04,-1.82,3.85,-2.66,5.02,2.22,-0.23,-2.88,4.26,293.00,885.00,365.00,549.00,775.00,1838.00,2348.00,4095.00,,,,,,,,,,,,0,0,0,,-2532,15920,896,-86,200,-140
11.594,11.35,1.08,2.08,-0.05,5.58,-0.86,1.88,-0.91,1.56,-2.30,337.00,842.00,432.00,464.00,809.00,1897.00,3088.00,4095.00,,,,,,,,,,,,0,0,0,,-2520,16020,712,-57,77,-90
11.655,11.40,0.99,1.02,-0.55,2.05,-0.75,-0.70,2.17,-1.25,1.84,353.00,890.00,458.00,532.00,718.00,1935.00,2597.00,4095.00,,,,,,,,,,,,0,0,0,,-2528,16176,924,-143,-28,-169
11.697,11.46,1.06,-3.83,5.69,-3.77,5.20,2.27,-0.90,-1.00,1.48,275.00,912.00,369.00,571.00,803.00,1868.00,2637.00,4095.00,,,,,,,,,,,,0,0,0,,-2520,16096,916,-16,60,-166
11.757,11.51,1.11,1.69,-0.56,0.98,1.25,2.20,-1.22,1.32,-1.95,349.00,867.00,419.00,526.00,818.00,1889.00,3043.00,4095.00,,,,,,,,,,,,0,0,0,,-2532,16060,976,23,166,-130
11.818,11.57,1.05,1.90,-2.06,4.17,-2.37,-0.12,0.78,-2.99,4.41,377.00,895.00,481.00,511.00,766.00,1963.00,2333.00,4095.00,,,,,,,,,,,,0,0,0,,-2528,16036,692,70,148,-222
11.879,11.62,1.02,-2.57,2.47,-2.50,1.86,0.41,0.94,1.34,-1.98,320.00,946.00,432.00,594.00,752.00,1914.00,3047.00,4095.00,,,,,,,,,,,,0,0,0,,-2524,15940,776,104,68,-279
11.921,11.68,1.10,1.19,-0.29,-0.89,2.69,2.58,-1.63,-0.46,0.69,347.00,878.00,401.00,545.00,831.00,1882.00,2726.00,4095.00,,,,,,,,,,,,0,0,0,,-2588,15972,828,-1,119,-186
11.983,11.73,1.05,3.21,-3.36,5.50,-2.70,0.15,0.28,-1.49,2.20,395.00,880.00,478.00,489.00,783.00,1968.00,2559.00,4095.00,,,,,,,,,,,,0,0,0,,-2632,15968,928,-140,195,-147
12.046,11.79,0.97,-1.14,1.48,0.27,0.30,-0.53,1.88,1.35,-1.99,329.00,918.00,447.00,555.00,727.00,1937.00,3049.00,4095.00,,,,,,,,,,,,0,0,0,,-2548,16116,548,-213,156,-138
12.109,11.84,1.01,-1.97,3.16,-2.66,4.09,1.71,-0.29,-2.66,3.92,305.00,907.00,384.00,563.00,785.00,1879.00,2381.00,4095.00,,,,,,,,,,,,0,0,0,,-2564,16020,688,-377,-5,-98
12.129,11.90,1.02,1.78,-0.70,5.00,-1.42,1.20,-0.76,1.16,-1.71,351.00,867.00,450.00,482.00,813.00,1942.00,3013.00,4095.00,,,,,,,,,,,,0,0,0,,-2448,16100,792,-245,-217,-211
12.192,11.95,0.92,0.22,-0.28,1.27,-0.77,-0.85,2.04,-0.39,0.58,353.00,912.00,465.00,549.00,725.00,1953.00,2738.00,4095.00,,,,,,,,,,,,0,0,0,,-2632,16012,1276,-110,-29,-218
12.233,12.01,0.97,-3.12,4.60,-3.63,4.61,1.83,-0.05,-1.79,2.64,288.00,913.00,380.00,577.00,773.00,1858.00,2512.00,4095.00,,,,,,,,,,,,0,0,0,,-2620,16040,840,84,287,-264
12.295,12.06,1.02,3.03,-0.91,4.22,-0.18,1.97,-1.07,1.68,-2.48,347.00,830.00,427.00,481.00,815.00,1899.00,3111.00,4095.00,,,,,,,,,,,,0,0,0,,-2568,16020,740,1,211,-245
12.357,12.12,0.96,1.66,-1.53,3.82,-1.86,-0.06,0.68,-2.54,3.75,368.00,891.00,471.00,511.00,769.00,1963.00,2398.00,4095.00,,,,,,,,,,,,0,0,0,,-2616,15940,1052,46,21,-123
12.419,12.17,0.95,-2.47,2.44,2.04,0.76,0.73,0.76,0.78,-1.16,320.00,943.00,422.00,511.00,755.00,1899.00,2944.00,4095.00,,,,,,,,,,,,0,0,0,,-2580,15892,784,-1,155,-162
12.46,12.23,1.03,1.44,-0.53,0.36,1.82,2.59,-1.73,0.26,-0.38,350.00,875.00,411.00,531.00,835.00,1886.00,2850.00,4095.00,,,,,,,,,,,,0,0,0,,-2612,16040,744,-101,247,-194
12.542,12.28,0.99,2.52,-2.80,4.88,-2.84,0.19,0.24,-2.27,3.35,388.00,891.00,487.00,503.00,784.00,1967.00,2439.00,4095.00,,,,,,,,,,,,0,0,0,,-2604,15968,752,-114,185,-138
12.604,12.34,0.94,-2.46,2.15,-1.99,1.60,-0.07,1.52,1.67,-2.47,325.00,950.00,434.00,586.00,735.00,1920.00,3110.00,4095.00,,,,,,,,,,,,0,0,0,,-2624,16012,680,-35,132,-102
12.625,12.39,0.99,-0.62,1.70,-1.91,4.13,2.00,-0.51,-2.12,3.12,322.00,894.00,378.00,546.00,790.00,1868.00,2462.00,4095.00,,,,,,,,,,,,0,0,0,,-2604,16000,788,-48,163,-129
12.686,12.45,1.01,1.95,-0.86,4.47,-0.86,1.42,-0.77,0.35,-0.51,353.00,865.00,441.00,485.00,810.00,1925.00,2866.00,4095.00,,,,,,,,,,,,0,0,0,,-2540,16164,676,-25,128,-127
12.727,12.50,0.91,-0.31,0.22,0.36,0.10,-0.99,2.21,0.29,-0.42,347.00,919.00,451.00,556.00,720.00,1955.00,2855.00,4095.00,,,,,,,,,,,,0,0,0,,-2516,16148,696,-72,99,-230
12.79,12.56,0.96,-2.87,4.20,-3.32,4.41,1.78,-0.31,-2.51,3.70,293.00,914.00,382.00,573.00,785.00,1875.00,2403.00,4095.00,,,,,,,,,,,,0,0,0,,-2656,15996,744,-99,81,-155
12.852,12.61,0.98,2.61,-1.14,4.36,-0.79,1.47,-1.04,1.89,-2.79,354.00,849.00,440.00,486.00,821.00,1935.00,3152.00,4095.00,,,,,,,,,,,,0,0,0,,-2580,16012,788,-94,46,-98
12.914,12.67,0.89,1.08,-1.83,1.96,-1.59,-0.94,1.64,-1.99,2.94,378.00,919.00,480.00,546.00,742.00,1981.00,2481.00,4095.00,,,,,,,,,,,,0,0,0,,-2540,16180,644,-50,176,-55
12.977,12.72,0.88,-2.35,2.23,-2.57,2.14,0.66,0.47,-0.03,0.04,323.00,944.00,426.00,591.00,768.00,1919.00,2800.00,4095.00,,,,,,,,,,,,0,0,0,,-2672,16132,868,-171,207,-207
13.038,12.78,0.94,1.04,-0.24,-0.20,1.74,2.26,-1.62,0.87,-1.28,347.00,882.00,417.00,544.00,835.00,1905.00,2960.00,4095.00,,,,,,,,,,,,0,0,0,,-2540,16092,896,-152,94,-222
13.079,12.83,0.90,2.10,-2.90,4.63,-3.05,-0.04,0.56,-2.86,4.23,393.00,908.00,495.00,511.00,774.00,1968.00,2351.00,4095.00,,,,,,,,,,,,0,0,0,,-2600,16000,872,-41,36,-141
13.141,12.89,0.86,-2.54,2.46,-2.28,1.66,0.20,1.41,1.72,-2.54,320.00,945.00,435.00,592.00,736.00,1906.00,3119.00,4095.00,,,,,,,,,,,,0,0,0,,-2628,16096,852,-90,141,-151
13.204,12.94,0.96,-0.28,1.70,-0.80,3.03,2.76,-1.36,-1.32,1.95,320.00,882.00,393.00,538.00,816.00,1855.00,2586.00,4095.00,,,,,,,,,,,,0,0,0,,-2476,16132,888,-111,182,-148
13.245,13.00,0.97,2.30,-1.03,5.20,-1.40,1.20,-0.21,-0.59,0.87,354.00,857.00,448.00,478.00,789.00,1913.00,2705.00,4095.00,,,,,,,,,,,,0,0,0,,-2564,16076,840,-16,100,-208
13.348,13.05,0.90,-0.18,0.77,0.94,-0.01,-0.45,2.03,0.84,-1.24,336.00,901.00,449.00,545.00,720.00,1923.00,2954.00,4095.00,,,,,,,,,,,,0,0,0,,-2512,16028,888,-38,59,-173
13.368,13.11,0.95,-2.28,3.94,-3.25,5.22,2.05,-0.07,-2.86,4.21,294.00,899.00,365.00,559.00,771.00,1843.00,2352.00,4095.00,,,,,,,,,,,,0,0,0,,-2516,16164,748,2,166,-135
13.408,13.16,0.99,2.32,-0.67,5.30,-0.76,1.67,-0.76,1.64,-2.41,347.00,848.00,432.00,468.00,806.00,1906.00,3103.00,4095.00,,,,,,,,,,,,0,0,0,,-2588,15912,696,24,166,-181
13.449,13.22,0.89,0.96,-1.25,2.44,-1.32,-1.02,2.28,-1.34,1.97,367.00,909.00,469.00,532.00,718.00,1954.00,2583.00,4095.00,,,,,,,,,,,,0,0,0,,-2588,15924,692,-47,122,-172
13.51,13.27,0.92,-4.77,6.08,-3.98,4.49,1.54,0.10,-0.92,1.36,274.00,937.00,385.00,587.00,771.00,1872.00,2650.00,4095.00,,,,,,,,,,,,0,0,0,,-2588,15984,832,-99,112,-142
13.571,13.33,0.99,0.83,-0.28,0.69,1.04,2.20,-1.55,1.27,-1.87,349.00,890.00,426.00,535.00,833.00,1906.00,3033.00,4095.00,,,,,,,,,,,,0,0,0,,-2684,16068,672,-171,166,-142
13.611,13.38,0.93,1.58,-2.29,3.66,-2.84,-0.16,0.36,-2.86,4.21,384.00,912.00,498.00,528.00,784.00,1988.00,2352.00,4095.00,,,,,,,,,,,,0,0,0,,-2528,16184,720,-157,123,-179
13.713,13.44,0.89,-3.24,2.30,-3.27,2.12,0.11,0.97,1.47,-2.17,327.00,976.00,432.00,608.00,755.00,1935.00,3071.00,4095.00,,,,,,,,,,,,0,0,0,,-2640,15996,616,-29,62,-179
13.735,13.49,0.97,0.28,-0.25,-1.27,2.36,2.47,-1.91,-0.43,0.64,352.00,909.00,411.00,558.00,845.00,1904.00,2731.00,4095.00,,,,,,,,,,,,0,0,0,,-2576,16156,768,-26,153,-52
13.776,13.55,0.93,2.75,-3.39,5.34,-3.51,0.14,0.26,-1.34,1.98,399.00,897.00,501.00,503.00,784.00,1970.00,2582.00,4095.00,,,,,,,,,,,,0,0,0,,-2432,16012,716,-109,209,-282
13.837,13.60,0.85,-1.04,1.06,0.03,0.26,-0.59,2.08,1.30,-1.92,336.00,925.00,450.00,561.00,720.00,1931.00,3040.00,4095.00,,,,,,,,,,,,0,0,0,,-2660,15956,680,-106,43,-228
13.897,13.66,0.91,-1.08,2.09,-4.32,4.60,2.04,-0.14,-2.67,3.94,318.00,901.00,385.00,593.00,774.00,1847.00,2379.00,4095.00,,,,,,,,,,,,0,0,0,,-2652,15996,964,-33,32,-116
13.94,13.71,0.95,2.46,-0.88,5.25,-1.17,1.64,-0.66,1.21,-1.79,350.00,848.00,442.00,474.00,802.00,1903.00,3023.00,4095.00,,,,,,,,,,,,0,0,0,,-2636,16080,756,-61,251,-131
14.0,13.77,0.88,0.41,-0.18,1.87,-0.49,-0.40,2.02,-0.63,0.93,350.00,903.00,453.00,532.00,720.00,1920.00,2698.00,4095.00,,,,,,,,,,,,0,0,0,,-2504,15960,700,-46,174,-138
14.104,13.82,0.94,-3.90,5.72,-3.79,5.11,2.02,0.03,-1.76,2.59,275.00,914.00,371.00,573.00,767.00,1840.00,2517.00,4095.00,,,,,,,,,,,,0,0,0,,-2536,16064,572,-47,78,-110
14.125,13.88,1.00,3.13,-1.15,4.00,-0.03,2.29,-1.29,1.55,-2.29,351.00,832.00,425.00,483.00,820.00,1886.00,3087.00,4095.00,,,,,,,,,,,,0,0,0,,-2568,16012,760,-127,124,-184
14.165,13.93,0.97,2.10,-2.85,4.06,-2.22,0.25,0.53,-2.65,3.91,392.00,907.00,478.00,511.00,771.00,1947.00,2382.00,4095.00,,,,,,,,,,,,0,0,0,,-2476,15940,704,-90,145,-165
14.227,13.99,0.95,-2.68,2.17,-2.52,1.95,0.63,0.84,0.85,-1.26,326.00,958.00,430.00,593.00,753.00,1902.00,2957.00,4095.00,,,,,,,,,,,,0,0,0,,-2560,16072,644,-75,96,-192
14.291,14.04,1.04,0.79,0.17,-0.33,2.55,2.72,-1.68,0.53,-0.79,341.00,881.00,400.00,535.00,831.00,1874.00,2899.00,4095.00,,,,,,,,,,,,0,0,0,,-2716,15964,704,-86,44,-184
14.331,14.10,1.00,2.79,-3.45,4.98,-2.98,0.35,0.24,-2.17,3.20,400.00,897.00,490.00,503.00,782.00,1955.00,2454.00,4095.00,,,,,,,,,,,,0,0,0,,-2604,16092,732,-135,110,-144
14.393,14.15,0.93,-2.74,1.91,-2.04,1.24,-0.39,1.78,1.56,-2.30,331.00,967.00,443.00,593.00,729.00,1931.00,3088.00,4095.00,,,,,,,,,,,,0,0,0,,-2580,16008,684,-188,162,-149
14.475,14.21,0.99,-1.73,2.71,-2.65,4.28,2.09,-0.51,-2.33,3.43,311.00,909.00,380.00,560.00,789.00,1862.00,2430.00,4095.00,,,,,,,,,,,,0,0,0,,-2536,16044,820,-99,115,-142
14.495,14.26,1.00,1.42,-0.63,4.59,-1.20,1.06,-0.44,0.56,-0.82,352.00,878.00,448.00,487.00,801.00,1936.00,2903.00,4095.00,,,,,,,,,,,,0,0,0,,-2644,16012,824,-88,32,-153
14.557,14.32,0.89,-0.23,-0.39,0.87,-0.51,-1.01,2.25,0.10,-0.15,358.00,931.00,462.00,554.00,719.00,1955.00,2823.00,4095.00,,,,,,,,,,,,0,0,0,,-2620,16052,896,-60,73,-131
14.618,14.37,0.93,-3.62,4.45,-3.76,4.41,1.61,-0.28,-2.32,3.42,293.00,935.00,385.00,583.00,786.00,1886.00,2431.00,4095.00,,,,,,,,,,,,0,0,0,,-2508,16216,744,-43,195,-187
14.658,14.43,0.97,2.37,-1.00,3.15,-0.12,1.81,-1.31,1.79,-2.64,353.00,854.00,434.00,501.00,828.00,1923.00,3133.00,4095.00,,,,,,,,,,,,0,0,0,,-2516,16052,768,-124,122,-308
14.74,14.48,0.90,0.61,-1.18,2.19,-1.86,-0.46,1.28,-2.18,3.21,368.00,920.00,485.00,545.00,750.00,1963.00,2453.00,4095.00,,,,,,,,,,,,0,0,0,,-2540,15948,728,-54,5,-120
14.8,14.54,0.90,-2.41,2.48,-2.30,1.88,0.79,0.66,0.15,-0.22,319.00,940.00,430.00,589.00,758.00,1899.00,2831.00,4095.00,,,,,,,,,,,,0,0,0,,-2736,16108,876,98,173,-75
14.821,14.59,1.00,0.95,-0.16,0.11,1.90,2.95,-1.98,0.61,-0.90,346.00,883.00,411.00,535.00,841.00,1872.00,2913.00,4095.00,,,,,,,,,,,,0,0,0,,-2672,16084,488,37,237,-73
14.882,14.65,0.96,2.54,-3.09,4.79,-3.14,0.28,0.57,-2.81,4.14,394.00,897.00,496.00,509.00,769.00,1943.00,2359.00,4095.00,,,,,,,,,,,,0,0,0,,-2492,16124,528,1,147,-103
14.943,14.70,0.92,-2.85,2.56,-2.54,1.92,0.10,1.59,1.54,-2.27,320.00,954.00,431.00,594.00,730.00,1904.00,3085.00,4095.00,,,,,,,,,,,,0,0,0,,-2420,16040,692,-85,99,-136
14.983,14.76,1.01,-0.64,1.94,-1.54,3.71,2.67,-1.22,-1.67,2.47,318.00,889.00,384.00,544.00,811.00,1854.00,2530.00,4095.00,,,,,,,,,,,,0,0,0,,-2520,16044,720,-54,130,-157
15.046,14.81,1.02,1.66,-0.61,5.58,-1.57,1.23,-0.08,-0.34,0.50,350.00,869.00,449.00,473.00,783.00,1904.00,2747.00,4095.00,,,,,,,,,,,,0,0,0,,-2616,16060,588,-53,125,-172
15.107,14.87,0.94,-0.34,0.55,1.15,-0.04,-0.62,2.09,0.52,-0.77,341.00,912.00,448.00,541.00,720.00,1933.00,2897.00,4095.00,,,,,,,,,,,,0,0,0,,-2632,16112,604,-114,116,-212
15.168,14.92,0.99,-2.80,4.18,-3.39,4.58,2.07,-0.36,-2.86,4.21,293.00,912.00,379.00,572.00,783.00,1856.00,2352.00,4095.00,,,,,,,,,,,,0,0,0,,-2580,15976,464,-102,80,-192
15.229,14.98,1.04,2.18,-0.94,4.93,-0.77,1.85,-1.01,1.68,-2.48,353.00,859.00,435.00,475.00,814.00,1905.00,3111.00,4095.00,,,,,,,,,,,,0,0,0,,-2604,16104,712,-110,59,-134
15.291,15.03,0.93,0.87,-1.37,2.32,-1.71,-1.12,2.15,-1.49,2.20,370.00,915.00,480.00,540.00,724.00,1968.00,2559.00,4095.00,,,,,,,,,,,,0,0,0,,-2588,16140,580,-192,152,-148
15.311,15.09,0.92,-3.76,4.50,-3.71,3.64,0.84,0.36,-0.69,1.01,293.00,939.00,401.00,594.00,770.00,1911.00,2689.00,4095.00,,,,,,,,,,,,0,0,0,,-2560,16032,720,-159,143,-167
15.394,15.14,0.98,0.52,-0.28,0.34,0.95,1.98,-1.45,0.95,-1.41,351.00,901.00,431.00,544.00,832.00,1918.00,2975.00,4095.00,,,,,,,,,,,,0,0,0,,-2536,16040,664,-107,168,-140
15.435,15.20,0.91,1.81,-3.08,2.80,-2.55,-0.34,0.40,-3.13,4.61,399.00,923.00,498.00,542.00,785.00,2000.00,2313.00,4095.00,,,,,,,,,,,,0,0,0,,-2640,16016,804,4,44,-161
15.539,15.25,0.87,-3.64,2.55,-3.52,1.82,0.08,0.91,1.31,-1.93,325.00,985.00,441.00,619.00,758.00,1941.00,3041.00,4095.00,,,,,,,,,,,,0,0,0,,-2468,16008,704,6,174,-299
15.56,15.31,0.95,-0.42,0.79,-1.62,2.76,2.43,-1.50,-1.05,1.54,337.00,909.00,405.00,560.00,827.00,1886.00,2630.00,4095.00,,,,,,,,,,,,0,0,0,,-2560,15956,688,-1,66,-298
15.602,15.36,0.94,2.76,-3.16,5.11,-2.64,0.87,-0.12,-1.20,1.77,394.00,891.00,480.00,496.00,790.00,1934.00,2605.00,4095.00,,,,,,,,,,,,0,0,0,,-2524,15976,476,141,-26,-139
15.664,15.42,0.87,-0.56,0.78,0.86,-0.02,-0.55,2.07,0.90,-1.33,338.00,914.00,450.00,547.00,720.00,1929.00,2965.00,4095.00,,,,,,,,,,,,0,0,0,,-2648,16140,716,39,232,-227
15.746,15.47,0.93,-2.17,3.28,-2.90,4.51,2.14,-0.41,-3.06,4.51,304.00,911.00,377.00,562.00,784.00,1853.00,2323.00,4095.00,,,,,,,,,,,,0,0,0,,-2604,15860,476,16,243,-138
15.766,15.53,0.96,1.73,0.07,4.19,-0.31,1.46,-0.67,1.12,-1.65,337.00,851.00,430.00,483.00,805.00,1917.00,3005.00,4095.00,,,,,,,,,,,,0,0,0,,-2568,16108,400,-74,98,-126
15.827,15.58,0.87,0.28,-0.40,1.58,-0.95,-0.80,2.02,-1.25,1.84,355.00,913.00,467.00,545.00,725.00,1950.00,2597.00,4095.00,,,,,,,,,,,,0,0,0,,-2600,16040,736,-99,50,-172
15.909,15.64,0.91,-4.55,5.87,-3.76,4.22,1.60,0.01,-1.64,2.42,276.00,934.00,389.00,586.00,774.00,1872.00,2535.00,4095.00,,,,,,,,,,,,0,0,0,,-2680,16104,732,-152,165,-151
15.929,15.69,0.96,1.43,-0.74,1.35,0.56,1.92,-1.10,1.12,-1.65,354.00,880.00,432.00,528.00,817.00,1904.00,3006.00,4095.00,,,,,,,,,,,,0,0,0,,-2520,16016,468,-168,174,-131
15.991,15.75,0.92,1.33,-1.92,3.47,-2.70,0.13,0.22,-3.20,4.72,378.00,912.00,496.00,530.00,786.00,1973.00,2303.00,4095.00,,,,,,,,,,,,0,0,0,,-2640,16084,524,-121,124,-174
16.051,15.80,0.88,-2.76,1.97,-3.37,2.15,0.18,0.87,0.97,-1.43,330.00,966.00,432.00,610.00,758.00,1935.00,2978.00,4095.00,,,,,,,,,,,,0,0,0,,-2668,15976,636,-6,98,-174
16.113,15.86,0.95,0.44,0.18,-1.03,2.29,2.31,-1.61,-0.55,0.82,343.00,893.00,411.00,554.00,834.00,1901.00,2711.00,4095.00,,,,,,,,,,,,0,0,0,,-2752,16048,472,-159,103,-112
16.174,15.91,0.89,2.78,-3.72,5.25,-3.30,-0.22,0.36,-1.98,2.92,406.00,904.00,496.00,502.00,785.00,1993.00,2483.00,4095.00,,,,,,,,,,,,0,0,0,,-2616,16092,604,-145,111,-73
16.215,15.97,0.78,-2.08,1.35,-1.09,0.47,-1.46,2.12,1.15,-1.69,337.00,956.00,454.00,583.00,730.00,1997.00,3011.00,4095.00,,,,,,,,,,,,0,0,0,,-2532,16068,460,-143,88,-85
16.276,16.02,0.81,-2.35,2.98,-3.20,4.03,1.40,-0.33,-2.79,4.11,310.00,925.00,389.00,576.00,791.00,1904.00,2362.00,4095.00,,,,,,,,,,,,0,0,0,,-2488,16008,728,-181,38,-68
16.317,16.08,0.80,1.26,-0.73,4.41,-1.54,0.60,-0.38,0.78,-1.16,355.00,886.00,458.00,495.00,805.00,1968.00,2944.00,4095.00,,,,,,,,,,,,0,0,0,,-2456,16196,672,-26,240,-127
16.399,16.13,0.70,-0.18,-0.46,0.13,-0.62,-1.21,2.01,-0.46,0.69,359.00,931.00,471.00,572.00,731.00,1983.00,2726.00,4095.00,,,,,,,,,,,,0,0,0,,-2632,16128,456,-141,226,-191
16.42,16.19,0.73,-3.83,4.52,-4.18,4.46,1.33,0.08,-2.17,3.20,293.00,941.00,387.00,592.00,775.00,1889.00,2454.00,4095.00,,,,,,,,,,,,0,0,0,,-2616,16008,616,-84,94,-174
16.482,16.24,0.77,2.70,-1.01,3.53,-0.46,1.66,-1.21,1.55,-2.28,351.00,843.00,439.00,498.00,826.00,1930.00,3086.00,4095.00,,,,,,,,,,,,0,0,0,,-2612,16020,640,2,100,-186
16.524,16.30,0.73,0.94,-1.34,1.69,-1.72,-0.17,0.72,-2.70,3.98,369.00,912.00,486.00,554.00,769.00,1970.00,2375.00,4095.00,,,,,,,,,,,,0,0,0,,-2624,16096,572,-106,134,-148
16.587,16.35,0.72,-2.50,2.45,-2.78,1.95,0.52,0.54,0.48,-0.70,320.00,944.00,432.00,599.00,767.00,1926.00,2889.00,4095.00,,,,,,,,,,,,0,0,0,,-2508,16076,456,-166,155,-120
16.649,16.41,0.80,1.11,-0.47,-0.28,1.85,2.43,-1.80,0.10,-0.14,351.00,885.00,415.00,544.00,841.00,1902.00,2822.00,4095.00,,,,,,,,,,,,0,0,0,,-2576,16072,652,-137,71,-163
16.691,16.46,0.75,2.25,-3.27,4.66,-3.10,-0.25,0.46,-2.52,3.72,400.00,912.00,496.00,511.00,781.00,1990.00,2401.00,4095.00,,,,,,,,,,,,0,0,0,,-2508,16060,888,-110,71,-125
16.751,16.52,0.69,-3.01,2.00,-2.30,1.24,-0.50,1.72,1.39,-2.05,331.00,975.00,445.00,599.00,733.00,1943.00,3056.00,4095.00,,,,,,,,,,,,0,0,0,,-2524,16056,504,-106,149,-148
16.812,16.57,0.74,-1.53,2.18,-2.95,4.19,1.79,-0.53,-2.31,3.41,319.00,915.00,384.00,568.00,794.00,1885.00,2433.00,4095.00,,,,,,,,,,,,0,0,0,,-2444,16116,584,-61,92,-159
16.874,16.63,0.74,1.44,-0.80,2.81,0.81,0.74,-0.27,0.15,-0.23,355.00,881.00,415.00,495.00,798.00,1951.00,2832.00,4095.00,,,,,,,,,,,,0,0,0,,-2512,16056,512,-59,44,-159
16.914,16.68,0.65,-0.30,0.00,0.69,-0.65,-1.05,2.06,0.13,-0.19,351.00,924.00,467.00,560.00,727.00,1968.00,2827.00,4095.00,,,,,,,,,,,,0,0,0,,-2528,16080,628,-188,52,-151
17.036,16.74,0.68,-3.23,3.76,-4.14,4.59,1.25,-0.09,-2.61,3.85,302.00,938.00,384.00,589.00,783.00,1903.00,2388.00,4095.00,,,,,,,,,,,,0,0,0,,-2476,16072,640,-154,80,-194
17.056,16.79,0.70,2.45,-1.34,3.96,-1.03,1.08,-1.02,1.71,-2.52,359.00,859.00,449.00,497.00,826.00,1964.00,3117.00,4095.00,,,,,,,,,,,,0,0,0,,-2592,16048,624,-63,39,-181
17.097,16.85,0.61,0.66,-1.93,1.37,-1.65,-1.23,1.49,-2.08,3.07,383.00,937.00,487.00,560.00,752.00,2012.00,2467.00,4095.00,,,,,,,,,,,,0,0,0,,-2576,15924,568,-164,-1,-144
17.158,16.90,0.57,-2.73,2.13,-3.20,1.84,-0.02,0.55,-0.08,0.12,327.00,961.00,438.00,611.00,774.00,1967.00,2791.00,4095.00,,,,,,,,,,,,0,0,0,,-2540,16120,844,-115,180,-24
17.198,16.96,0.65,0.53,-0.69,-0.69,1.25,2.02,-1.84,0.90,-1.33,359.00,911.00,432.00,562.00,849.00,1935.00,2966.00,4095.00,,,,,,,,,,,,0,0,0,,-2464,16092,564,-67,192,-251
17.24,17.01,0.57,1.72,-3.18,3.60,-2.97,-0.88,0.60,-2.82,4.16,402.00,929.00,502.00,531.00,784.00,2032.00,2357.00,4095.00,,,,,,,,,,,,0,0,0,,-2560,15948,604,-84,-13,-210
17.301,17.07,0.54,-3.24,2.30,-3.19,1.88,-0.13,1.17,1.56,-2.31,327.00,976.00,437.00,610.00,750.00,1943.00,3089.00,4095.00,,,,,,,,,,,,0,0,0,,-2652,15912,728,-57,48,-157
17.384,17.12,0.63,-0.65,1.54,-1.85,3.29,2.43,-1.34,-1.54,2.27,325.00,899.00,395.00,557.00,820.00,1878.00,2551.00,4095.00,,,,,,,,,,,,0,0,0,,-2632,16048,588,-62,219,-204
17.405,17.18,0.64,1.52,-0.61,5.04,-1.55,0.87,-0.15,-0.52,0.76,351.00,874.00,453.00,483.00,791.00,1935.00,2717.00,4095.00,,,,,,,,,,,,0,0,0,,-2536,16084,592,-72,149,-154
17.466,17.23,0.56,-0.32,0.27,0.16,0.13,-0.99,2.26,0.69,-1.02,346.00,918.00,452.00,560.00,718.00,1952.00,2928.00,4095.00,,,,,,,,,,,,0,0,0,,-2476,16044,716,-139,58,-167
17.528,17.29,0.62,-2.72,3.78,-2.88,4.21,1.75,-0.21,-2.86,4.21,299.00,919.00,383.00,566.00,781.00,1872.00,2352.00,4095.00,,,,,,,,,,,,0,0,0,,-2580,15996,724,-87,106,-183
17.571,17.34,0.66,2.29,-0.92,4.20,-0.86,1.38,-0.80,1.57,-2.32,352.00,855.00,443.00,490.00,812.00,1930.00,3091.00,4095.00,,,,,,,,,,,,0,0,0,,-2576,15988,512,-138,156,-140
17.631,17.40,0.56,0.37,-0.95,1.33,-0.10,-1.40,2.33,-1.55,2.29,365.00,923.00,448.00,538.00,721.00,1981.00,2549.00,4095.00,,,,,,,,,,,,0,0,0,,-2524,16112,584,-129,67,-174
17.692,17.45,0.56,-4.44,5.11,-4.29,4.30,0.61,0.41,-0.83,1.22,287.00,949.00,391.00,597.00,771.00,1926.00,2666.00,4095.00,,,,,,,,,,,,0,0,0,,-2540,16068,652,-110,45,-192
17.755,17.51,0.61,0.49,-0.26,-0.22,1.09,1.58,-1.10,1.12,-1.65,351.00,902.00,432.00,554.00,822.00,1930.00,3006.00,4095.00,,,,,,,,,,,,0,0,0,,-2528,15972,872,-143,54,-191
17.816,17.56,0.55,1.12,-2.37,2.88,-2.39,-0.59,0.65,-2.97,4.39,389.00,931.00,493.00,538.00,778.00,2007.00,2335.00,4095.00,,,,,,,,,,,,0,0,0,,-2512,16008,652,-177,140,-144
17.858,17.62,0.51,-3.81,2.83,-3.78,1.91,-0.25,1.14,1.44,-2.12,321.00,984.00,441.00,624.00,753.00,1954.00,3065.00,4095.00,,,,,,,,,,,,0,0,0,,-2512,16156,524,-113,99,-187
17.92,17.67,0.59,-0.06,-0.03,-1.54,2.23,2.18,-1.81,-0.69,1.01,350.00,916.00,416.00,566.00,845.00,1921.00,2689.00,4095.00,,,,,,,,,,,,0,0,0,,-2668,16000,780,-59,48,-176
17.98,17.73,0.56,1.75,-3.10,3.22,-2.54,-0.13,0.12,-1.18,1.74,400.00,926.00,494.00,533.00,794.00,1999.00,2608.00,4095.00,,,,,,,,,,,,0,0,0,,-2552,16128,596,-81,145,-23
18.021,17.78,0.46,-1.29,0.39,-0.67,0.37,-1.45,2.32,1.11,-1.64,350.00,951.00,453.00,575.00,722.00,1985.00,3004.00,4095.00,,,,,,,,,,,,0,0,0,,-2448,16212,580,-100,201,-227
18.125,17.84,0.51,-2.25,2.60,-3.82,4.24,1.48,-0.19,-2.75,4.06,316.00,931.00,389.00,587.00,784.00,1891.00,2367.00,4095.00,,,,,,,,,,,,0,0,0,,-2468,15924,436,-123,64,-186
18.145,17.89,0.53,1.67,-0.66,4.35,-0.61,0.96,-0.29,0.59,-0.88,351.00,870.00,436.00,484.00,796.00,1936.00,2910.00,4095.00,,,,,,,,,,,,0,0,0,,-2552,16064,696,-120,5,-108
18.187,17.95,0.44,-0.01,-0.31,0.97,-0.67,-1.19,2.25,-0.79,1.17,355.00,921.00,465.00,554.00,721.00,1968.00,2671.00,4095.00,,,,,,,,,,,,0,0,0,,-2452,16212,716,-10,201,-139
18.247,18.00,0.50,-4.13,5.01,-4.42,4.87,1.60,0.01,-1.66,2.44,287.00,940.00,380.00,591.00,774.00,1872.00,2533.00,4095.00,,,,,,,,,,,,0,0,0,,-2556,16068,500,-51,187,-216
18.31,18.06,0.57,3.73,-3.49,2.04,0.76,1.87,-1.22,1.42,-2.09,394.00,865.00,422.00,511.00,823.00,1914.00,3061.00,4095.00,,,,,,,,,,,,0,0,0,,-2556,15968,520,-78,121,-165
18.372,18.11,0.53,1.29,-1.90,3.04,-2.06,-0.20,0.59,-2.86,4.21,378.00,913.00,483.00,530.00,775.00,1979.00,2352.00,4095.00,,,,,,,,,,,,0,0,0,,-2620,16008,616,0,143,-142
18.414,18.17,0.51,-3.32,2.72,-3.59,2.23,0.17,1.00,0.97,-1.43,320.00,968.00,432.00,614.00,753.00,1929.00,2978.00,4095.00,,,,,,,,,,,,0,0,0,,-2512,16116,468,-26,156,-114
18.496,18.22,0.61,0.55,-0.02,-0.34,1.87,2.36,-1.65,-0.20,0.30,346.00,894.00,415.00,545.00,835.00,1899.00,2770.00,4095.00,,,,,,,,,,,,0,0,0,,-2588,16032,572,-64,153,-131
18.516,18.28,0.57,2.60,-3.34,5.02,-3.03,-0.18,0.42,-1.98,2.93,399.00,901.00,491.00,503.00,782.00,1987.00,2482.00,4095.00,,,,,,,,,,,,0,0,0,,-2564,16040,408,-88,133,-161
18.576,18.33,0.50,-2.62,1.42,-2.12,0.98,-0.82,2.00,1.38,-2.03,339.00,975.00,450.00,599.00,726.00,1953.00,3054.00,4095.00,,,,,,,,,,,,0,0,0,,-2504,16084,632,-124,104,-186
18.639,18.39,0.55,-2.24,3.07,-2.66,4.09,1.60,-0.49,-2.49,3.67,308.00,919.00,384.00,563.00,795.00,1897.00,2406.00,4095.00,,,,,,,,,,,,0,0,0,,-2564,16076,688,-78,112,-173
18.681,18.44,0.56,0.53,-0.49,4.02,-0.96,0.74,-0.47,0.78,-1.16,355.00,906.00,447.00,495.00,807.00,1962.00,2944.00,4095.00,,,,,,,,,,,,0,0,0,,-2560,15988,556,-51,135,-147
18.743,18.50,0.48,-0.31,-0.67,0.41,-0.44,-1.17,1.94,-0.15,0.22,364.00,941.00,464.00,563.00,733.00,1983.00,2779.00,4095.00,,,,,,,,,,,,0,0,0,,-2500,16084,684,-61,97,-158
18.786,18.55,0.51,-3.74,3.99,-4.11,4.29,1.17,-0.08,-2.14,3.15,301.00,951.00,390.00,593.00,784.00,1909.00,2459.00,4095.00,,,,,,,,,,,,0,0,0,,-2556,15960,744,1,75,-177
18.847,18.61,0.56,1.67,-0.87,3.21,-0.73,1.43,-1.34,1.72,-2.54,355.00,875.00,448.00,508.00,835.00,1954.00,3119.00,4095.00,,,,,,,,,,,,0,0,0,,-2496,16024,552,-77,182,-224
18.91,18.66,0.50,0.53,-1.99,1.44,-1.57,-0.53,0.79,-2.33,3.43,385.00,943.00,484.00,557.00,771.00,1994.00,2430.00,4095.00,,,,,,,,,,,,0,0,0,,-2560,16108,660,-159,105,-230
18.953,18.72,0.49,-3.00,2.33,-3.29,2.21,0.19,0.89,0.44,-0.65,325.00,966.00,430.00,607.00,757.00,1933.00,2883.00,4095.00,,,,,,,,,,,,0,0,0,,-2524,16088,588,46,105,-171
19.013,18.77,0.57,0.11,0.13,-0.42,1.86,2.23,-1.65,0.35,-0.51,346.00,906.00,416.00,547.00,837.00,1909.00,2866.00,4095.00,,,,,,,,,,,,0,0,0,,-2544,16096,448,-28,105,-151
19.054,18.83,0.53,1.77,-2.97,3.72,-2.78,-0.28,0.62,-2.59,3.82,397.00,922.00,496.00,526.00,775.00,1984.00,2391.00,4095.00,,,,,,,,,,,,0,0,0,,-2572,16024,656,-8,169,-180
19.12,18.88,0.49,-2.98,1.98,-2.41,1.28,-0.34,1.61,1.94,-2.86,331.00,974.00,445.00,601.00,735.00,1936.00,3162.00,4095.00,,,,,,,,,,,,0,0,0,,-2588,16084,404,75,188,-138
19.224,18.94,0.55,-1.11,1.81,-2.32,3.78,1.83,-0.31,-2.06,3.03,323.00,909.00,388.00,560.00,784.00,1871.00,2471.00,4095.00,,,,,,,,,,,,0,0,0,,-2568,16000,520,-112,53,-150
19.245,18.99,0.57,1.12,-0.53,4.25,-1.00,0.91,-0.23,-0.02,0.04,352.00,886.00,446.00,491.00,794.00,1936.00,2801.00,4095.00,,,,,,,,,,,,0,0,0,,-2548,16116,472,-136,76,-107
19.287,19.05,0.50,-0.63,0.16,1.06,-0.46,-0.79,2.07,0.30,-0.44,350.00,932.00,459.00,549.00,723.00,1947.00,2857.00,4095.00,,,,,,,,,,,,0,0,0,,-2488,16076,608,-104,121,-146
19.329,19.10,0.56,-3.27,4.02,-3.62,4.46,1.66,-0.30,-2.76,4.07,298.00,933.00,383.00,579.00,786.00,1883.00,2366.00,4095.00,,,,,,,,,,,,0,0,0,,-2556,16212,368,-133,143,-169
19.391,19.16,0.60,2.19,-1.25,3.77,-0.29,1.32,-0.88,1.64,-2.41,359.00,866.00,433.00,491.00,816.00,1938.00,3103.00,4095.00,,,,,,,,,,,,0,0,0,,-2508,16140,436,-129,79,-181
19.453,19.21,0.52,0.42,-1.66,1.92,-1.46,-1.03,1.72,-2.00,2.95,379.00,939.00,477.00,545.00,740.00,1984.00,2480.00,4095.00,,,,,,,,,,,,0,0,0,,-2584,15948,672,-33,65,-170
19.494,19.27,0.51,-2.85,2.56,-2.87,2.46,0.38,0.51,-0.29,0.42,320.00,954.00,421.00,593.00,770.00,1938.00,2756.00,4095.00,,,,,,,,,,,,0,0,0,,-2460,16088,408,-111,144,-160
19.618,19.32,0.59,0.40,-0.55,-0.34,1.13,1.98,-1.81,0.82,-1.21,357.00,912.00,432.00,556.00,848.00,1936.00,2951.00,4095.00,,,,,,,,,,,,0,0,0,,-2540,16148,524,-153,118,-145
19.639,19.38,0.53,1.12,-2.89,3.04,-2.55,-0.50,0.45,-2.92,4.31,400.00,944.00,496.00,537.00,785.00,2010.00,2343.00,4095.00,,,,,,,,,,,,0,0,0,,-2428,16036,836,-156,109,-152
19.68,19.43,0.49,-3.81,2.26,-3.31,1.88,-0.31,1.13,1.60,-2.37,331.00,999.00,438.00,613.00,754.00,1959.00,3097.00,4095.00,,,,,,,,,,,,0,0,0,,-2400,16048,516,-76,159,-264
19.743,19.49,0.59,-0.81,1.03,-2.68,3.86,2.55,-1.74,-1.31,1.94,335.00,917.00,389.00,567.00,836.00,1889.00,2587.00,4095.00,,,,,,,,,,,,0,0,0,,-2600,16048,592,-183,106,-199
19.804,19.54,0.60,1.47,-1.47,4.62,-1.69,0.76,-0.09,-0.69,1.01,368.00,896.00,460.00,493.00,790.00,1940.00,2689.00,4095.00,,,,,,,,,,,,0,0,0,,-2540,16124,724,9,123,-145
19.824,19.60,0.54,-0.66,0.49,0.35,-0.22,-0.68,2.09,0.69,-1.02,344.00,925.00,459.00,561.00,721.00,1938.00,2928.00,4095.00,,,,,,,,,,,,0,0,0,,-2520,16112,452,32,139,-244
19.886,19.65,0.62,-2.56,3.54,-3.04,4.66,2.13,-0.41,-2.97,4.38,302.00,919.00,375.00,563.00,784.00,1854.00,2336.00,4095.00,,,,,,,,,,,,0,0,0,,-2664,15976,328,-27,95,-134
19.969,19.71,0.66,2.08,-1.01,4.57,-0.94,1.40,-0.70,1.47,-2.17,355.00,864.00,442.00,484.00,807.00,1923.00,3071.00,4095.00,,,,,,,,,,,,0,0,0,,-2548,16128,408,-65,59,-114
19.989,19.76,0.57,0.69,-1.26,1.25,-1.08,-1.04,2.15,-1.51,2.23,369.00,919.00,473.00,554.00,723.00,1962.00,2556.00,4095.00,,,,,,,,,,,,0,0,0,,-2584,16084,512,-161,114,-145
20.05,19.82,0.59,-4.52,5.27,-3.94,4.23,0.92,0.38,-0.97,1.42,285.00,948.00,390.00,590.00,768.00,1904.00,2643.00,4095.00,,,,,,,,,,,,0,0,0,,-2500,16132,384,-248,56,-96
20.113,19.87,0.66,0.76,-0.46,0.54,0.92,2.11,-1.43,1.13,-1.67,353.00,897.00,430.00,540.00,829.00,1907.00,3008.00,4095.00,,,,,,,,,,,,0,0,0,,-2448,16004,616,-115,169,-134
20.176,19.93,0.62,0.89,-2.15,3.36,-2.88,-0.30,0.55,-3.00,4.43,386.00,934.00,502.00,535.00,778.00,1989.00,2331.00,4095.00,,,,,,,,,,,,0,0,0,,-2468,16084,376,-160,113,-203
20.237,19.98,0.62,-3.48,2.38,-2.96,1.84,0.62,0.85,1.36,-2.01,327.00,983.00,436.00,605.00,753.00,1903.00,3051.00,4095.00,,,,,,,,,,,,0,0,0,,-2564,16092,540,-197,-24,-179
20.32,20.04,0.72,-0.32,0.27,-1.21,2.62,2.64,-1.90,-0.72,1.07,346.00,918.00,405.00,553.00,842.00,1891.00,2683.00,4095.00,,,,,,,,,,,,0,0,0,,-2564,16056,672,-140,71,-192
20.341,20.09,0.69,2.36,-3.81,5.41,-3.09,0.16,0.14,-1.28,1.89,411.00,921.00,489.00,496.00,789.00,1975.00,2592.00,4095.00,,,,,,,,,,,,0,0,0,,-2476,16016,572,-200,113,-207
20.381,20.15,0.60,-1.23,0.42,-0.59,0.50,-1.13,2.26,1.19,-1.76,349.00,948.00,449.00,571.00,720.00,1963.00,3019.00,4095.00,,,,,,,,,,,,0,0,0,,-2564,15972,572,-110,56,-124
20.443,20.20,0.65,-2.63,2.84,-4.04,5.14,1.72,-0.48,-2.68,3.95,314.00,939.00,372.00,578.00,793.00,1888.00,2378.00,4095.00,,,,,,,,,,,,0,0,0,,-2568,16124,600,-91,126,-78
20.505,20.26,0.68,1.30,-1.01,3.99,-0.99,1.16,-0.62,1.23,-1.81,360.00,891.00,448.00,496.00,807.00,1937.00,3026.00,4095.00,,,,,,,,,,,,0,0,0,,-2536,16132,436,-176,174,-211
20.546,20.31,0.59,-0.53,-0.34,0.68,-0.57,-1.11,2.25,-0.79,1.16,359.00,941.00,465.00,559.00,720.00,1962.00,2672.00,4095.00,,,,,,,,,,,,0,0,0,,-2500,16020,556,-165,-47,-222
20.608,20.37,0.64,-4.82,5.83,-4.14,4.59,1.69,0.10,-1.62,2.38,278.00,945.00,384.00,589.00,769.00,1861.00,2539.00,4095.00,,,,,,,,,,,,0,0,0,,-2496,16064,832,-7,-9,-191
20.69,20.42,0.71,1.96,-0.65,2.75,0.10,1.95,-1.02,1.40,-2.07,349.00,860.00,432.00,506.00,813.00,1898.00,3059.00,4095.00,,,,,,,,,,,,0,0,0,,-2528,16012,580,-60,114,-205
20.711,20.48,0.68,0.95,-1.44,2.96,-1.81,0.06,0.65,-2.86,4.21,371.00,914.00,477.00,528.00,769.00,1956.00,2352.00,4095.00,,,,,,,,,,,,0,0,0,,-2500,16180,464,-67,-5,-183
20.773,20.53,0.67,-2.93,2.42,-3.21,2.10,0.61,0.90,1.03,-1.53,323.00,961.00,432.00,607.00,751.00,1901.00,2990.00,4095.00,,,,,,,,,,,,0,0,0,,-2508,16080,520,-45,16,-220
20.813,20.59,0.78,0.59,-0.09,-0.45,2.45,2.70,-1.63,-0.20,0.30,347.00,894.00,403.00,539.00,829.00,1873.00,2770.00,4095.00,,,,,,,,,,,,0,0,0,,-2500,16024,608,-105,142,-181
20.874,20.64,0.76,2.90,-3.49,5.44,-3.14,0.48,0.19,-1.95,2.88,400.00,894.00,490.00,496.00,782.00,1947.00,2487.00,4095.00,,,,,,,,,,,,0,0,0,,-2624,16052,544,-31,137,-153
20.935,20.70,0.70,-1.92,1.52,-1.42,1.29,-0.46,2.09,1.36,-2.00,333.00,946.00,437.00,578.00,718.00,1921.00,3050.00,4095.00,,,,,,,,,,,,0,0,0,,-2648,16016,528,-53,86,-198
20.995,20.75,0.77,-2.01,2.93,-2.71,4.69,2.13,-0.41,-2.57,3.79,309.00,914.00,372.00,555.00,784.00,1854.00,2394.00,4095.00,,,,,,,,,,,,0,0,0,,-2556,15916,672,-78,69,-174
21.079,20.81,0.79,1.45,-0.64,5.16,-1.35,1.21,-0.26,0.82,-1.21,352.00,877.00,447.00,478.00,791.00,1915.00,2951.00,4095.00,,,,,,,,,,,,0,0,0,,-2464,16096,596,-97,94,-152
21.099,20.86,0.71,-0.20,-0.35,0.89,-0.48,-0.77,2.14,-0.23,0.34,357.00,929.00,461.00,553.00,720.00,1942.00,2766.00,4095.00,,,,,,,,,,,,0,0,0,,-2680,16060,456,-176,134,-130
21.162,20.92,0.76,-3.82,4.39,-3.84,4.53,1.70,0.05,-2.06,3.03,295.00,944.00,383.00,583.00,771.00,1863.00,2471.00,4095.00,,,,,,,,,,,,0,0,0,,-2596,16040,500,-149,84,-130
21.224,20.97,0.81,2.43,-0.92,3.51,-0.29,1.71,-1.07,1.72,-2.54,351.00,850.00,435.00,496.00,819.00,1919.00,3120.00,4095.00,,,,,,,,,,,,0,0,0,,-2604,15976,796,-89,62,-106
21.306,21.03,0.76,0.09,-1.25,2.00,-1.72,-0.16,0.74,-2.42,3.57,373.00,941.00,483.00,547.00,768.00,1968.00,2416.00,4095.00,,,,,,,,,,,,0,0,0,,-2568,16100,652,14,175,-142
21.327,21.08,0.75,-3.14,2.38,-3.49,2.32,0.49,0.74,0.52,-0.76,325.00,970.00,429.00,610.00,759.00,1918.00,2896.00,4095.00,,,,,,,,,,,,0,0,0,,-2516,16060,556,-78,153,-235
21.369,21.14,0.85,1.21,-1.08,0.26,1.54,2.81,-1.78,0.23,-0.34,362.00,896.00,418.00,537.00,834.00,1872.00,2845.00,4095.00,,,,,,,,,,,,0,0,0,,-2620,16008,648,-43,62,-109
21.431,21.19,0.84,2.23,-3.08,1.45,-1.64,0.60,0.25,-2.54,3.75,396.00,908.00,486.00,558.00,778.00,1935.00,2398.00,4095.00,,,,,,,,,,,,0,0,0,,-2496,16064,612,22,196,-128
21.514,21.25,0.81,-2.27,1.53,-2.25,1.73,0.25,1.72,1.46,-2.16,335.00,959.00,433.00,590.00,723.00,1886.00,3070.00,4095.00,,,,,,,,,,,,0,0,0,,-2500,16096,584,-6,231,-176
21.534,21.30,0.91,-0.57,1.80,-1.72,4.26,2.88,-0.66,-2.21,3.26,320.00,890.00,374.00,540.00,784.00,1812.00,2448.00,4095.00,,,,,,,,,,,,0,0,0,,-2548,16152,460,53,205,-116
21.595,21.36,0.96,2.11,-1.48,5.13,-0.75,1.87,-0.39,0.06,-0.09,364.00,874.00,433.00,471.00,787.00,1872.00,2816.00,4095.00,,,,,,,,,,,,0,0,0,,-2368,16168,440,-28,195,-152
21.657,21.41,0.89,0.21,-0.07,1.30,-0.34,-0.47,2.43,0.12,-0.18,349.00,907.00,454.00,542.00,705.00,1904.00,2826.00,4095.00,,,,,,,,,,,,0,0,0,,-2460,16100,304,-101,100,-196
21.699,21.47,0.98,-3.02,4.51,-2.78,4.13,2.77,-0.22,-2.73,4.02,289.00,912.00,384.00,565.00,767.00,1798.00,2371.00,4095.00,,,,,,,,,,,,0,0,0,,-2568,16052,480,-66,113,-153
21.801,21.52,1.05,2.63,-1.04,5.09,-0.69,2.35,-1.20,1.68,-2.48,352.00,846.00,432.00,471.00,815.00,1877.00,3111.00,4095.00,,,,,,,,,,,,0,0,0,,-2608,16204,504,-169,123,-149
21.821,21.58,0.98,1.31,-1.76,2.68,-1.75,-0.32,1.68,-2.18,3.22,375.00,909.00,478.00,533.00,732.00,1931.00,2452.00,4095.00,,,,,,,,,,,,0,0,0,,-2580,16036,596,-144,108,-142
21.862,21.63,0.99,-2.47,2.44,-2.81,2.44,1.07,0.69,-0.12,0.18,320.00,943.00,421.00,592.00,753.00,1877.00,2784.00,4095.00,,,,,,,,,,,,0,0,0,,-2468,15992,504,-137,81,-108
21.924,21.69,1.08,1.06,-0.62,0.34,1.29,2.92,-1.91,0.64,-0.94,354.00,890.00,423.00,539.00,838.00,1870.00,2918.00,4095.00,,,,,,,,,,,,0,0,0,,-2468,16200,460,-162,132,-53
21.985,21.74,1.04,1.85,-3.14,4.63,-3.05,0.17,0.54,-2.86,4.21,400.00,923.00,495.00,511.00,772.00,1953.00,2352.00,4095.00,,,,,,,,,,,,0,0,0,,-2456,16172,556,-168,117,-139
22.046,21.80,1.00,-2.94,2.08,-2.96,1.97,0.18,1.41,1.59,-2.34,329.00,970.00,433.00,603.00,736.00,1907.00,3094.00,4095.00,,,,,,,,,,,,0,0,0,,-2456,16020,660,-84,83,-170
22.108,21.85,1.09,-0.82,1.26,-2.31,3.97,2.82,-1.45,-1.49,2.20,331.00,912.00,384.00,557.00,819.00,1855.00,2559.00,4095.00,,,,,,,,,,,,0,0,0,,-2540,15996,468,-68,177,-256
22.189,21.91,1.10,1.56,-0.83,4.26,-0.71,1.33,-0.19,-0.41,0.61,355.00,878.00,439.00,487.00,786.00,1902.00,2735.00,4095.00,,,,,,,,,,,,0,0,0,,-2540,16068,448,-215,84,-232
22.21,21.96,1.04,-0.48,0.76,1.37,-0.24,-0.04,2.05,0.60,-0.89,338.00,912.00,451.00,539.00,714.00,1891.00,2911.00,4095.00,,,,,,,,,,,,0,0,0,,-2504,16048,648,-55,85,-148
22.251,22.02,1.12,-2.78,3.73,-3.23,5.07,2.63,-0.20,-2.83,4.17,300.00,922.00,368.00,561.00,768.00,1807.00,2356.00,4095.00,,,,,,,,,,,,0,0,0,,-2508,15996,608,20,149,-218
22.312,22.07,1.18,2.70,-1.01,5.16,-0.72,2.21,-0.50,1.53,-2.26,351.00,843.00,432.00,470.00,787.00,1853.00,3083.00,4095.00,,,,,,,,,,,,0,0,0,,-2472,15972,512,-8,147,-137
22.373,22.13,1.10,1.34,-1.47,2.70,-1.21,-0.34,2.41,-1.67,2.47,369.00,901.00,464.00,525.00,704.00,1895.00,2530.00,4095.00,,,,,,,,,,,,0,0,0,,-2480,16068,436,-37,98,-126
22.416,22.18,1.12,-3.90,5.19,-3.48,4.51,1.50,0.70,-0.79,1.16,283.00,927.00,381.00,575.00,747.00,1845.00,2672.00,4095.00,,,,,,,,,,,,0,0,0,,-2504,16140,396,-159,78,-111
22.477,22.24,1.21,1.30,-0.33,0.70,1.52,2.95,-1.38,0.87,-1.28,347.00,875.00,415.00,528.00,814.00,1842.00,2960.00,4095.00,,,,,,,,,,,,0,0,0,,-2484,16132,416,-121,83,-125
22.519,22.29,1.18,2.61,-3.39,4.75,-2.87,0.48,0.79,-3.04,4.48,400.00,902.00,489.00,506.00,757.00,1916.00,2326.00,4095.00,,,,,,,,,,,,0,0,0,,-2468,16196,520,-92,106,-141
22.6,22.35,1.16,-2.33,2.16,-2.54,2.05,0.96,1.23,1.38,-2.03,324.00,945.00,428.00,592.00,733.00,1858.00,3054.00,4095.00,,,,,,,,,,,,0,0,0,,-2520,16088,416,-94,239,-145
22.662,22.40,1.28,0.38,0.52,-1.21,3.36,3.43,-1.59,-1.04,1.53,337.00,887.00,389.00,542.00,816.00,1817.00,2631.00,4095.00,,,,,,,,,,,,0,0,0,,-2552,15980,440,-189,243,-143
22.703,22.46,1.29,3.25,-3.37,6.46,-2.94,1.52,-0.04,-1.04,1.53,395.00,879.00,476.00,474.00,777.00,1880.00,2631.00,4095.00,,,,,,,,,,,,0,0,0,,-2460,16080,456,-294,83,-128
22.786,22.51,1.22,-0.44,0.69,0.96,0.23,-0.07,2.14,0.96,-1.42,339.00,912.00,443.00,541.00,711.00,1889.00,2977.00,4095.00,,,,,,,,,,,,0,0,0,,-2528,16060,644,-201,51,-167
22.807,22.57,1.29,-2.15,3.22,-3.41,4.93,2.57,-0.39,-2.84,4.18,305.00,912.00,372.00,567.00,777.00,1821.00,2355.00,4095.00,,,,,,,,,,,,0,0,0,,-2512,16048,652,-103,94,-162
22.891,22.62,1.32,1.82,-0.71,4.93,-0.77,1.94,-0.70,1.39,-2.05,351.00,866.00,435.00,475.00,799.00,1882.00,3056.00,4095.00,,,,,,,,,,,,0,0,0,,-2540,16148,500,1,251,-144
22.911,22.68,1.19,0.55,-0.80,1.96,-0.96,-1.23,2.53,-1.08,1.59,361.00,913.00,464.00,537.00,711.00,1957.00,2625.00,4095.00,,,,,,,,,,,,0,0,0,,-2440,16204,516,-107,182,-202
22.974,22.73,1.25,-3.85,4.91,-3.94,5.25,2.27,0.19,-1.33,1.96,287.00,932.00,369.00,574.00,757.00,1814.00,2585.00,4095.00,,,,,,,,,,,,0,0,0,,-2496,15964,424,-55,58,-197
23.015,22.79,1.35,1.61,-0.48,1.73,1.22,3.23,-1.45,1.24,-1.84,348.00,868.00,414.00,511.00,813.00,1825.00,3029.00,4095.00,,,,,,,,,,,,0,0,0,,-2524,15980,592,31,91,-149
23.075,22.84,1.31,1.90,-2.01,4.57,-2.23,0.58,0.96,-3.00,4.43,376.00,894.00,474.00,501.00,749.00,1900.00,2331.00,4095.00,,,,,,,,,,,,0,0,0,,-2632,16108,372,-52,154,-109
23.136,22.90,1.31,-2.40,2.30,-2.78,2.52,1.42,1.00,1.10,-1.63,322.00,944.00,419.00,590.00,736.00,1836.00,3003.00,4095.00,,,,,,,,,,,,0,0,0,,-2432,16056,464,-52,137,-99
23.177,22.95,1.43,1.52,-0.40,-0.27,2.95,3.69,-1.65,-0.51,0.76,347.00,869.00,391.00,528.00,815.00,1802.00,2718.00,4095.00,,,,,,,,,,,,0,0,0,,-2592,16096,480,-63,73,-124
23.281,23.01,1.42,3.53,-3.70,6.11,-2.67,1.10,0.37,-1.68,2.48,400.00,877.00,472.00,477.00,766.00,1891.00,2529.00,4095.00,,,,,,,,,,,,0,0,0,,-2532,16144,456,-183,82,-33
23.3,23.06,1.36,-0.41,0.74,0.63,0.72,0.36,2.10,1.12,-1.65,338.00,910.00,434.00,541.00,707.00,1859.00,3005.00,4095.00,,,,,,,,,,,,0,0,0,,-2324,16148,388,-142,167,-88
23.341,23.12,1.44,-1.29,2.57,-2.30,4.70,2.83,-0.38,-2.76,4.07,311.00,897.00,369.00,546.00,773.00,1802.00,2366.00,4095.00,,,,,,,,,,,,0,0,0,,-2524,16092,404,-186,132,-185
23.423,23.17,1.47,2.29,-0.71,5.41,-0.84,2.01,-0.32,0.98,-1.45,348.00,850.00,433.00,467.00,782.00,1858.00,2980.00,4095.00,,,,,,,,,,,,0,0,0,,-2544,16024,436,-145,66,-193
23.465,23.23,1.39,0.21,-0.07,2.30,-0.83,-0.09,2.14,-0.57,0.83,349.00,907.00,458.00,528.00,711.00,1890.00,2709.00,4095.00,,,,,,,,,,,,0,0,0,,-2480,16040,452,-167,76,-237
23.526,23.28,1.43,-4.04,4.91,-3.98,5.32,2.19,0.17,-1.78,2.62,288.00,939.00,368.00,574.00,759.00,1821.00,2514.00,4095.00,,,,,,,,,,,,0,0,0,,-2536,16004,528,-267,101,-239
23.567,23.34,1.48,2.60,-1.08,4.63,-0.32,2.49,-1.04,1.57,-2.32,353.00,848.00,427.00,475.00,806.00,1859.00,3091.00,4095.00,,,,,,,,,,,,0,0,0,,-2528,15988,680,-193,16,-185
23.629,23.39,1.42,1.30,-1.95,2.87,-1.46,0.26,0.75,-2.50,3.68,379.00,914.00,469.00,525.00,762.00,1935.00,2405.00,4095.00,,,,,,,,,,,,0,0,0,,-2484,16036,720,-102,107,-43
23.692,23.45,1.40,-2.79,2.09,-3.68,2.91,1.09,0.88,0.88,-1.30,328.00,964.00,417.00,605.00,745.00,1866.00,2962.00,4095.00,,,,,,,,,,,,0,0,0,,-2468,16144,632,-37,170,-187
23.732,23.50,1.49,1.23,-0.57,-0.17,2.31,3.05,-1.39,0.05,-0.07,352.00,883.00,404.00,535.00,813.00,1835.00,2813.00,4095.00,,,,,,,,,,,,0,0,0,,-2436,16052,608,-116,79,-216
23.793,23.56,1.46,2.78,-3.36,5.54,-3.21,0.92,0.38,-2.10,3.10,398.00,895.00,491.00,495.00,768.00,1904.00,2464.00,4095.00,,,,,,,,,,,,0,0,0,,-2540,16164,636,-28,-11,-163
23.853,23.61,1.42,-1.82,1.48,-1.38,1.48,0.63,2.06,1.47,-2.17,333.00,943.00,432.00,574.00,705.00,1841.00,3071.00,4095.00,,,,,,,,,,,,0,0,0,,-2552,16168,704,13,235,-223
23.915,23.67,1.50,-1.17,2.89,-3.83,8.14,3.03,-0.11,-2.42,3.57,305.00,885.00,315.00,529.00,759.00,1775.00,2416.00,4095.00,,,,,,,,,,,,0,0,0,,-2476,16012,540,-57,189,-199
23.999,23.72,1.54,2.10,-0.38,5.66,-0.97,2.41,-0.36,0.52,-0.76,343.00,849.00,434.00,464.00,778.00,1831.00,2896.00,4095.00,,,,,,,,,,,,0,0,0,,-2560,16068,460,-58,38,-110
24.018,23.78,1.48,0.65,-0.21,1.76,0.17,0.22,2.38,-0.09,0.14,349.00,895.00,438.00,525.00,698.00,1855.00,2789.00,4095.00,,,,,,,,,,,,0,0,0,,-2584,16032,528,-136,90,-209
24.06,23.83,1.55,-2.33,3.77,-2.42,4.94,2.93,-0.03,-2.29,3.39,297.00,905.00,365.00,545.00,757.00,1778.00,2435.00,4095.00,,,,,,,,,,,,0,0,0,,-2512,15984,592,-131,190,-147
24.122,23.89,1.61,2.98,-0.84,4.83,0.09,2.75,-0.97,1.62,-2.38,346.00,830.00,416.00,466.00,799.00,1836.00,3099.00,4095.00,,,,,,,,,,,,0,0,0,,-2516,16060,724,-82,99,-111
24.185,23.94,1.58,1.48,-1.52,3.58,-1.51,0.95,0.91,-2.35,3.46,369.00,897.00,464.00,511.00,746.00,1875.00,2427.00,4095.00,,,,,,,,,,,,0,0,0,,-2448,16108,500,-48,131,-144
24.227,24.00,1.58,-1.99,1.93,-2.59,2.81,1.59,0.67,0.31,-0.46,326.00,938.00,411.00,581.00,747.00,1840.00,2860.00,4095.00,,,,,,,,,,,,0,0,0,,-2384,16144,472,-48,234,-128
24.289,24.05,1.67,1.36,-0.51,0.37,2.22,3.36,-1.72,0.42,-0.62,350.00,877.00,402.00,525.00,823.00,1829.00,2879.00,4095.00,,,,,,,,,,,,0,0,0,,-2508,15968,524,-123,228,-150
24.37,24.11,1.63,2.50,-3.35,5.18,-2.82,0.86,0.45,-2.59,3.82,400.00,905.00,484.00,497.00,766.00,1905.00,2391.00,4095.00,,,,,,,,,,,,0,0,0,,-2488,16060,560,-257,154,-119
24.39,24.16,1.55,-2.34,1.55,-2.47,1.81,0.15,2.17,1.59,-2.35,335.00,961.00,433.00,594.00,707.00,1871.00,3095.00,4095.00,,,,,,,,,,,,0,0,0,,-2488,16140,744,-204,19,-112
24.451,24.22,1.62,-0.67,1.49,-1.90,4.32,2.87,-0.61,-1.95,2.87,326.00,901.00,374.00,543.00,782.00,1810.00,2488.00,4095.00,,,,,,,,,,,,0,0,0,,-2416,16180,716,-74,218,-1
24.513,24.27,1.63,1.31,-0.59,5.08,-0.99,1.81,-0.28,0.02,-0.03,352.00,881.00,439.00,475.00,783.00,1871.00,2809.00,4095.00,,,,,,,,,,,,0,0,0,,-2460,16100,408,-143,248,-197
24.554,24.33,1.55,0.07,0.14,1.15,-0.04,0.05,2.36,0.27,-0.40,346.00,907.00,448.00,541.00,701.00,1869.00,2853.00,4095.00,,,,,,,,,,,,0,0,0,,-2476,16108,664,-124,135,-127
24.616,24.38,1.56,-2.61,4.30,-2.82,4.93,1.76,1.73,-2.73,4.03,290.00,902.00,368.00,554.00,703.00,1776.00,2370.00,4095.00,,,,,,,,,,,,0,0,0,,-2340,16128,640,64,87,-151
24.678,24.44,1.66,2.98,-0.84,5.61,-0.65,3.51,-1.17,1.60,-2.37,346.00,830.00,427.00,461.00,797.00,1792.00,3097.00,4095.00,,,,,,,,,,,,0,0,0,,-2428,16144,616,11,164,-220
24.761,24.49,1.59,1.55,-1.49,3.73,-1.44,0.27,2.15,-2.12,3.13,368.00,894.00,461.00,507.00,706.00,1863.00,2461.00,4095.00,,,,,,,,,,,,0,0,0,,-2548,16016,536,6,143,-137
24.781,24.55,1.60,-1.37,2.07,-1.84,3.01,1.83,0.91,-0.39,0.57,320.00,912.00,401.00,561.00,734.00,1811.00,2739.00,4095.00,,,,,,,,,,,,0,0,0,,-2512,15988,304,12,96,-180
24.844,24.60,1.70,1.62,-0.54,1.60,1.85,3.69,-1.67,0.62,-0.92,349.00,869.00,401.00,505.00,816.00,1803.00,2915.00,4095.00,,,,,,,,,,,,0,0,0,,-2460,16032,420,-77,70,-93
24.886,24.66,1.65,2.42,-2.86,5.24,-2.77,0.57,0.91,-3.05,4.50,390.00,896.00,482.00,495.00,751.00,1903.00,2324.00,4095.00,,,,,,,,,,,,0,0,0,,-2408,16188,468,-111,53,-86
24.949,24.71,1.63,-2.20,2.00,-1.82,1.93,1.22,1.47,1.46,-2.15,326.00,944.00,425.00,577.00,720.00,1827.00,3069.00,4095.00,,,,,,,,,,,,0,0,0,,-2440,16108,668,-131,142,-173
25.012,24.77,1.74,0.71,0.41,-0.79,3.65,3.84,-1.33,-1.49,2.20,337.00,878.00,380.00,529.00,799.00,1776.00,2559.00,4095.00,,,,,,,,,,,,0,0,0,,-2380,16176,532,-100,119,-196
25.095,24.82,1.75,2.18,-0.94,5.94,-0.98,2.01,-0.06,-0.63,0.92,353.00,859.00,432.00,459.00,771.00,1845.00,2699.00,4095.00,,,,,,,,,,,,0,0,0,,-2404,16128,452,-51,67,-307
25.116,24.88,1.69,0.19,0.26,0.93,0.08,0.45,1.99,0.60,-0.89,343.00,900.00,447.00,544.00,710.00,1858.00,2911.00,4095.00,,,,,,,,,,,,0,0,0,,-2508,15948,476,-49,46,-311
25.158,24.93,1.75,-2.22,3.61,-2.79,4.82,2.94,-0.13,-2.86,4.21,299.00,905.00,370.00,555.00,761.00,1782.00,2352.00,4095.00,,,,,,,,,,,,0,0,0,,-2604,16024,528,-185,6,-239
25.22,24.99,1.78,2.38,-0.79,4.81,-0.60,2.45,-0.68,1.57,-2.31,349.00,849.00,432.00,475.00,791.00,1844.00,3090.00,4095.00,,,,,,,,,,,,0,0,0,,-2484,16016,576,-277,79,-132
25.282,25.04,1.70,1.16,-1.66,2.63,-1.46,0.08,1.75,-1.54,2.27,374.00,912.00,471.00,530.00,724.00,1897.00,2551.00,4095.00,,,,,,,,,,,,0,0,0,,-2516,16156,588,-265,200,-104
25.344,25.10,1.71,-3.78,4.70,-3.79,4.91,1.91,0.46,-0.71,1.05,290.00,935.00,375.00,576.00,751.00,1827.00,2685.00,4095.00,,,,,,,,,,,,0,0,0,,-2376,16204,604,-324,186,-64
25.404,25.15,1.81,1.62,-0.80,1.54,1.65,3.83,-1.88,1.07,-1.57,354.00,875.00,406.00,509.00,823.00,1803.00,2996.00,4095.00,,,,,,,,,,,,0,0,0,,-2384,16052,792,-68,128,-74
25.465,25.21,1.78,2.79,-3.03,5.01,-2.49,1.10,0.71,-3.00,4.42,391.00,887.00,477.00,496.00,752.00,1874.00,2332.00,4095.00,,,,,,,,,,,,0,0,0,,-2344,16192,540,59,132,-112
25.485,25.26,1.77,-2.20,2.41,-1.80,2.10,1.60,1.27,1.32,-1.95,319.00,934.00,421.00,574.00,723.00,1810.00,3043.00,4095.00,,,,,,,,,,,,0,0,0,,-2456,16088,480,-13,132,-220
25.547,25.32,1.88,0.79,0.39,-0.33,3.55,3.94,-1.46,-0.98,1.45,337.00,876.00,379.00,521.00,803.00,1775.00,2640.00,4095.00,,,,,,,,,,,,0,0,0,,-2356,16048,592,-63,123,-193
25.61,25.37,1.89,4.01,-3.72,7.70,-3.17,2.11,0.22,-1.12,1.65,397.00,861.00,471.00,454.00,758.00,1824.00,2618.00,4095.00,,,,,,,,,,,,0,0,0,,-2452,16040,528,-153,53,-198
25.672,25.43,1.83,0.18,0.65,1.61,0.39,0.68,2.07,0.91,-1.34,336.00,891.00,434.00,525.00,704.00,1837.00,2967.00,4095.00,,,,,,,,,,,,0,0,0,,-2424,16116,544,-120,50,-153
25.714,25.48,1.91,-1.53,3.01,-1.77,4.67,3.50,-0.17,-2.86,4.21,305.00,895.00,366.00,535.00,755.00,1745.00,2352.00,4095.00,,,,,,,,,,,,0,0,0,,-2504,16148,668,-115,112,-161
25.777,25.54,1.96,2.77,-1.24,6.18,-0.84,2.95,-0.73,1.32,-1.95,355.00,846.00,427.00,453.00,786.00,1810.00,3043.00,4095.00,,,,,,,,,,,,0,0,0,,-2520,16124,540,-65,177,-206
25.858,25.59,1.88,0.82,-0.58,2.10,-0.40,0.22,2.46,-0.98,1.45,355.00,898.00,449.00,526.00,695.00,1851.00,2640.00,4095.00,,,,,,,,,,,,0,0,0,,-2484,16088,540,-40,53,-189
25.878,25.65,1.92,-4.22,5.63,-3.63,5.66,2.72,0.19,-1.27,1.87,278.00,928.00,359.00,561.00,751.00,1782.00,2594.00,4095.00,,,,,,,,,,,,0,0,0,,-2360,16080,420,-99,81,-202
25.939,25.70,1.97,1.16,-0.33,2.61,0.66,3.01,-1.12,1.37,-2.02,348.00,880.00,420.00,501.00,802.00,1825.00,3053.00,4095.00,,,,,,,,,,,,0,0,0,,-2384,16028,504,-181,100,-207
26.0,25.76,1.91,1.50,-2.17,4.65,-2.49,0.63,0.87,-2.78,4.10,382.00,912.00,480.00,503.00,752.00,1901.00,2363.00,4095.00,,,,,,,,,,,,0,0,0,,-2496,16136,512,-211,5,-191
26.042,25.81,1.88,-2.90,2.41,-3.01,2.73,1.35,1.02,1.35,-1.99,323.00,960.00,416.00,592.00,736.00,1840.00,3049.00,4095.00,,,,,,,,,,,,0,0,0,,-2632,15944,696,-109,-45,-127
26.103,25.87,1.96,1.07,-0.67,-0.16,2.45,3.51,-1.61,-0.23,0.34,355.00,891.00,401.00,533.00,816.00,1813.00,2766.00,4095.00,,,,,,,,,,,,0,0,0,,-2356,16152,576,-71,163,-200
26.205,25.92,1.93,3.12,-3.56,6.42,-3.28,1.43,0.31,-1.49,2.20,400.00,888.00,485.00,479.00,764.00,1870.00,2559.00,4095.00,,,,,,,,,,,,0,0,0,,-2524,16076,520,-184,188,-273
26.225,25.98,1.88,-0.45,0.75,1.04,0.67,0.83,2.07,1.43,-2.10,338.00,911.00,432.00,533.00,702.00,1826.00,3063.00,4095.00,,,,,,,,,,,,0,0,0,,-2424,16056,532,-112,-1,-235
26.267,26.03,1.95,-0.73,2.20,-1.88,4.56,3.35,-0.15,-2.47,3.64,314.00,886.00,369.00,539.00,756.00,1754.00,2409.00,4095.00,,,,,,,,,,,,0,0,0,,-2492,16068,496,-124,-144,-186
26.329,26.09,2.00,2.93,-1.29,6.58,-0.94,2.87,-0.33,1.14,-1.68,355.00,842.00,426.00,447.00,770.00,1796.00,3009.00,4095.00,,,,,,,,,,,,0,0,0,,-2496,16236,520,-317,-226,-234
26.39,26.14,1.92,0.93,-0.41,3.18,-0.47,0.49,2.56,-0.34,0.50,351.00,890.00,442.00,505.00,688.00,1827.00,2747.00,4095.00,,,,,,,,,,,,0,0,0,,-2392,16096,632,-490,-298,-358
26.431,26.20,2.00,-2.98,4.68,-3.21,5.78,3.37,0.02,-1.62,2.38,286.00,906.00,354.00,550.00,749.00,1745.00,2539.00,4095.00,,,,,,,,,,,,0,0,0,,-2488,16140,840,-177,-121,-408
26.513,26.25,2.07,3.64,-1.27,4.95,0.32,3.52,-1.18,1.82,-2.69,350.00,818.00,410.00,461.00,797.00,1791.00,3139.00,4095.00,,,,,,,,,,,,0,0,0,,-2432,16052,776,-73,26,-333
26.576,26.31,2.04,1.60,-1.61,4.63,-1.94,1.40,0.80,-2.42,3.56,370.00,895.00,466.00,496.00,744.00,1847.00,2417.00,4095.00,,,,,,,,,,,,0,0,0,,-2596,16024,700,35,95,-248
26.596,26.36,2.04,-2.29,2.38,-2.46,2.95,2.00,1.03,1.00,-1.47,320.00,938.00,407.00,576.00,727.00,1793.00,2983.00,4095.00,,,,,,,,,,,,0,0,0,,-2660,15956,580,-68,141,-301
26.659,26.42,2.13,1.43,-0.48,0.87,2.57,3.96,-1.47,0.33,-0.49,349.00,874.00,391.00,510.00,803.00,1774.00,2863.00,4095.00,,,,,,,,,,,,0,0,0,,-2536,15936,460,-213,52,-171
26.701,26.47,2.10,2.77,-3.26,5.71,-2.69,1.48,0.53,-1.87,2.76,396.00,893.00,476.00,485.00,754.00,1855.00,2499.00,4095.00,,,,,,,,,,,,0,0,0,,-2464,16084,540,-431,14,-164
26.764,26.53,2.04,-1.71,1.28,-0.92,1.46,0.81,2.18,1.84,-2.72,336.00,944.00,429.00,564.00,698.00,1822.00,3143.00,4095.00,,,,,,,,,,,,0,0,0,,-2500,16216,916,-219,191,-142
26.826,26.58,2.10,-0.62,1.87,-1.12,3.71,3.42,-0.44,-2.01,2.97,319.00,890.00,381.00,535.00,767.00,1763.00,2478.00,4095.00,,,,,,,,,,,,0,0,0,,-2512,16024,840,-51,242,-379
26.888,26.64,2.12,1.88,-0.84,5.47,-0.78,2.44,-0.30,0.88,-1.29,353.00,867.00,431.00,465.00,775.00,1826.00,2961.00,4095.00,,,,,,,,,,,,0,0,0,,-2608,15944,620,6,22,-241
26.93,26.69,2.03,0.20,-0.38,1.57,-0.18,0.35,2.15,0.43,-0.64,355.00,915.00,448.00,534.00,705.00,1857.00,2881.00,4095.00,,,,,,,,,,,,0,0,0,,-2560,16120,780,62,128,-120
26.99,26.75,2.08,-2.73,4.03,-3.48,5.10,2.95,0.09,-2.00,2.96,295.00,913.00,369.00,566.00,752.00,1771.00,2479.00,4095.00,,,,,,,,,,,,0,0,0,,-2664,16016,628,-107,242,-349
27.051,26.80,2.15,2.15,-0.02,4.83,0.09,3.43,-1.17,2.07,-3.05,336.00,839.00,416.00,466.00,798.00,1797.00,3187.00,4095.00,,,,,,,,,,,,0,0,0,,-2660,15804,708,-99,125,-151
27.112,26.86,2.10,1.40,-1.44,4.39,-1.82,1.20,1.32,-1.95,2.88,368.00,898.00,465.00,499.00,726.00,1836.00,2487.00,4095.00,,,,,,,,,,,,0,0,0,,-2720,15948,732,-8,119,49
27.174,26.91,2.11,-1.42,2.14,-1.74,2.93,2.36,0.81,0.49,-0.72,319.00,912.00,402.00,560.00,731.00,1778.00,2891.00,4095.00,,,,,,,,,,,,0,0,0,,-2624,16236,772,-68,363,63
27.195,26.97,2.21,1.92,-0.64,2.06,1.70,4.16,-1.53,0.69,-1.02,349.00,861.00,401.00,498.00,803.00,1763.00,2928.00,4095.00,,,,,,,,,,,,0,0,0,,-2632,16084,596,-111,332,-8
27.318,27.02,2.19,4.40,-5.29,6.01,-2.68,1.67,0.56,-2.52,3.72,429.00,884.00,473.00,479.00,750.00,1839.00,2401.00,4095.00,,,,,,,,,,,,0,0,0,,-2396,16072,716,-101,205,-61
27.339,27.08,2.14,-1.54,1.39,-1.07,1.94,1.19,2.16,1.76,-2.59,333.00,935.00,419.00,560.00,694.00,1796.00,3126.00,4095.00,,,,,,,,,,,,0,0,0,,-2468,16124,604,-117,119,-176
27.379,27.13,2.22,0.32,1.16,-2.15,4.95,3.87,-0.59,-1.71,2.52,326.00,874.00,363.00,539.00,767.00,1739.00,2525.00,4095.00,,,,,,,,,,,,0,0,0,,-2520,16144,604,-105,98,-244
27.441,27.19,2.24,2.34,-0.78,6.38,-0.47,2.62,-0.10,0.06,-0.08,349.00,850.00,417.00,445.00,764.00,1803.00,2815.00,4095.00,,,,,,,,,,,,0,0,0,,-2512,15948,696,-128,57,-244
27.503,27.24,2.17,0.48,-0.05,3.05,-0.43,0.81,2.29,0.61,-0.89,347.00,897.00,442.00,507.00,694.00,1817.00,2912.00,4095.00,,,,,,,,,,,,0,0,0,,-2492,16092,768,-203,64,-172
27.546,27.30,2.23,-2.08,3.81,-2.61,5.16,3.36,-0.08,-2.51,3.70,295.00,895.00,362.00,546.00,753.00,1750.00,2403.00,4095.00,,,,,,,,,,,,0,0,0,,-2616,16080,644,-71,152,-137
27.585,27.35,2.27,2.78,-1.04,5.96,-0.68,3.07,-0.87,1.91,-2.81,351.00,841.00,425.00,455.00,790.00,1808.00,3155.00,4095.00,,,,,,,,,,,,0,0,0,,-2496,16016,576,-165,111,-101
27.667,27.41,2.19,1.74,-1.91,3.69,-1.66,0.52,1.94,-1.60,2.37,375.00,897.00,467.00,511.00,711.00,1855.00,2541.00,4095.00,,,,,,,,,,,,0,0,0,,-2508,16124,832,-204,86,-134
27.688,27.46,2.17,-2.67,3.21,-2.90,3.98,1.92,0.70,-0.22,0.33,308.00,931.00,388.00,570.00,741.00,1814.00,2767.00,4095.00,,,,,,,,,,,,0,0,0,,-2540,16148,784,-106,47,-116
27.749,27.52,2.24,1.32,-0.70,1.46,1.63,3.58,-1.66,1.19,-1.76,354.00,883.00,407.00,511.00,817.00,1810.00,3019.00,4095.00,,,,,,,,,,,,0,0,0,,-2504,16020,700,-16,125,-156
27.833,27.57,2.18,2.36,-3.40,4.62,-2.75,0.91,0.77,-2.71,3.99,402.00,911.00,487.00,507.00,752.00,1885.00,2374.00,4095.00,,,,,,,,,,,,0,0,0,,-2580,16000,576,-25,98,-289
27.915,27.63,2.14,-2.56,2.30,-1.72,1.60,1.36,1.40,1.81,-2.67,323.00,950.00,432.00,580.00,721.00,1821.00,3137.00,4095.00,,,,,,,,,,,,0,0,0,,-2636,15948,708,-117,36,-272
27.936,27.68,2.25,0.59,0.51,-0.69,3.57,4.47,-1.73,-0.91,1.34,336.00,880.00,381.00,528.00,807.00,1751.00,2652.00,4095.00,,,,,,,,,,,,0,0,0,,-2656,16008,916,59,117,-158
27.978,27.74,2.27,3.27,-2.76,6.96,-2.40,2.71,-0.15,-0.60,0.88,382.00,864.00,458.00,458.00,765.00,1799.00,2704.00,4095.00,,,,,,,,,,,,0,0,0,,-2628,16120,472,-24,169,-140
28.038,27.79,2.21,0.36,0.42,1.54,0.50,0.98,2.20,0.97,-1.43,339.00,890.00,432.00,525.00,695.00,1809.00,2978.00,4095.00,,,,,,,,,,,,0,0,0,,-2544,15968,684,-50,156,-56
28.101,27.85,2.29,-1.64,3.41,-1.86,4.61,3.72,-0.17,-2.69,3.97,299.00,889.00,368.00,538.00,752.00,1730.00,2376.00,4095.00,,,,,,,,,,,,0,0,0,,-2576,16108,548,39,191,-107
28.163,27.90,2.33,2.90,-1.08,6.58,-1.11,3.28,-0.79,1.47,-2.17,351.00,838.00,430.00,449.00,784.00,1790.00,3071.00,4095.00,,,,,,,,,,,,0,0,0,,-2532,16068,504,-154,159,-126
28.205,27.96,2.24,1.27,-1.05,3.51,-1.04,0.34,2.52,-1.16,1.72,361.00,893.00,453.00,506.00,691.00,1839.00,2611.00,4095.00,,,,,,,,,,,,0,0,0,,-2536,15988,464,-345,107,-170
28.267,28.01,2.28,-3.74,5.40,-3.00,4.99,3.21,-0.00,-1.02,1.51,279.00,916.00,368.00,557.00,752.00,1757.00,2634.00,4095.00,,,,,,,,,,,,0,0,0,,-2564,16192,652,-539,6,-236
28.308,28.07,2.37,1.90,-0.74,2.41,0.82,3.92,-1.68,1.46,-2.15,351.00,864.00,418.00,503.00,813.00,1787.00,3069.00,4095.00,,,,,,,,,,,,0,0,0,,-2580,15996,784,-685,56,-272
28.349,28.12,2.31,2.05,-2.45,5.07,-2.60,1.17,0.66,-2.76,4.07,384.00,899.00,479.00,496.00,753.00,1871.00,2366.00,4095.00,,,,,,,,,,,,0,0,0,,-2612,16060,880,-489,53,-265
28.411,28.18,2.29,-2.13,1.98,-2.03,2.31,1.92,0.88,1.59,-2.34,326.00,942.00,418.00,576.00,734.00,1806.00,3094.00,4095.00,,,,,,,,,,,,0,0,0,,-2628,16004,988,-429,50,-234
28.472,28.23,2.38,1.07,-0.25,0.42,2.30,4.15,-1.85,-0.31,0.46,347.00,881.00,400.00,523.00,817.00,1779.00,2752.00,4095.00,,,,,,,,,,,,0,0,0,,-2516,15980,992,-436,26,-348
28.554,28.29,2.34,3.46,-3.72,6.60,-2.91,1.60,0.03,-1.31,1.94,401.00,880.00,474.00,471.00,773.00,1871.00,2587.00,4095.00,,,,,,,,,,,,0,0,0,,-2672,15976,916,-431,-42,-261
28.575,28.34,2.25,-0.17,0.38,1.21,0.15,0.50,2.00,1.44,-2.13,343.00,910.00,443.00,537.00,709.00,1854.00,3066.00,4095.00,,,,,,,,,,,,0,0,0,,-2544,15928,888,-671,-38,-211
28.638,28.40,2.31,-1.67,2.76,-2.12,4.29,3.43,-0.73,-2.65,3.90,310.00,906.00,376.00,548.00,779.00,1776.00,2383.00,4095.00,,,,,,,,,,,,0,0,0,,-2472,16048,1056,-878,57,-371
28.678,28.45,2.28,2.56,-1.01,6.63,-2.96,1.83,-0.07,1.22,-1.80,352.00,848.00,475.00,471.00,774.00,1859.00,3024.00,4095.00,,,,,,,,,,,,0,0,0,,-2648,16012,1356,-1164,3,-523
28.78,28.51,2.19,0.59,-0.25,2.25,-0.90,0.38,2.40,-0.43,0.64,350.00,898.00,460.00,530.00,695.00,1842.00,2731.00,4095.00,,,,,,,,,,,,0,0,0,,-2748,15968,1472,-968,21,-488
28.8,28.56,2.25,-3.49,5.31,-2.98,5.03,3.36,-0.05,-1.29,1.90,279.00,909.00,367.00,556.00,752.00,1749.00,2591.00,4095.00,,,,,,,,,,,,0,0,0,,-2716,16016,1428,-976,127,-533
28.841,28.62,2.30,3.50,-1.01,5.31,-0.38,3.36,-0.94,1.97,-2.91,346.00,817.00,423.00,463.00,789.00,1791.00,3168.00,4095.00,,,,,,,,,,,,0,0,0,,-2772,16136,1500,-827,220,-792
28.922,28.67,2.25,2.14,-1.69,4.56,-1.91,1.22,0.89,-2.81,4.14,368.00,878.00,466.00,497.00,743.00,1856.00,2359.00,4095.00,,,,,,,,,,,,0,0,0,,-2844,15740,1664,-715,150,-880
28.962,28.73,2.23,-2.44,2.95,-1.98,2.42,1.95,0.97,0.93,-1.37,311.00,929.00,415.00,573.00,730.00,1799.00,2970.00,4095.00,,,,,,,,,,,,0,0,0,,-3032,15704,1880,-575,331,-772
29.023,28.78,2.33,1.42,0.23,1.55,2.01,4.14,-1.78,0.26,-0.39,336.00,858.00,398.00,504.00,814.00,1776.00,2851.00,4095.00,,,,,,,,,,,,0,0,0,,-3188,15612,1676,-562,464,-481
29.084,28.84,2.29,3.02,-2.87,6.35,-2.87,1.48,0.51,-1.95,2.88,386.00,875.00,475.00,475.00,755.00,1856.00,2487.00,4095.00,,,,,,,,,,,,0,0,0,,-3144,15796,1844,-584,296,-501
29.145,28.89,2.21,-1.70,1.67,-0.82,1.77,0.80,2.13,2.00,-2.95,329.00,934.00,421.00,557.00,700.00,1825.00,3173.00,4095.00,,,,,,,,,,,,0,0,0,,-3052,15780,1712,-91,136,-291
29.185,28.95,2.28,-1.21,3.21,-1.47,4.73,3.49,-0.41,-2.11,3.11,300.00,879.00,363.00,528.00,765.00,1757.00,2463.00,4095.00,,,,,,,,,,,,0,0,0,,-3108,15676,1896,-4,9,-139
29.248,29.00,2.29,1.85,-0.19,6.17,-0.76,2.55,-0.55,0.77,-1.13,341.00,853.00,425.00,452.00,784.00,1830.00,2941.00,4095.00,,,,,,,,,,,,0,0,0,,-3088,15724,1636,-311,157,-16
29.31,29.06,2.19,0.07,0.68,2.98,-0.61,0.28,2.28,0.33,-0.49,336.00,894.00,447.00,511.00,701.00,1856.00,2863.00,4095.00,,,,,,,,,,,,0,0,0,,-3136,15784,1700,-392,189,-162
29.352,29.11,2.24,-2.00,3.53,-2.61,5.37,3.22,-0.42,-2.33,3.43,299.00,899.00,358.00,543.00,769.00,1776.00,2430.00,4095.00,,,,,,,,,,,,0,0,0,,-3052,15768,1864,-482,68,-59
29.413,29.17,2.27,2.66,-0.46,5.23,-0.18,2.92,-1.32,2.05,-3.03,341.00,832.00,419.00,462.00,812.00,1841.00,3184.00,4095.00,,,,,,,,,,,,0,0,0,,-3072,15936,1960,-672,93,-84
29.516,29.22,2.17,1.34,-1.53,3.58,-1.51,0.26,1.41,-2.20,3.24,370.00,902.00,464.00,511.00,735.00,1901.00,2450.00,4095.00,,,,,,,,,,,,0,0,0,,-3056,16028,2136,-612,224,-258
29.537,29.28,2.14,-2.11,2.14,-2.32,2.68,1.59,0.69,0.32,-0.47,323.00,937.00,412.00,577.00,746.00,1839.00,2861.00,4095.00,,,,,,,,,,,,0,0,0,,-3044,15892,2368,-531,207,-373
29.578,29.33,2.23,1.11,0.33,1.50,1.94,3.78,-1.72,0.78,-1.15,336.00,866.00,400.00,506.00,817.00,1799.00,2943.00,4095.00,,,,,,,,,,,,0,0,0,,-3120,15592,2040,-308,59,-242
29.618,29.39,2.17,2.78,-2.93,6.38,-3.15,1.17,0.68,-2.80,4.12,389.00,885.00,482.00,478.00,752.00,1870.00,2361.00,4095.00,,,,,,,,,,,,0,0,0,,-2996,15824,2056,-217,-67,-227
29.681,29.44,2.13,-1.72,2.01,-1.71,2.16,1.27,1.79,1.87,-2.77,323.00,926.00,419.00,571.00,707.00,1808.00,3149.00,4095.00,,,,,,,,,,,,0,0,0,,-2912,15932,2128,-618,-48,-465
29.763,29.50,2.24,-0.03,2.14,-0.18,4.04,4.27,-1.29,-1.49,2.20,311.00,863.00,368.00,511.00,791.00,1744.00,2559.00,4095.00,,,,,,,,,,,,0,0,0,,-3132,15768,2184,-329,39,-730
29.784,29.55,2.25,3.13,-0.83,6.54,-0.97,2.51,-0.03,-0.04,0.05,345.00,825.00,427.00,448.00,763.00,1808.00,2799.00,4095.00,,,,,,,,,,,,0,0,0,,-3116,15788,2136,-245,124,-916
29.888,29.61,2.17,0.48,0.55,2.39,0.26,0.57,2.37,0.69,-1.02,336.00,883.00,431.00,511.00,694.00,1830.00,2928.00,4095.00,,,,,,,,,,,,0,0,0,,-3320,15424,2220,-304,150,-812
29.909,29.66,2.23,-2.01,4.55,-1.58,5.18,3.46,-0.16,-2.73,4.03,283.00,875.00,355.00,524.00,755.00,1747.00,2370.00,4095.00,,,,,,,,,,,,0,0,0,,-3312,15364,1988,-711,8,-363
29.949,29.72,2.27,3.47,-0.79,6.29,-0.18,3.07,-0.87,2.17,-3.19,342.00,813.00,411.00,443.00,790.00,1808.00,3206.00,4095.00,,,,,,,,,,,,0,0,0,,-3336,15724,2148,-614,-135,-261
30.01,29.77,2.17,1.33,-1.17,4.02,-1.05,0.22,2.14,-1.20,1.77,363.00,894.00,449.00,496.00,707.00,1867.00,2605.00,4095.00,,,,,,,,,,,,0,0,0,,-3348,15456,2360,-651,-55,-194
30.074,29.83,2.17,-3.47,5.57,-2.43,4.55,2.14,0.41,-0.19,0.28,275.00,902.00,373.00,551.00,750.00,1813.00,2773.00,4095.00,,,,,,,,,,,,1,1,0,,-3308,15632,2528,-698,27,-180
30.115,29.88,2.24,1.62,-0.11,2.15,1.72,3.69,-1.65,1.60,-2.37,341.00,859.00,400.00,496.00,815.00,1802.00,3097.00,4095.00,,,,,,,,,,,,1,1,0,,-3412,15620,2372,-648,-71,-229
30.178,29.94,2.19,2.71,-2.62,6.35,-3.10,1.09,0.64,-2.64,3.89,383.00,880.00,481.00,478.00,755.00,1878.00,2384.00,4095.00,,,,,,,,,,,,1,1,0,,-3500,15632,2500,-683,-252,-448
30.261,29.99,2.13,-2.49,2.80,-1.87,2.52,1.15,1.42,2.19,-3.23,314.00,935.00,412.00,569.00,723.00,1835.00,3211.00,4095.00,,,,,,,,,,,,1,1,0,,-3544,15360,2856,-517,-206,-502
30.282,30.05,2.22,0.48,1.04,0.34,3.27,3.87,-1.73,-0.41,0.60,327.00,871.00,380.00,511.00,816.00,1793.00,2736.00,4095.00,,,,,,,,,,,,1,1,0,,-3600,15316,2684,-523,-73,-321
30.344,30.10,2.23,3.69,-2.95,7.71,-2.78,2.42,-0.34,-0.55,0.82,383.00,854.00,461.00,449.00,777.00,1829.00,2711.00,4095.00,,,,,,,,,,,,1,1,0,,-3452,15332,2416,-777,-164,-198
30.426,30.16,2.16,0.30,0.94,2.71,0.15,0.82,2.15,1.63,-2.40,330.00,880.00,431.00,506.00,699.00,1823.00,3101.00,4095.00,,,,,,,,,,,,1,1,0,,-3652,15284,2704,-1384,-272,45
30.467,30.21,2.24,-0.83,3.20,-1.87,5.75,3.74,-0.20,-2.52,3.72,298.00,866.00,346.00,522.00,753.00,1730.00,2401.00,4095.00,,,,,,,,,,,,1,1,0,,-3472,15484,3284,-1387,-87,120
30.509,30.27,2.29,3.75,-0.56,7.80,-0.69,3.22,-0.61,1.82,-2.68,336.00,799.00,411.00,423.00,777.00,1785.00,3138.00,4095.00,,,,,,,,,,,,1,1,0,,-3356,15500,3504,-1162,-46,124
30.548,30.32,2.20,1.00,0.37,4.36,-0.70,0.58,2.53,-0.60,0.89,336.00,869.00,438.00,485.00,688.00,1822.00,2703.00,4095.00,,,,,,,,,,,,1,1,0,,-3200,15584,3492,-950,-130,99
30.61,30.38,2.27,-3.14,6.01,-2.34,5.59,3.51,0.02,-1.10,1.62,267.00,880.00,352.00,534.00,747.00,1735.00,2621.00,4095.00,,,,,,,,,,,,1,1,0,,-3180,15444,3440,-745,-45,8
30.67,30.43,2.36,2.42,-0.11,4.44,1.22,4.04,-1.35,1.72,-2.54,336.00,832.00,394.00,459.00,797.00,1763.00,3120.00,4095.00,,,,,,,,,,,,1,1,0,,-3144,15544,3604,-581,28,-186
30.732,30.49,2.32,2.59,-1.59,6.24,-1.75,1.53,0.71,-2.71,4.00,363.00,860.00,448.00,463.00,746.00,1842.00,2373.00,4095.00,,,,,,,,,,,,1,1,0,,-3216,15404,3484,-506,35,-260
30.775,30.54,2.30,-1.94,2.91,-0.85,2.77,2.05,1.11,1.38,-2.03,309.00,912.00,399.00,543.00,723.00,1785.00,3054.00,4095.00,,,,,,,,,,,,1,1,0,,-3308,15204,3560,-645,-84,-259
30.838,30.60,2.41,1.16,0.87,1.71,3.35,4.46,-1.68,-0.12,0.17,326.00,852.00,369.00,483.00,805.00,1749.00,2785.00,4095.00,,,,,,,,,,,,1,1,0,,-3200,15272,3844,-568,-94,-241
30.9,30.65,2.39,4.12,-3.15,8.17,-2.52,1.98,0.05,-1.64,2.41,384.00,844.00,451.00,438.00,767.00,1842.00,2536.00,4095.00,,,,,,,,,,,,1,1,0,,-3296,15264,3912,-566,-48,-147
30.982,30.71,2.32,-2.55,2.52,0.74,1.47,0.99,2.15,1.56,-2.31,319.00,944.00,416.00,528.00,697.00,1811.00,3089.00,4095.00,,,,,,,,,,,,1,1,0,,-3284,15260,4000,-358,-61,-47
31.002,30.76,2.38,-1.92,4.59,-0.99,5.83,3.50,-0.20,-2.39,3.52,282.00,871.00,339.00,503.00,756.00,1746.00,2421.00,4095.00,,,,,,,,,,,,1,1,0,,-3312,15236,3984,-182,-68,3
31.064,30.82,2.39,3.08,-1.03,8.00,-0.98,2.57,-0.15,1.03,-1.52,349.00,831.00,416.00,423.00,767.00,1809.00,2989.00,4095.00,,,,,,,,,,,,1,1,0,,-3228,15348,4020,-120,-29,38
31.104,30.87,2.30,0.74,0.24,4.13,-0.37,0.66,2.26,-0.15,0.22,340.00,881.00,432.00,485.00,697.00,1829.00,2779.00,4095.00,,,,,,,,,,,,1,1,0,,-3140,15416,3776,-38,-4,-182
31.165,30.93,2.37,-2.90,5.65,-2.50,6.17,3.59,-0.01,-2.00,2.95,271.00,880.00,342.00,529.00,747.00,1731.00,2480.00,4095.00,,,,,,,,,,,,1,1,0,,-3248,15380,3792,42,-31,-262
31.225,30.98,2.44,3.55,-0.21,6.98,0.70,3.84,-1.05,1.78,-2.63,331.00,798.00,387.00,421.00,787.00,1763.00,3131.00,4095.00,,,,,,,,,,,,1,1,0,,-3220,15248,3936,315,29,-239
31.288,31.04,2.41,2.08,-0.75,6.31,-1.53,1.88,0.89,-2.46,3.63,350.00,858.00,442.00,459.00,734.00,1808.00,2410.00,4095.00,,,,,,,,,,,,1,1,0,,-3092,15216,3824,317,68,-194
31.349,31.09,2.42,-1.57,3.02,-0.41,3.24,2.56,1.02,0.52,-0.76,305.00,896.00,386.00,527.00,720.00,1754.00,2896.00,4095.00,,,,,,,,,,,,1,1,0,,-3236,15368,3596,239,66,-128
31.391,31.15,2.54,2.33,0.03,3.05,2.95,4.82,-1.75,0.35,-0.51,334.00,832.00,368.00,463.00,803.00,1728.00,2866.00,4095.00,,,,,,,,,,,,1,1,0,,-3332,15256,3528,115,44,-123
31.431,31.20,2.51,4.17,-3.26,9.43,-2.91,2.02,0.55,-2.64,3.89,386.00,845.00,450.00,421.00,746.00,1815.00,2384.00,4095.00,,,,,,,,,,,,1,1,0,,-3212,15284,3492,25,80,-153
31.492,31.26,2.48,-0.81,2.23,0.10,2.40,1.76,1.97,1.56,-2.30,314.00,888.00,400.00,528.00,694.00,1765.00,3088.00,4095.00,,,,,,,,,,,,1,1,0,,-3152,15460,3548,9,105,-97
31.553,31.31,2.56,-0.59,3.37,-0.00,5.88,4.16,-0.40,-2.25,3.32,294.00,854.00,332.00,483.00,755.00,1710.00,2442.00,4095.00,,,,,,,,,,,,1,1,0,,-3196,15312,3768,-12,125,-77
31.614,31.37,2.58,3.11,-0.39,8.87,-0.82,2.97,-0.09,-0.02,0.04,337.00,816.00,406.00,407.00,759.00,1778.00,2801.00,4095.00,,,,,,,,,,,,1,1,0,,-3152,15364,3724,-48,137,-60
31.737,31.42,2.49,0.78,0.45,4.63,0.07,0.85,2.43,0.21,-0.31,336.00,875.00,418.00,470.00,688.00,1807.00,2842.00,4095.00,,,,,,,,,,,,1,1,0,,-3180,15328,3720,-48,147,-98
31.779,31.48,2.55,-2.50,5.45,-2.09,6.86,3.66,0.02,-2.89,4.27,272.00,871.00,327.00,511.00,745.00,1725.00,2347.00,4095.00,,,,,,,,,,,,1,1,0,,-3088,15360,3616,-42,184,-73
31.799,31.53,2.59,3.44,-0.56,7.03,0.54,3.39,-0.85,1.78,-2.62,338.00,809.00,390.00,422.00,785.00,1785.00,3130.00,4095.00,,,,,,,,,,,,1,1,0,,-3144,15372,3692,-96,153,-66
31.819,31.59,2.48,1.83,-1.29,5.61,-1.46,0.40,2.43,-2.14,3.15,362.00,879.00,446.00,471.00,694.00,1840.00,2459.00,4095.00,,,,,,,,,,,,1,1,0,,-3120,15400,3700,-64,123,-116
31.881,31.64,2.46,-1.94,2.91,-0.84,3.24,2.07,0.88,-0.39,0.57,309.00,912.00,389.00,536.00,732.00,1795.00,2739.00,4095.00,,,,,,,,,,,,1,1,0,,-3116,15336,3616,-34,218,-47
31.924,31.70,2.57,1.37,0.30,2.66,2.35,4.50,-2.10,0.78,-1.15,335.00,858.00,383.00,478.00,823.00,1766.00,2943.00,4095.00,,,,,,,,,,,,1,1,0,,-3152,15328,3612,-213,167,-133
31.984,31.75,2.52,3.32,-2.92,7.89,-2.88,1.63,0.75,-3.16,4.67,385.00,866.00,462.00,447.00,743.00,1833.00,2308.00,4095.00,,,,,,,,,,,,1,1,0,,-3204,15364,3624,-156,135,-2
32.085,31.81,2.47,-1.44,2.09,-0.55,2.67,1.58,1.69,1.60,-2.36,320.00,914.00,399.00,538.00,707.00,1791.00,3096.00,4095.00,,,,,,,,,,,,1,1,0,,-3064,15356,3712,47,208,15
32.107,31.86,2.60,0.22,2.48,0.89,4.87,5.05,-1.55,-1.33,1.96,304.00,847.00,345.00,479.00,791.00,1703.00,2584.00,4095.00,,,,,,,,,,,,1,1,0,,-3120,15460,3544,-37,221,1
32.147,31.92,2.63,4.54,-2.50,10.02,-1.88,3.15,-0.13,-0.79,1.16,368.00,816.00,421.00,400.00,758.00,1767.00,2672.00,4095.00,,,,,,,,,,,,1,1,0,,-3056,15400,3608,70,210,6
32.208,31.97,2.57,0.64,1.16,4.47,0.30,1.40,2.11,0.94,-1.39,324.00,863.00,414.00,470.00,693.00,1783.00,2973.00,4095.00,,,,,,,,,,,,1,1,0,,-3008,15620,3524,106,176,-114
32.27,32.03,2.66,-1.60,4.54,-0.73,5.96,4.34,-0.33,-2.97,4.39,281.00,861.00,335.00,496.00,750.00,1695.00,2335.00,4095.00,,,,,,,,,,,,1,1,0,,-3028,15396,3488,122,118,-161
32.311,32.08,2.71,3.51,-0.53,8.75,-0.46,3.70,-0.72,1.58,-2.34,337.00,806.00,399.00,405.00,775.00,1757.00,3093.00,4095.00,,,,,,,,,,,,1,1,0,,-2932,15412,3380,18,78,-60
32.475,32.14,2.61,1.48,-0.33,5.69,-1.02,0.83,2.25,-1.22,1.80,346.00,869.00,435.00,464.00,695.00,1817.00,2602.00,4095.00,,,,,,,,,,,,1,1,0,,-2980,15540,3464,-96,100,-124
32.496,32.19,2.65,-3.16,5.74,-1.35,5.84,3.25,0.41,-1.02,1.51,271.00,887.00,341.00,510.00,735.00,1735.00,2634.00,4095.00,,,,,,,,,,,,1,1,0,,-3000,15444,3676,92,178,-121
32.517,32.25,2.72,1.92,0.06,3.76,1.83,4.14,-1.48,1.41,-2.08,336.00,845.00,386.00,464.00,801.00,1762.00,3060.00,4095.00,,,,,,,,,,,,1,1,0,,-3016,15472,3484,-44,198,-175
32.538,32.30,2.66,2.52,-1.87,6.85,-2.16,1.46,0.64,-2.86,4.23,369.00,869.00,453.00,457.00,750.00,1851.00,2351.00,4095.00,,,,,,,,,,,,1,1,0,,-3004,15352,3420,-273,153,-176
32.599,32.36,2.63,-2.40,2.94,-0.99,2.77,2.06,0.96,1.60,-2.37,311.00,928.00,400.00,546.00,729.00,1792.00,3097.00,4095.00,,,,,,,,,,,,1,1,0,,-2880,15408,3540,-151,89,-128
32.661,32.41,2.72,1.58,0.12,1.87,3.35,4.49,-1.83,-0.36,0.54,337.00,855.00,368.00,480.00,811.00,1754.00,2743.00,4095.00,,,,,,,,,,,,1,1,0,,-3024,15412,3556,-20,103,-205
32.701,32.47,2.69,4.19,-3.69,8.58,-2.62,2.02,0.03,-1.49,2.20,395.00,854.00,450.00,432.00,767.00,1840.00,2559.00,4095.00,,,,,,,,,,,,1,1,0,,-2900,15408,3444,-47,204,-246
32.762,32.52,2.60,-0.16,1.32,2.77,0.87,0.90,2.37,1.55,-2.29,326.00,887.00,414.00,495.00,690.00,1807.00,3087.00,4095.00,,,,,,,,,,,,1,1,0,,-2952,15368,3396,-259,168,-215
32.824,32.58,2.66,-0.81,3.26,-0.50,5.77,3.91,-0.29,-2.63,3.88,297.00,864.00,337.00,494.00,754.00,1722.00,2385.00,4095.00,,,,,,,,,,,,1,1,0,,-3128,15368,3568,-149,-17,-191
32.866,32.63,2.69,3.64,-0.63,8.06,-0.18,3.18,-0.36,1.27,-1.88,338.00,804.00,398.00,413.00,767.00,1776.00,3034.00,4095.00,,,,,,,,,,,,1,1,0,,-3060,15348,3776,-7,-48,-124
32.928,32.69,2.60,1.43,0.17,4.95,-0.08,1.02,2.35,-0.36,0.54,337.00,859.00,419.00,466.00,689.00,1799.00,2743.00,4095.00,,,,,,,,,,,,1,1,0,,-3036,15392,3592,-27,81,-139
32.99,32.74,2.67,-3.24,6.11,-1.64,6.26,3.85,-0.10,-1.78,2.63,266.00,881.00,335.00,510.00,747.00,1717.00,2513.00,4095.00,,,,,,,,,,,,1,1,0,,-3024,15424,3440,-15,143,-93
33.031,32.80,2.74,3.75,-0.56,6.25,1.00,4.10,-1.42,1.76,-2.59,336.00,799.00,386.00,430.00,799.00,1762.00,3126.00,4095.00,,,,,,,,,,,,1,1,0,,-3000,15408,3424,-105,53,-104
33.092,32.85,2.69,2.45,-1.60,6.70,-1.78,1.71,0.62,-2.60,3.83,364.00,865.00,445.00,455.00,747.00,1833.00,2390.00,4095.00,,,,,,,,,,,,1,1,0,,-3120,15496,3576,35,67,-90
33.193,32.91,2.66,-1.73,2.71,-1.41,3.67,2.13,1.09,0.96,-1.42,311.00,909.00,384.00,542.00,723.00,1781.00,2977.00,4095.00,,,,,,,,,,,,1,1,0,,-3016,15516,3408,103,150,-141
33.213,32.96,2.75,1.61,0.39,5.25,-0.53,4.51,-1.93,0.29,-0.42,332.00,848.00,427.00,466.00,815.00,1757.00,2855.00,4095.00,,,,,,,,,,,,1,1,0,,-3024,15488,3360,21,150,-187
33.254,33.02,2.70,3.43,-2.91,7.72,-2.29,1.72,0.26,-2.14,3.15,384.00,862.00,449.00,443.00,762.00,1851.00,2459.00,4095.00,,,,,,,,,,,,1,1,0,,-2980,15424,3336,-119,64,-202
33.315,33.07,2.64,-1.88,2.12,0.15,1.84,1.52,1.42,1.82,-2.69,322.00,929.00,412.00,535.00,718.00,1808.00,3139.00,4095.00,,,,,,,,,,,,1,1,0,,-3092,15412,3328,-85,47,-135
33.356,33.13,2.69,-0.70,2.79,-0.60,5.70,3.71,-0.46,-2.11,3.11,304.00,871.00,339.00,497.00,764.00,1744.00,2463.00,4095.00,,,,,,,,,,,,1,1,0,,-2964,15360,3432,-218,57,-129
33.417,33.18,2.70,2.69,-0.63,7.11,-0.45,2.71,-0.60,0.64,-0.95,344.00,835.00,411.00,432.00,784.00,1821.00,2919.00,4095.00,,,,,,,,,,,,1,1,0,,-3072,15572,3512,-194,56,-103
33.48,33.24,2.58,0.33,0.43,3.29,0.04,0.39,2.19,0.35,-0.52,339.00,891.00,429.00,496.00,703.00,1852.00,2867.00,4095.00,,,,,,,,,,,,1,1,0,,-2844,15348,3520,-162,66,-37
33.563,33.29,2.61,-2.67,4.64,-2.33,6.06,3.19,-0.17,-2.31,3.41,285.00,896.00,343.00,527.00,759.00,1766.00,2432.00,4095.00,,,,,,,,,,,,1,1,0,,-2820,15540,3376,32,198,-89
33.583,33.35,2.64,3.66,-1.07,6.75,0.08,3.23,-1.01,2.04,-3.01,346.00,813.00,402.00,432.00,794.00,1804.00,3181.00,4095.00,,,,,,,,,,,,1,1,0,,-3020,15380,3452,-39,76,-257
33.643,33.40,2.56,1.69,-1.24,4.84,-1.03,0.99,1.29,-2.02,2.98,362.00,883.00,442.00,480.00,730.00,1853.00,2477.00,4095.00,,,,,,,,,,,,1,1,0,,-2972,15368,3500,-59,-57,-190
33.705,33.46,2.54,-1.10,2.33,0.07,2.60,2.19,0.66,0.25,-0.37,314.00,896.00,396.00,526.00,739.00,1797.00,2849.00,4095.00,,,,,,,,,,,,1,1,0,,-2956,15412,3584,-60,33,-152
33.767,33.51,2.62,1.80,0.10,2.49,2.60,4.21,-1.78,0.87,-1.28,336.00,848.00,379.00,478.00,813.00,1771.00,2960.00,4095.00,,,,,,,,,,,,1,1,0,,-3036,15484,3352,-144,141,-165
33.809,33.57,2.58,3.47,-2.93,8.04,-3.00,1.68,0.51,-2.73,4.03,384.00,861.00,464.00,446.00,752.00,1841.00,2370.00,4095.00,,,,,,,,,,,,1,1,0,,-2980,15412,3364,-87,177,-131
33.871,33.62,2.52,-1.62,2.27,-0.87,2.73,1.43,1.58,1.88,-2.77,318.00,916.00,400.00,544.00,713.00,1807.00,3150.00,4095.00,,,,,,,,,,,,1,1,0,,-2864,15472,3580,-109,184,-131
33.933,33.68,2.62,0.22,2.30,0.18,5.00,4.52,-1.65,-1.49,2.20,307.00,851.00,347.00,491.00,803.00,1744.00,2559.00,4095.00,,,,,,,,,,,,1,1,0,,-2952,15400,3396,-156,159,-177
33.974,33.73,2.62,3.32,-1.11,8.27,-0.75,2.69,-0.52,-0.20,0.29,349.00,825.00,409.00,416.00,781.00,1819.00,2771.00,4095.00,,,,,,,,,,,,1,1,0,,-3080,15476,3544,-3,149,-203
34.035,33.79,2.51,0.97,0.55,3.85,0.20,0.36,2.55,0.87,-1.28,333.00,866.00,421.00,483.00,690.00,1837.00,2959.00,4095.00,,,,,,,,,,,,1,1,0,,-3056,15508,3328,29,198,-82
34.096,33.84,2.54,-2.16,4.60,-1.20,5.85,3.22,-0.08,-2.77,4.08,283.00,879.00,340.00,507.00,755.00,1760.00,2365.00,4095.00,,,,,,,,,,,,1,1,0,,-3004,15352,3348,-78,242,-82
34.178,33.90,2.57,3.38,-1.03,6.83,0.05,2.96,-0.92,1.95,-2.87,347.00,821.00,402.00,431.00,794.00,1819.00,3163.00,4095.00,,,,,,,,,,,,1,1,0,,-2996,15392,3360,-229,238,-70
34.198,33.95,2.44,1.63,-1.06,5.41,-1.64,0.05,2.28,-1.34,1.98,359.00,881.00,452.00,477.00,704.00,1873.00,2582.00,4095.00,,,,,,,,,,,,1,1,0,,-3028,15364,3408,-272,170,-69
34.323,34.01,2.41,-3.83,5.69,-2.27,4.79,1.89,0.44,-0.51,0.75,275.00,912.00,367.00,544.00,752.00,1829.00,2719.00,4095.00,,,,,,,,,,,,1,1,0,,-3024,15492,3460,-292,136,-32
34.344,34.06,2.46,1.39,-0.25,2.77,2.02,3.46,-1.71,1.40,-2.06,345.00,870.00,389.00,480.00,821.00,1821.00,3058.00,4095.00,,,,,,,,,,,,1,1,0,,-3000,15424,3448,-120,113,-58
34.364,34.12,2.38,2.81,-3.32,6.42,-2.97,0.83,0.41,-2.84,4.18,397.00,893.00,477.00,475.00,768.00,1909.00,2355.00,4095.00,,,,,,,,,,,,1,1,0,,-2924,15544,3432,-1,131,-97
34.427,34.17,2.33,-2.72,2.70,-2.30,2.71,1.39,1.06,1.78,-2.63,317.00,946.00,411.00,576.00,734.00,1835.00,3131.00,4095.00,,,,,,,,,,,,1,1,0,,-2856,15520,3344,-145,63,-79
34.488,34.23,2.42,0.74,1.02,0.56,3.69,4.13,-1.86,-0.57,0.83,326.00,863.00,370.00,501.00,818.00,1781.00,2709.00,4095.00,,,,,,,,,,,,1,1,0,,-2964,15440,3536,-98,58,9
34.53,34.28,2.40,3.97,-3.14,9.13,-3.25,1.94,0.01,-0.95,1.40,385.00,849.00,461.00,430.00,769.00,1847.00,2646.00,4095.00,,,,,,,,,,,,1,1,0,,-2892,15528,3360,24,176,-65
34.591,34.34,2.32,0.73,0.52,3.37,0.14,0.83,1.99,1.39,-2.06,335.00,875.00,426.00,493.00,705.00,1830.00,3057.00,4095.00,,,,,,,,,,,,1,1,0,,-2776,15456,3480,-5,183,-109
34.655,34.39,2.37,-1.31,3.74,-1.19,5.89,3.34,-0.17,-2.71,4.00,292.00,870.00,339.00,506.00,757.00,1756.00,2373.00,4095.00,,,,,,,,,,,,1,1,0,,-2840,15516,3432,80,150,-126
34.675,34.45,2.38,3.06,-0.32,7.68,-0.51,2.56,-0.43,1.67,-2.46,336.00,816.00,408.00,423.00,779.00,1824.00,3109.00,4095.00,,,,,,,,,,,,1,1,0,,-2904,15444,3240,-17,79,-112
34.736,34.50,2.28,0.94,-0.10,4.60,-0.91,0.34,2.05,-0.60,0.89,345.00,882.00,441.00,483.00,709.00,1863.00,2703.00,4095.00,,,,,,,,,,,,1,1,0,,-2808,15464,3480,-50,91,-162
34.799,34.56,2.31,-3.56,5.67,-3.18,6.13,2.94,0.02,-1.31,1.94,274.00,903.00,347.00,544.00,755.00,1775.00,2587.00,4095.00,,,,,,,,,,,,1,1,0,,-2788,15516,3208,-50,138,-182
34.84,34.61,2.37,2.68,-0.58,4.55,0.91,3.39,-1.46,1.81,-2.67,343.00,834.00,400.00,461.00,811.00,1814.00,3136.00,4095.00,,,,,,,,,,,,1,1,0,,-2908,15576,3204,-70,130,-211
34.9,34.67,2.30,1.08,-0.52,6.07,-1.98,1.01,0.42,-2.65,3.91,352.00,887.00,455.00,469.00,765.00,1895.00,2382.00,4095.00,,,,,,,,,,,,1,1,0,,-2816,15328,3316,-16,106,-177
35.024,34.72,2.25,-2.60,2.95,-1.70,2.87,1.26,1.05,1.36,-2.01,312.00,935.00,403.00,560.00,736.00,1845.00,3051.00,4095.00,,,,,,,,,,,,1,1,0,,-2928,15452,3296,-98,84,-209
35.045,34.78,2.31,0.89,0.57,1.29,2.76,3.61,-1.80,0.01,-0.02,333.00,868.00,384.00,499.00,823.00,1815.00,2807.00,4095.00,,,,,,,,,,,,1,1,0,,-2908,15328,3108,-618,-4,-216
35.088,34.83,2.26,3.57,-3.29,7.45,-2.89,1.24,0.20,-1.83,2.70,391.00,866.00,466.00,455.00,771.00,1889.00,2506.00,4095.00,,,,,,,,,,,,1,1,0,,-2932,15540,3060,-535,-74,-280
35.149,34.89,2.17,-1.35,1.10,0.39,1.63,0.43,1.84,1.22,-1.80,337.00,935.00,415.00,533.00,716.00,1867.00,3024.00,4095.00,,,,,,,,,,,,1,1,0,,-2908,15540,3512,317,97,-308
35.19,34.94,2.19,-1.67,3.55,-0.99,5.24,2.52,-0.11,-3.50,5.16,297.00,887.00,350.00,511.00,766.00,1811.00,2261.00,4095.00,,,,,,,,,,,,1,1,0,,-2828,15544,3564,366,105,-395
35.23,35.00,2.18,2.14,-0.39,7.27,-0.78,2.03,-0.44,1.61,-0.45,343.00,848.00,417.00,433.00,787.00,1863.00,2791.00,3889.00,,,,,,,,,,,,1,1,0,,-2844,15696,3176,-100,-140,-407
35.291,35.05,2.07,0.14,0.33,3.66,-0.51,0.07,2.17,-0.97,1.42,342.00,900.00,439.00,496.00,708.00,1877.00,2643.00,4095.00,,,,,,,,,,,,1,1,0,,-3008,15324,3040,-1214,-330,-586
35.394,35.11,2.11,-3.20,5.21,-2.15,5.74,2.78,0.02,-2.93,4.32,279.00,901.00,348.00,528.00,757.00,1786.00,2342.00,4095.00,,,,,,,,,,,,1,1,0,,-3144,15884,3116,-973,-94,-1161
35.415,35.16,2.16,3.16,-0.47,6.45,0.27,3.18,-1.32,1.17,-1.73,338.00,816.00,400.00,435.00,808.00,1822.00,3015.00,4095.00,,,,,,,,,,,,1,1,0,,-3128,15272,3424,-726,-129,-1098
35.457,35.22,2.11,1.44,-1.20,6.00,-1.79,1.14,0.64,-3.12,4.60,363.00,891.00,451.00,468.00,754.00,1874.00,2314.00,4095.00,,,,,,,,,,,,1,1,0,,-3024,14920,3528,-707,104,-278
35.52,35.27,2.08,-1.70,2.35,-1.43,3.63,1.56,1.00,-0.25,0.36,317.00,917.00,385.00,543.00,734.00,1826.00,2763.00,4095.00,,,,,,,,,,,,1,1,0,,-3024,15236,3008,-1359,58,-398
35.582,35.33,2.17,1.11,0.33,2.43,2.38,3.83,-1.97,-0.05,0.07,336.00,866.00,384.00,482.00,827.00,1807.00,2797.00,4095.00,,,,,,,,,,,,1,1,0,,-3072,15156,3072,-2100,-343,-440
35.623,35.38,2.12,3.03,-2.92,7.60,-2.94,1.12,0.46,-2.63,3.88,387.00,876.00,466.00,453.00,762.00,1885.00,2385.00,4095.00,,,,,,,,,,,,1,1,0,,-2976,14756,3252,-2373,-429,-109
35.665,35.44,2.06,-2.47,2.44,-1.25,2.40,0.96,1.53,1.56,-2.30,320.00,943.00,410.00,557.00,721.00,1843.00,3088.00,4095.00,,,,,,,,,,,,1,1,0,,-3156,15248,4284,-2625,144,172
35.768,35.49,2.14,0.21,1.54,-0.48,4.70,3.60,-1.04,-1.67,2.46,320.00,869.00,357.00,508.00,790.00,1779.00,2531.00,4095.00,,,,,,,,,,,,1,1,0,,-3160,15520,4764,-2031,485,-140
35.789,35.55,2.12,2.23,-0.32,7.46,-0.70,1.84,-0.38,0.09,-0.13,341.00,843.00,414.00,429.00,787.00,1874.00,2820.00,4095.00,,,,,,,,,,,,1,1,0,,-3284,15196,5096,-1275,384,64
35.83,35.60,2.04,0.84,-0.49,3.33,-0.10,0.40,1.90,0.31,-0.45,353.00,895.00,432.00,497.00,714.00,1866.00,2859.00,4095.00,,,,,,,,,,,,1,1,0,,-3148,15028,5704,-996,-80,-295
35.892,35.66,2.09,-2.41,4.17,-2.37,6.13,3.15,-0.47,-2.27,3.35,291.00,898.00,342.00,527.00,772.00,1783.00,2439.00,4095.00,,,,,,,,,,,,1,1,0,,-3004,14684,5888,-837,-78,-187
35.953,35.71,2.15,2.88,-0.64,5.09,0.27,3.18,-1.43,1.24,-1.83,343.00,829.00,410.00,459.00,813.00,1828.00,3028.00,4095.00,,,,,,,,,,,,1,1,0,,-2864,14596,6048,-663,220,-406
35.994,35.77,2.06,1.26,-1.40,4.65,-1.13,0.33,1.74,-1.67,2.47,368.00,902.00,446.00,485.00,721.00,1879.00,2530.00,4095.00,,,,,,,,,,,,1,1,0,,-3024,15244,6016,-1115,167,-754
36.054,35.82,2.05,-2.08,3.07,-1.17,3.59,1.91,0.46,-0.49,0.73,307.00,913.00,384.00,538.00,751.00,1827.00,2721.00,4095.00,,,,,,,,,,,,1,1,0,,-3112,14360,6692,-550,198,-1076
36.138,35.88,2.14,1.26,-0.10,2.48,2.46,3.96,-1.81,0.34,-0.50,343.00,871.00,382.00,480.00,818.00,1790.00,2865.00,4095.00,,,,,,,,,,,,1,1,0,,-3540,14456,6840,568,470,-1144
36.179,35.93,2.11,2.67,-2.56,6.67,-1.65,1.40,0.61,-2.57,3.79,382.00,880.00,442.00,454.00,752.00,1857.00,2394.00,4095.00,,,,,,,,,,,,1,1,0,,-3668,14788,5788,1038,1178,-807
36.22,35.99,2.10,-1.41,2.08,0.09,2.64,1.98,0.78,0.88,-1.30,320.00,913.00,395.00,525.00,737.00,1806.00,2962.00,4095.00,,,,,,,,,,,,1,1,0,,-3884,14388,5644,437,1561,-906
36.282,36.04,2.20,0.55,1.42,1.38,4.08,4.14,-1.48,-1.00,1.48,320.00,860.00,357.00,480.00,801.00,1762.00,2637.00,4095.00,,,,,,,,,,,,1,1,0,,-3972,14056,4956,609,1291,-740
36.344,36.10,2.24,3.22,-1.91,7.81,-1.48,2.94,-0.61,-0.54,0.79,365.00,846.00,429.00,432.00,781.00,1805.00,2714.00,4095.00,,,,,,,,,,,,1,1,0,,-4208,13480,4632,-851,836,-265
36.407,36.15,2.19,0.55,0.52,2.94,1.31,1.23,1.86,0.83,-1.23,336.00,881.00,403.00,486.00,705.00,1808.00,2953.00,4095.00,,,,,,,,,,,,1,1,0,,-4556,14684,5944,-510,230,41
36.488,36.21,2.28,-1.27,3.29,-0.74,5.91,3.99,-0.58,-1.79,2.64,299.00,879.00,336.00,497.00,765.00,1730.00,2512.00,4095.00,,,,,,,,,,,,1,1,0,,-4488,14356,6268,466,458,887
36.509,36.26,2.32,2.83,-0.57,6.87,0.69,3.18,-0.76,1.58,-2.34,342.00,829.00,388.00,423.00,784.00,1795.00,3093.00,4095.00,,,,,,,,,,,,1,1,0,,-3820,14644,4768,736,306,1159
36.55,36.32,2.25,2.16,-1.85,5.24,-0.91,0.76,1.91,-0.26,0.38,371.00,881.00,436.00,471.00,709.00,1839.00,2761.00,4095.00,,,,,,,,,,,,1,1,0,,-3476,14860,4732,307,23,993
36.612,36.37,2.28,-3.20,5.21,-1.04,5.31,3.02,0.06,-0.22,0.32,279.00,901.00,349.00,511.00,752.00,1767.00,2768.00,4095.00,,,,,,,,,,,,1,1,0,,-3384,15120,4728,204,85,548
36.674,36.43,2.36,1.40,0.13,2.91,1.98,3.76,-1.42,1.79,-2.64,338.00,861.00,389.00,478.00,804.00,1786.00,3133.00,4095.00,,,,,,,,,,,,1,1,0,,-3148,15256,4604,219,189,248
36.734,36.48,2.32,1.85,-1.65,6.07,-1.74,1.64,0.36,-1.49,2.20,369.00,887.00,449.00,466.00,759.00,1852.00,2559.00,4095.00,,,,,,,,,,,,1,1,0,,-3192,14948,4176,-207,99,-505
36.815,36.54,2.31,-2.39,2.53,-1.47,2.93,2.18,0.37,2.04,-3.01,318.00,938.00,400.00,554.00,751.00,1812.00,3181.00,4095.00,,,,,,,,,,,,1,1,0,,-3172,14768,3896,74,-485,-1026
36.899,36.59,2.40,0.87,0.14,1.67,2.87,3.94,-1.69,0.61,-0.90,341.00,879.00,379.00,490.00,813.00,1786.00,2913.00,4095.00,,,,,,,,,,,,1,1,0,,-2652,15164,4684,-144,-1535,-733
36.919,36.65,2.38,3.20,-3.27,7.21,-2.20,2.13,-0.34,-0.29,0.43,393.00,878.00,451.00,451.00,781.00,1850.00,2755.00,4095.00,,,,,,,,,,,,1,1,0,,-2612,16240,5164,616,-2151,-2069
36.96,36.70,2.33,-0.12,0.80,2.30,1.12,1.35,1.45,1.90,-2.80,335.00,898.00,412.00,501.00,719.00,1819.00,3154.00,4095.00,,,,,,,,,,,,1,1,0,,-3476,16548,4660,587,-1787,-4663
37.023,36.76,2.40,-0.93,2.75,-0.48,5.23,3.72,-0.59,-0.86,1.26,306.00,880.00,347.00,501.00,769.00,1749.00,2661.00,4095.00,,,,,,,,,,,,1,1,0,,-4232,13488,4808,359,-2000,-5250
37.065,36.81,2.44,2.89,-0.76,6.75,0.08,3.13,-0.72,1.90,-2.80,345.00,831.00,402.00,432.00,783.00,1797.00,3153.00,4095.00,,,,,,,,,,,,1,1,0,,-4732,14024,5176,715,-2060,-3242
37.105,36.87,2.40,0.97,0.16,3.95,0.21,1.60,1.27,0.86,-1.27,340.00,875.00,420.00,481.00,723.00,1810.00,2958.00,4095.00,,,,,,,,,,,,1,1,0,,-5288,14368,5204,1513,-1536,-2594
37.167,36.92,2.47,-2.40,4.62,-1.41,5.86,3.88,-0.74,-0.20,0.29,284.00,887.00,341.00,511.00,773.00,1745.00,2771.00,4095.00,,,,,,,,,,,,1,1,0,,-5320,14092,4564,1062,-946,-1768
37.228,36.98,2.54,3.08,-0.50,5.84,0.57,3.94,-1.69,2.15,-3.17,339.00,819.00,398.00,442.00,813.00,1786.00,3203.00,4095.00,,,,,,,,,,,,1,1,1,,-5156,14136,4112,-340,-533,-1757
37.269,37.03,2.52,1.38,-1.29,5.65,-1.51,2.08,-0.03,-0.75,1.11,365.00,895.00,447.00,471.00,769.00,1839.00,2678.00,4095.00,,,,,,,,,,,,1,1,1,,-5464,13708,4568,-407,-466,-1197
37.311,37.09,2.53,-1.58,1.97,-0.20,2.51,2.69,0.15,1.22,-1.80,323.00,922.00,400.00,533.00,753.00,1786.00,3025.00,4095.00,,,,,,,,,,,,1,1,1,,-5732,13984,5048,-615,-147,-484
37.372,37.14,2.62,1.42,0.01,2.89,2.32,4.41,-2.38,1.05,-1.54,340.00,863.00,382.00,474.00,837.00,1786.00,2992.00,4095.00,,,,,,,,,,,,1,1,1,,-5492,14104,5000,-352,348,524
37.435,37.20,2.60,2.72,-3.10,7.14,-2.26,2.16,-0.30,-0.60,0.89,393.00,891.00,453.00,453.00,779.00,1846.00,2703.00,4095.00,,,,,,,,,,,,1,1,1,,-5132,14264,5248,-300,659,1131
37.517,37.25,2.56,-1.90,1.57,0.10,2.40,1.83,1.09,2.02,-2.98,332.00,944.00,400.00,528.00,727.00,1802.00,3177.00,4095.00,,,,,,,,,,,,1,1,1,,-4832,14592,5076,-171,1321,1088
37.537,37.31,2.62,-0.24,1.51,0.35,4.37,3.66,-0.87,-0.49,0.73,323.00,885.00,358.00,496.00,782.00,1767.00,2721.00,4095.00,,,,,,,,,,,,1,1,1,,-4832,14620,4684,-335,1645,517
37.619,37.36,2.62,2.06,-1.11,6.62,-0.24,2.74,-0.68,1.10,-1.62,357.00,867.00,410.00,438.00,787.00,1823.00,3002.00,4095.00,,,,,,,,,,,,1,1,1,,-4752,14704,4324,-376,915,163
37.661,37.42,2.50,0.60,-0.72,3.20,0.24,0.17,2.83,0.92,-1.36,359.00,909.00,425.00,495.00,682.00,1837.00,2969.00,4095.00,,,,,,,,,,,,1,1,1,,-4844,14396,4148,-397,-194,-188
37.701,37.47,2.56,-2.15,3.58,-0.44,4.79,3.71,-0.82,-0.86,1.26,299.00,903.00,355.00,506.00,779.00,1761.00,2661.00,4095.00,,,,,,,,,,,,1,1,1,,-4996,14140,5160,-379,-628,56
37.867,37.53,2.61,2.88,-0.96,6.74,-0.33,3.47,-1.19,2.15,-3.16,349.00,836.00,411.00,437.00,798.00,1795.00,3202.00,4095.00,,,,,,,,,,,,1,1,1,,-4940,14032,5368,-301,-144,268
37.887,37.58,2.55,1.44,-1.46,3.60,0.95,1.43,1.17,-0.60,0.89,368.00,897.00,406.00,478.00,729.00,1827.00,2703.00,4095.00,,,,,,,,,,,,1,1,1,,-4796,14532,5312,-343,427,273
37.908,37.64,2.56,-0.88,1.96,-0.06,3.07,2.89,0.10,0.52,-0.76,319.00,897.00,387.00,522.00,752.00,1774.00,2896.00,4095.00,,,,,,,,,,,,1,1,1,,-4716,14560,4964,-79,317,-58
37.97,37.69,2.65,1.37,0.08,3.35,2.12,4.38,-2.11,1.21,-1.79,339.00,863.00,383.00,468.00,825.00,1775.00,3023.00,4095.00,,,,,,,,,,,,1,1,1,,-4652,14044,4596,-37,-8,-95
37.99,37.75,2.62,2.42,-2.57,7.14,-2.34,1.97,0.24,-1.21,1.79,384.00,889.00,455.00,454.00,759.00,1833.00,2603.00,4095.00,,,,,,,,,,,,1,1,1,,-4804,14428,5120,-369,11,146
38.03,37.80,2.60,-1.46,1.76,0.25,2.40,2.19,0.76,1.66,-2.45,326.00,923.00,399.00,525.00,735.00,1792.00,3108.00,4095.00,,,,,,,,,,,,1,1,1,,-4932,14780,5328,-689,328,-155
38.091,37.86,2.69,0.41,1.24,1.56,3.81,4.49,-1.83,-0.57,0.83,324.00,869.00,361.00,480.00,811.00,1754.00,2709.00,4095.00,,,,,,,,,,,,1,1,1,,-4848,14760,4676,-35,564,-78
38.173,37.91,2.70,2.22,-0.74,6.54,-0.03,2.78,-0.30,-0.12,0.18,349.00,853.00,406.00,437.00,770.00,1801.00,2784.00,4095.00,,,,,,,,,,,,1,1,1,,-4628,14356,4596,-175,49,-242
38.214,37.97,2.64,0.45,0.34,3.39,0.58,1.60,1.16,0.97,-1.43,340.00,889.00,416.00,487.00,727.00,1815.00,2978.00,4095.00,,,,,,,,,,,,1,1,1,,-4672,14272,4956,15,-80,-175
38.275,38.02,2.69,-1.64,3.05,-0.06,4.98,3.68,-0.57,-1.49,2.20,305.00,898.00,349.00,496.00,769.00,1751.00,2559.00,4095.00,,,,,,,,,,,,1,1,1,,-4736,14660,4716,-124,-232,-461
38.336,38.08,2.72,2.56,-1.01,7.26,-0.23,3.18,-1.06,1.60,-2.37,352.00,848.00,405.00,427.00,797.00,1810.00,3097.00,4095.00,,,,,,,,,,,,1,1,1,,-4748,14516,4924,62,-429,-416
38.378,38.13,2.63,1.06,-1.03,4.68,-0.55,0.87,1.51,-0.28,0.41,362.00,900.00,432.00,477.00,723.00,1851.00,2758.00,4095.00,,,,,,,,,,,,1,1,1,,-4868,14248,5204,-175,-364,-318
38.439,38.19,2.65,-3.21,4.25,-1.65,4.99,3.00,-0.22,0.01,-0.02,294.00,925.00,359.00,528.00,764.00,1782.00,2807.00,4095.00,,,,,,,,,,,,1,1,1,,-4836,14448,5220,-91,43,-245
38.502,38.24,2.71,1.42,-0.42,3.07,1.97,3.85,-1.73,1.39,-2.05,348.00,873.00,388.00,475.00,816.00,1794.00,3056.00,4095.00,,,,,,,,,,,,1,1,1,,-4900,14416,5116,-215,55,-294
38.543,38.30,2.66,2.19,-2.40,6.14,-2.01,1.84,0.24,-1.35,1.99,382.00,893.00,455.00,468.00,761.00,1843.00,2581.00,4095.00,,,,,,,,,,,,1,1,1,,-4832,14156,4876,-45,-2,-157
38.605,38.35,2.66,-1.41,1.40,-0.45,2.73,2.71,0.34,1.54,-2.27,332.00,930.00,397.00,535.00,745.00,1776.00,3085.00,4095.00,,,,,,,,,,,,1,1,2,,-4916,14072,5104,-111,59,-74
38.708,38.41,2.76,1.41,-0.15,2.07,2.99,4.67,-1.84,0.15,-0.22,343.00,867.00,374.00,481.00,809.00,1742.00,2831.00,4095.00,,,,,,,,,,,,1,1,2,,-4768,14320,5040,-122,258,-16
38.728,38.46,2.76,3.35,-2.84,8.41,-1.94,2.57,-0.13,-0.44,0.65,383.00,863.00,435.00,427.00,766.00,1808.00,2730.00,4095.00,,,,,,,,,,,,1,1,2,,-4728,14472,4932,-536,251,79
38.79,38.52,2.70,0.22,0.80,3.75,1.13,1.65,1.66,1.20,-1.77,333.00,886.00,401.00,473.00,707.00,1787.00,3021.00,4095.00,,,,,,,,,,,,1,1,2,,-4632,14396,5036,-89,-34,12
38.81,38.57,2.77,-0.44,2.28,1.49,4.14,4.16,-0.56,-1.35,1.99,311.00,874.00,355.00,477.00,762.00,1718.00,2581.00,4095.00,,,,,,,,,,,,1,1,2,,-4720,14444,5252,-269,-381,-44
38.871,38.63,2.81,2.61,-0.61,8.15,-0.58,3.46,-0.71,1.22,-1.80,344.00,837.00,406.00,416.00,778.00,1773.00,3025.00,4095.00,,,,,,,,,,,,1,1,2,,-4724,14388,5208,-275,-206,-84
38.933,38.68,2.75,0.51,0.37,4.14,0.23,1.61,1.49,-0.06,0.09,339.00,886.00,418.00,477.00,714.00,1798.00,2795.00,4095.00,,,,,,,,,,,,1,1,2,,-4756,14336,5236,-310,61,-169
38.994,38.74,2.80,-2.74,4.41,-0.52,5.13,3.86,-0.49,-0.79,1.17,289.00,904.00,349.00,503.00,763.00,1735.00,2671.00,4095.00,,,,,,,,,,,,1,1,2,,-4744,14352,5196,-62,72,-55
39.077,38.79,2.86,3.04,-1.02,7.43,-1.27,3.84,-1.36,1.37,-2.02,349.00,832.00,427.00,436.00,800.00,1777.00,3053.00,4095.00,,,,,,,,,,,,1,1,2,,-4664,14316,5080,-104,47,-91
39.098,38.85,2.81,1.61,-1.41,5.74,-1.34,1.88,0.27,-1.49,2.20,366.00,890.00,442.00,467.00,759.00,1838.00,2559.00,4095.00,,,,,,,,,,,,1,1,2,,-4696,14304,5368,-181,54,-122
39.138,38.90,2.78,-1.70,1.50,-0.69,2.67,2.31,0.52,0.81,-1.19,332.00,938.00,400.00,541.00,743.00,1795.00,2948.00,4095.00,,,,,,,,,,,,1,1,2,,-4712,14336,5368,-299,149,17
39.201,38.96,2.85,0.96,0.00,1.03,2.85,4.16,-1.81,0.29,-0.42,343.00,879.00,384.00,503.00,815.00,1776.00,2855.00,4095.00,,,,,,,,,,,,1,1,2,,-4600,14376,5136,-134,158,19
39.241,39.01,2.78,2.61,-2.69,6.92,-2.02,1.35,0.28,-1.29,1.91,385.00,885.00,449.00,454.00,766.00,1877.00,2590.00,4095.00,,,,,,,,,,,,1,1,2,,-4572,14380,5500,3,209,40
39.303,39.07,2.73,-1.63,1.75,1.42,1.82,1.81,1.45,1.16,-1.71,327.00,929.00,403.00,509.00,713.00,1786.00,3013.00,4095.00,,,,,,,,,,,,1,1,2,,-4628,14316,5196,125,212,-10
39.366,39.12,2.80,-0.62,2.76,1.17,4.30,4.20,-0.38,-1.49,2.20,304.00,869.00,354.00,481.00,754.00,1707.00,2559.00,4095.00,,,,,,,,,,,,1,1,2,,-4524,14304,5208,-7,165,-55
39.47,39.18,2.84,2.72,-0.59,7.55,0.13,3.51,-0.49,0.44,-0.65,343.00,833.00,395.00,418.00,768.00,1759.00,2882.00,4095.00,,,,,,,,,,,,1,1,2,,-4432,14568,5124,-32,136,-112
39.51,39.23,2.78,1.49,-0.17,4.61,0.25,1.75,1.81,0.15,-0.23,343.00,865.00,414.00,468.00,700.00,1773.00,2832.00,4095.00,,,,,,,,,,,,1,1,2,,-4556,14572,5304,67,32,-240
39.532,39.29,2.85,-1.61,4.22,0.36,5.26,4.18,-0.23,-1.54,2.27,286.00,869.00,341.00,484.00,748.00,1701.00,2551.00,4095.00,,,,,,,,,,,,1,1,2,,-4720,14276,5352,270,178,-151
39.571,39.34,2.92,3.64,-0.63,7.45,0.54,4.11,-1.07,1.41,-2.08,338.00,804.00,387.00,415.00,784.00,1745.00,3060.00,4095.00,,,,,,,,,,,,1,1,2,,-4688,14436,5032,178,269,33
39.633,39.40,2.87,1.93,-0.96,5.96,-0.68,2.01,1.18,-1.50,2.21,355.00,868.00,425.00,455.00,721.00,1785.00,2558.00,4095.00,,,,,,,,,,,,1,1,2,,-4492,14500,4808,-83,329,43
39.713,39.45,2.88,-1.00,2.06,0.94,2.83,3.06,0.50,0.33,-0.49,318.00,899.00,385.00,505.00,734.00,1744.00,2863.00,4095.00,,,,,,,,,,,,1,1,2,,-4512,14472,5004,142,218,-28
39.817,39.51,2.98,2.04,-0.25,3.87,1.99,4.85,-1.74,0.72,-1.07,341.00,848.00,382.00,460.00,802.00,1725.00,2933.00,4095.00,,,,,,,,,,,,1,1,2,,-4556,14532,4876,123,181,23
39.838,39.56,2.95,2.87,-2.44,7.47,-2.25,2.44,0.26,-1.72,2.54,378.00,870.00,450.00,447.00,752.00,1799.00,2523.00,4095.00,,,,,,,,,,,,1,1,2,,-4540,14372,4916,123,241,-25
39.879,39.62,2.92,-1.40,1.91,0.37,2.36,2.26,1.35,1.53,-2.26,323.00,917.00,399.00,523.00,711.00,1759.00,3083.00,4095.00,,,,,,,,,,,,1,1,2,,-4484,14400,5088,-129,162,29
39.919,39.67,3.00,0.42,1.35,1.89,4.11,4.49,-1.23,-0.69,1.02,322.00,866.00,353.00,470.00,785.00,1726.00,2688.00,4095.00,,,,,,,,,,,,1,1,2,,-4444,14572,5048,-72,171,79
39.981,39.73,3.01,2.51,-0.68,7.91,-0.50,3.22,-0.44,0.22,-0.33,346.00,842.00,406.00,419.00,770.00,1777.00,2844.00,4095.00,,,,,,,,,,,,1,1,2,,-4484,14552,4888,52,117,46
40.022,39.78,2.93,0.59,0.51,4.57,0.31,1.54,1.83,0.93,-1.37,336.00,880.00,413.00,468.00,702.00,1787.00,2971.00,4095.00,,,,,,,,,,,,1,1,2,,-4572,14600,4900,53,2,-50
40.063,39.84,3.01,-1.04,3.21,0.03,5.38,4.41,-0.45,-1.51,2.23,299.00,873.00,341.00,489.00,754.00,1696.00,2555.00,4095.00,,,,,,,,,,,,1,1,2,,-4492,14376,4904,69,67,48
40.166,39.89,3.06,3.24,-0.55,8.11,-0.24,4.03,-0.84,1.72,-2.54,339.00,815.00,399.00,413.00,775.00,1739.00,3119.00,4095.00,,,,,,,,,,,,1,1,2,,-4460,14428,5016,-31,212,-56
40.206,39.95,3.00,2.15,-0.98,5.72,-0.91,1.91,1.57,-0.78,1.15,354.00,861.00,432.00,462.00,707.00,1773.00,2673.00,4095.00,,,,,,,,,,,,1,1,2,,-4320,14612,4956,-123,226,-85
40.227,40.00,3.03,-2.54,5.13,0.24,4.46,3.67,0.29,0.02,-0.03,277.00,880.00,357.00,497.00,734.00,1712.00,2809.00,4095.00,,,,,,,,,,,,1,1,2,,-4364,14468,4924,-179,245,-68
