Time_Host,Time_Arduino,easingdata,CH1_Oxy,CH1_Deoxy,CH2_Oxy,CH2_Deoxy,CH3_Oxy,CH3_Deoxy,CH4_Oxy,CH4_Deoxy,CH1_PD730,CH1_PD850,CH2_PD730,CH2_PD850,CH3_PD730,CH3_PD850,CH4_PD730,CH4_PD850,Answers,airplane_playstate,trail_times,frameRate,Airplane X,Airplane Y,Correct,Wrong,Slow,AnswerRate,CorrectRate,VFTstates,VFTchoose,VFTCount,Culfstates,ax,ay,az,gx,gy,gz
1.357,0.04,0.00,0.00,0.00,0.00,0.00,0.00,0.00,0.00,0.00,511.00,1088.00,270.00,267.00,765.00,1067.00,2832.00,4095.00,,,,,,,,,,,,0,0,0,,-988,15436,4348,-103,466,-281
1.377,0.10,0.00,0.00,0.00,0.00,0.00,0.00,0.00,0.00,0.00,638.00,1040.00,336.00,246.00,707.00,1109.00,3781.00,4095.00,,,,,,,,,,,,0,0,0,,-1100,15456,4376,-222,636,-369
1.398,0.16,0.00,0.00,0.00,0.00,0.00,0.00,0.00,0.00,0.00,651.00,1061.00,342.00,256.00,733.00,1143.00,2951.00,4095.00,,,,,,,,,,,,0,0,0,,-932,15700,3900,-262,310,-360
1.419,0.21,0.00,0.00,0.00,0.00,0.00,0.00,0.00,0.00,0.00,598.00,1195.00,320.00,311.00,699.00,1121.00,3294.00,4095.00,,,,,,,,,,,,0,0,0,,-980,15804,4080,-289,192,-424
1.44,0.27,0.00,0.00,0.00,0.00,0.00,0.00,0.00,0.00,0.00,539.00,1101.00,251.00,272.00,809.00,1077.00,3536.00,4095.00,,,,,,,,,,,,0,0,0,,-1060,15552,4052,-417,-64,-673
1.461,1.06,0.00,0.00,0.00,0.00,0.00,0.00,0.00,0.00,0.00,630.00,1168.00,370.00,300.00,645.00,1073.00,3094.00,4095.00,,,,,,,,,,,,0,0,0,,-1248,15332,4440,55,-67,-635
1.482,1.11,0.00,0.00,0.00,0.00,0.00,0.00,0.00,0.00,0.00,586.00,1152.00,290.00,272.00,686.00,1055.00,2866.00,4095.00,,,,,,,,,,,,0,0,0,,-1388,15408,4280,-449,-286,-816
1.523,1.17,0.00,0.00,0.00,0.00,0.00,0.00,0.00,0.00,0.00,585.00,1117.00,295.00,241.00,702.00,1006.00,3542.00,4095.00,,,,,,,,,,,,0,0,0,,-1644,14964,4604,-738,-383,-624
1.584,1.22,0.00,0.00,0.00,0.00,0.00,0.00,0.00,0.00,0.00,701.00,999.00,361.00,203.00,645.00,1056.00,2640.00,4095.00,,,,,,,,,,,,0,0,0,,-1684,15200,4816,-888,-361,-225
1.687,1.28,0.00,0.00,0.00,0.00,0.00,0.00,0.00,0.00,0.00,597.00,1189.00,289.00,299.00,588.00,951.00,3273.00,3472.00,,,,,,,,,,,,0,0,0,,-1596,15256,4820,-1234,-220,-141
1.708,1.33,0.38,-2.25,5.18,0.54,6.38,7.61,-2.48,-1.26,1.29,475.00,1057.00,219.00,220.00,695.00,843.00,3035.00,4095.00,,,,,,,,,,,,0,0,0,,-1616,15176,5100,-1295,-73,-372
1.77,1.39,0.36,11.28,-7.90,28.13,-12.34,0.05,2.87,-2.51,3.13,754.00,879.00,365.00,122.00,597.00,985.00,2810.00,4095.00,,,,,,,,,,,,0,0,0,,-1564,15232,5264,-1089,-54,-195
1.812,1.44,0.41,-3.27,1.12,-6.59,4.84,1.26,5.62,0.52,-1.33,603.00,1227.00,271.00,304.00,503.00,872.00,3387.00,4095.00,,,,,,,,,,,,0,0,0,,-1724,15032,5348,-724,73,-253
1.853,1.50,0.75,-3.06,5.85,0.24,8.91,7.25,-1.10,-2.99,3.83,465.00,1072.00,192.00,208.00,649.00,824.00,2729.00,4095.00,,,,,,,,,,,,0,0,0,,-1700,15020,5360,-553,277,-80
1.914,1.55,0.84,6.81,-4.60,19.48,-7.28,2.45,1.90,2.35,-2.41,684.00,960.00,325.00,150.00,602.00,919.00,3472.00,3920.00,,,,,,,,,,,,0,0,0,,-1664,15148,5676,-353,347,-131
1.976,1.61,0.89,-0.37,0.48,1.27,2.06,1.86,3.44,-0.98,0.88,592.00,1113.00,273.00,240.00,560.00,903.00,3088.00,4095.00,,,,,,,,,,,,0,0,0,,-1500,15324,5096,39,225,-133
2.059,1.66,0.91,-0.11,0.39,3.01,2.24,1.36,4.83,-1.91,2.24,592.00,1104.00,262.00,223.00,524.00,887.00,2917.00,4095.00,,,,,,,,,,,,0,0,0,,-1552,14980,5288,204,-423,-213
2.08,1.72,1.11,0.42,0.79,6.33,0.84,4.82,0.04,1.66,-3.02,574.00,1070.00,266.00,203.00,638.00,880.00,3634.00,4095.00,,,,,,,,,,,,0,0,0,,-1636,15288,5376,282,-324,-668
2.142,1.77,1.09,6.04,-5.62,14.38,-6.35,0.84,2.08,-2.75,3.49,733.00,1017.00,339.00,179.00,614.00,975.00,2769.00,4095.00,,,,,,,,,,,,0,0,0,,-1780,14836,5376,-174,97,-1000
2.184,1.83,1.12,-2.79,0.74,-4.36,3.82,1.66,3.44,1.51,-2.37,610.00,1216.00,275.00,286.00,562.00,910.00,3518.00,4048.00,,,,,,,,,,,,0,0,0,,-1872,14812,5236,-701,146,-1131
2.247,1.88,1.49,-2.80,4.90,2.60,5.43,8.56,-2.40,-0.65,0.39,487.00,1088.00,222.00,208.00,680.00,810.00,3152.00,4095.00,,,,,,,,,,,,0,0,0,,-2148,14892,5936,-629,331,-780
2.309,1.94,1.43,11.03,-8.37,31.15,-13.60,0.25,2.96,-2.05,2.45,777.00,899.00,370.00,112.00,592.00,975.00,2891.00,4095.00,,,,,,,,,,,,0,0,0,,-2196,14676,5944,-531,439,-412
2.35,1.99,1.46,-2.87,0.86,-6.30,4.54,2.00,4.65,0.62,-1.49,607.00,1216.00,274.00,303.00,523.00,869.00,3409.00,4095.00,,,,,,,,,,,,0,0,0,,-2076,14760,5752,-42,444,-45
2.473,2.05,1.77,-1.87,4.44,-0.22,7.67,7.73,-1.54,-2.76,3.50,491.00,1062.00,207.00,219.00,659.00,818.00,2767.00,4095.00,,,,,,,,,,,,0,0,0,,-2100,14940,5512,71,468,239
2.493,2.10,1.82,6.88,-4.27,19.11,-6.99,2.70,1.82,1.68,-2.55,671.00,949.00,322.00,151.00,602.00,912.00,3542.00,4041.00,,,,,,,,,,,,0,0,0,,-2128,14908,5732,180,458,254
2.534,2.16,1.85,0.45,-0.47,1.64,1.21,2.44,3.24,-0.90,0.76,614.00,1105.00,284.00,242.00,560.00,887.00,3103.00,4095.00,,,,,,,,,,,,0,0,0,,-1936,14836,5300,257,736,550
2.596,2.21,1.98,0.19,0.29,1.64,1.67,4.37,1.29,-1.61,1.80,592.00,1094.00,277.00,239.00,601.00,866.00,2971.00,4095.00,,,,,,,,,,,,0,0,0,,-1692,15108,5088,105,504,499
2.658,2.27,2.18,0.14,1.31,1.61,2.50,5.95,-0.26,1.74,-3.13,561.00,1067.00,265.00,234.00,635.00,848.00,3652.00,4095.00,,,,,,,,,,,,0,0,0,,-1812,15124,5228,-50,323,273
2.699,2.32,2.14,6.46,-5.30,12.09,-6.17,1.55,2.24,-2.76,3.50,715.00,992.00,350.00,195.00,601.00,944.00,2767.00,4095.00,,,,,,,,,,,,0,0,0,,-1680,15256,5052,102,175,266
2.779,2.38,2.15,-2.73,1.12,-5.77,3.64,2.16,3.91,1.36,-2.57,597.00,1201.00,285.00,304.00,543.00,881.00,3567.00,4095.00,,,,,,,,,,,,0,0,0,,-1512,15356,5044,351,-44,250
2.799,2.43,2.47,-2.57,4.68,0.23,5.18,8.69,-2.63,-0.26,-0.19,491.00,1085.00,235.00,230.00,687.00,811.00,3229.00,4095.00,,,,,,,,,,,,0,0,0,,-1516,15288,5012,285,-190,-139
2.841,2.49,2.33,10.35,-8.64,21.90,-12.07,-0.36,2.79,-1.07,1.01,798.00,930.00,403.00,155.00,604.00,1003.00,3071.00,4095.00,,,,,,,,,,,,0,0,0,,-1780,14952,5408,-114,263,-292
2.903,2.54,2.29,-3.27,0.43,-7.60,2.82,1.44,4.19,1.77,-3.18,626.00,1250.00,308.00,334.00,542.00,900.00,3659.00,4095.00,,,,,,,,,,,,0,0,0,,-1640,14948,5352,-555,532,-347
2.964,2.60,2.55,-1.87,3.00,-1.31,4.05,7.55,-1.59,-2.42,3.00,531.00,1104.00,257.00,252.00,663.00,825.00,2826.00,4095.00,,,,,,,,,,,,0,0,0,,-1860,15068,5140,-482,585,-230
3.025,2.65,2.59,6.97,-4.60,14.66,-6.77,3.35,1.69,1.65,-3.00,682.00,954.00,345.00,179.00,599.00,892.00,3632.00,4095.00,,,,,,,,,,,,0,0,0,,-1788,15012,5224,-269,380,-74
3.088,2.71,2.61,1.18,-0.89,1.00,-0.66,2.96,2.77,-0.98,0.88,620.00,1086.00,318.00,261.00,569.00,880.00,3088.00,4095.00,,,,,,,,,,,,0,0,0,,-1780,15352,5528,-104,336,-148
3.149,2.76,2.72,0.63,0.33,1.12,0.31,4.84,1.60,-1.42,1.52,586.00,1074.00,301.00,253.00,586.00,843.00,3006.00,4095.00,,,,,,,,,,,,0,0,0,,-1668,15176,5364,187,458,-173
3.191,2.82,2.91,1.22,0.87,2.24,0.94,6.58,-0.47,1.66,-3.02,563.00,1034.00,285.00,238.00,635.00,832.00,3635.00,4095.00,,,,,,,,,,,,0,0,0,,-1744,15052,5220,312,391,-278
3.233,2.87,2.88,7.20,-5.29,11.59,-6.92,2.33,2.26,-2.86,3.64,705.00,963.00,368.00,203.00,592.00,915.00,2751.00,4095.00,,,,,,,,,,,,0,0,0,,-1804,15120,5024,197,450,-412
3.314,2.93,2.91,-1.62,0.81,-5.84,2.65,3.34,3.68,1.47,-2.52,595.00,1159.00,301.00,313.00,538.00,846.00,3550.00,4071.00,,,,,,,,,,,,0,0,0,,-1864,15072,4724,181,292,-174
3.354,2.98,3.26,-2.11,5.61,-1.50,5.68,9.99,-2.66,-0.65,0.39,463.00,1039.00,236.00,243.00,672.00,771.00,3152.00,4095.00,,,,,,,,,,,,0,0,0,,-1972,15232,4768,522,314,-398
3.417,3.04,3.14,12.05,-9.05,21.62,-12.60,0.91,2.67,-1.23,1.24,791.00,879.00,417.00,159.00,594.00,957.00,3042.00,4095.00,,,,,,,,,,,,0,0,0,,-2004,15052,4716,115,341,137
3.519,3.09,3.09,-2.01,0.06,-7.99,2.95,1.99,4.59,1.29,-2.47,624.00,1201.00,308.00,338.00,525.00,871.00,3552.00,4095.00,,,,,,,,,,,,0,0,0,,-1992,15104,5456,-183,563,223
3.54,3.15,3.31,-1.49,2.97,-2.22,3.51,7.57,-1.35,-2.51,3.13,528.00,1088.00,269.00,265.00,654.00,819.00,2811.00,4095.00,,,,,,,,,,,,0,0,0,,-1796,15272,4876,708,657,183
3.582,3.20,3.30,6.47,-4.30,10.55,-6.12,3.14,1.55,2.14,-3.72,677.00,965.00,359.00,207.00,606.00,903.00,3743.00,4095.00,,,,,,,,,,,,0,0,0,,-1552,15512,4968,1384,1334,965
3.643,3.26,3.30,1.31,-1.32,-0.08,-0.47,3.23,1.95,-0.82,0.64,633.00,1093.00,321.00,271.00,592.00,890.00,3119.00,4095.00,,,,,,,,,,,,0,0,0,,-1620,15440,4884,1824,1730,908
3.745,3.31,3.36,0.37,-0.35,-0.93,0.63,4.52,1.67,-1.30,1.35,611.00,1105.00,307.00,272.00,587.00,852.00,3028.00,4095.00,,,,,,,,,,,,0,0,0,,-1336,15444,3424,2100,2317,1336
3.765,3.37,3.58,0.81,1.35,1.75,0.28,7.74,-1.46,1.33,-2.54,553.00,1038.00,298.00,247.00,656.00,816.00,3562.00,4095.00,,,,,,,,,,,,0,0,0,,-936,15496,2584,2228,2492,1548
3.785,3.42,3.51,7.31,-5.77,9.78,-6.91,2.19,2.46,-3.59,4.72,722.00,971.00,380.00,218.00,587.00,915.00,2630.00,4095.00,,,,,,,,,,,,0,0,0,,-1808,16576,2416,1230,1536,543
3.888,3.48,3.49,-2.15,0.74,-6.44,2.01,3.05,4.02,3.69,-2.97,603.00,1186.00,315.00,326.00,531.00,848.00,3493.00,3774.00,,,,,,,,,,,,0,0,0,,-1336,15576,2548,701,1296,486
3.908,3.53,3.82,-2.82,5.49,-2.28,5.48,10.26,-3.16,-1.21,1.21,472.00,1072.00,242.00,252.00,687.00,773.00,3045.00,4095.00,,,,,,,,,,,,0,0,0,,-1208,15260,2156,-59,1341,61
3.949,3.59,3.68,10.99,-8.64,18.86,-12.33,1.03,2.57,-1.02,1.57,789.00,907.00,432.00,176.00,596.00,955.00,2977.00,4026.00,,,,,,,,,,,,0,0,0,,-1440,15620,3200,-1448,1455,-403
4.011,3.64,3.60,-1.83,-0.18,-6.53,0.80,2.06,3.98,0.67,-1.56,630.00,1200.00,337.00,338.00,542.00,883.00,3419.00,4095.00,,,,,,,,,,,,0,0,0,,-1876,15280,3424,-1885,2056,136
4.053,3.70,3.79,-1.27,2.45,-0.37,-0.32,7.34,-0.87,-3.60,4.75,541.00,1094.00,320.00,273.00,640.00,816.00,2627.00,4095.00,,,,,,,,,,,,0,0,0,,-1976,13972,4820,-4189,-349,-1996
4.112,3.75,3.77,6.01,-4.03,10.57,-6.33,3.46,1.32,3.70,-2.98,673.00,976.00,363.00,208.00,610.00,897.00,3495.00,3774.00,,,,,,,,,,,,0,0,0,,-2320,14880,6240,-1258,-854,-122
4.175,3.81,3.74,2.71,-2.14,1.60,-2.26,3.01,2.03,-2.16,2.62,645.00,1057.00,343.00,266.00,592.00,896.00,2871.00,4095.00,,,,,,,,,,,,0,0,0,,-2368,14932,6344,-738,-347,612
4.256,3.86,3.72,-0.65,0.42,-2.35,0.35,3.47,2.03,1.32,1.12,597.00,1127.00,320.00,290.00,587.00,880.00,2923.00,3715.00,,,,,,,,,,,,0,0,0,,-2420,15136,6468,-690,-274,130
4.276,3.92,3.85,-0.32,1.46,0.23,0.61,6.33,-1.13,0.35,-1.09,561.00,1082.00,301.00,260.00,661.00,855.00,3353.00,4095.00,,,,,,,,,,,,0,0,0,,-1688,14832,6016,-73,-382,1071
4.378,3.97,3.71,7.09,-5.82,11.64,-8.43,1.02,2.36,-3.74,4.95,727.00,981.00,399.00,211.00,603.00,961.00,2605.00,4095.00,,,,,,,,,,,,0,0,0,,-1388,14972,5504,207,-326,1288
4.399,4.03,3.63,-2.97,1.05,-8.47,2.46,2.00,4.44,4.08,-2.47,602.00,1215.00,319.00,349.00,529.00,874.00,3376.00,3667.00,,,,,,,,,,,,0,0,0,,-1444,14936,5552,33,-92,1097
4.462,4.08,3.95,-3.03,6.40,-3.27,6.20,10.17,-3.08,-1.87,2.19,451.00,1055.00,237.00,257.00,685.00,774.00,2923.00,4095.00,,,,,,,,,,,,0,0,0,,-892,15492,5004,148,-30,1315
4.524,4.14,3.83,11.41,-8.14,21.20,-12.68,1.53,2.31,0.97,0.83,762.00,880.00,422.00,162.00,599.00,943.00,2988.00,3795.00,,,,,,,,,,,,0,0,0,,-824,15620,5088,191,14,717
4.625,4.19,3.77,-1.55,0.45,-7.02,1.75,2.57,3.43,0.06,-0.66,606.00,1167.00,323.00,336.00,553.00,878.00,3293.00,4095.00,,,,,,,,,,,,0,0,0,,-736,15700,4708,250,107,428
4.646,4.25,3.95,-1.43,4.03,-2.59,3.36,7.45,-0.61,-3.42,4.47,498.00,1055.00,273.00,270.00,630.00,807.00,2657.00,4095.00,,,,,,,,,,,,0,0,0,,-712,15576,4368,254,54,152
4.667,4.30,3.97,5.73,-3.01,8.94,-5.16,4.26,0.90,3.24,-3.15,640.00,960.00,351.00,215.00,615.00,879.00,3557.00,3861.00,,,,,,,,,,,,0,0,0,,-800,15436,4200,577,-48,93
4.729,4.36,3.95,3.30,-1.75,3.17,-2.41,3.55,1.91,-2.10,2.53,625.00,1022.00,336.00,251.00,590.00,880.00,2882.00,4095.00,,,,,,,,,,,,0,0,0,,-676,15096,4052,690,-306,859
4.771,4.41,3.96,-0.23,0.78,-2.33,0.57,4.12,2.22,1.13,0.32,581.00,1098.00,316.00,288.00,574.00,853.00,3063.00,3824.00,,,,,,,,,,,,0,0,0,,-624,15144,3820,1028,-222,1688
4.831,4.47,4.13,0.14,2.21,-0.33,1.87,7.37,-1.42,0.84,-1.81,534.00,1041.00,284.00,257.00,659.00,827.00,3455.00,4095.00,,,,,,,,,,,,0,0,0,,-320,15112,3916,765,-579,2021
4.892,4.52,4.00,8.34,-6.04,18.15,-10.20,1.61,2.19,-3.25,4.22,719.00,939.00,390.00,171.00,602.00,943.00,2685.00,4095.00,,,,,,,,,,,,0,0,0,,-8,15156,3680,693,-995,2390
5.036,4.58,3.89,-2.56,1.13,-8.13,2.29,1.75,4.56,2.13,-2.92,595.00,1193.00,320.00,346.00,528.00,880.00,3583.00,4008.00,,,,,,,,,,,,0,0,0,,604,15820,4276,323,-989,2090
5.056,4.63,4.16,-3.39,6.40,-3.99,5.98,9.40,-3.27,-1.57,1.75,454.00,1070.00,243.00,266.00,702.00,802.00,2978.00,4095.00,,,,,,,,,,,,0,0,0,,928,16212,4032,76,-250,1484
5.077,4.69,4.02,9.85,-7.42,15.65,-10.64,1.22,1.99,0.94,-0.30,754.00,918.00,418.00,191.00,613.00,963.00,3178.00,3917.00,,,,,,,,,,,,0,0,0,,1060,16096,4312,27,403,148
5.118,4.74,3.95,-0.65,-0.40,-5.64,0.50,2.61,3.28,0.26,-0.96,624.00,1152.00,337.00,329.00,557.00,880.00,3334.00,4095.00,,,,,,,,,,,,0,0,0,,880,15644,3904,-85,845,-414
5.179,4.80,4.11,-1.39,3.98,-3.31,3.88,7.21,-0.36,-3.23,4.19,499.00,1055.00,269.00,274.00,624.00,809.00,2689.00,4095.00,,,,,,,,,,,,0,0,0,,924,15536,4052,-353,684,-390
5.219,4.85,4.15,4.74,-2.24,6.46,-4.00,4.93,0.86,3.22,-3.72,625.00,978.00,345.00,230.00,609.00,857.00,3669.00,3923.00,,,,,,,,,,,,0,0,0,,792,15676,3932,-297,314,-359
5.28,4.91,4.10,3.98,-2.25,2.52,-2.19,3.18,2.03,-2.29,2.80,634.00,1008.00,336.00,256.00,590.00,890.00,2849.00,4095.00,,,,,,,,,,,,0,0,0,,636,15560,3940,-159,-28,-73
5.362,4.96,4.08,-0.67,0.52,-5.26,2.15,3.70,2.75,2.23,-0.78,594.00,1125.00,306.00,310.00,562.00,855.00,3185.00,3769.00,,,,,,,,,,,,0,0,0,,652,15568,4020,-52,-45,4
5.383,5.02,4.26,-0.48,3.24,-1.56,1.71,7.67,-1.63,0.74,-1.66,511.00,1038.00,293.00,271.00,663.00,822.00,3434.00,4095.00,,,,,,,,,,,,0,0,0,,580,15628,4136,-42,31,-17
5.444,5.07,4.12,8.86,-6.24,12.30,-8.70,1.42,2.47,-2.95,3.77,720.00,925.00,400.00,207.00,595.00,943.00,2736.00,4095.00,,,,,,,,,,,,0,0,0,,660,15672,4184,-140,393,38
5.487,5.13,3.99,-2.78,1.23,-9.01,2.41,1.59,5.22,1.72,-3.12,594.00,1200.00,323.00,357.00,511.00,870.00,3649.00,4095.00,,,,,,,,,,,,0,0,0,,700,15480,3992,-239,442,79
5.549,5.18,4.28,-3.82,7.21,-5.28,6.64,9.69,-3.13,-1.85,2.15,438.00,1065.00,240.00,275.00,693.00,790.00,2928.00,4095.00,,,,,,,,,,,,0,0,0,,788,15584,4076,-244,656,88
5.611,5.24,4.15,8.74,-6.58,12.08,-9.08,1.82,1.60,1.72,-1.32,735.00,938.00,410.00,211.00,619.00,950.00,3312.00,3904.00,,,,,,,,,,,,0,0,0,,804,15636,4020,-341,603,15
5.652,5.29,4.05,-0.75,-0.21,-5.79,0.60,2.00,3.39,0.27,-0.96,619.00,1151.00,336.00,330.00,560.00,899.00,3335.00,4095.00,,,,,,,,,,,,0,0,0,,864,15608,4072,-344,541,-178
5.736,5.35,4.13,-2.03,3.29,-4.29,3.60,5.67,-0.28,-2.52,3.14,524.00,1102.00,278.00,287.00,639.00,858.00,2809.00,4095.00,,,,,,,,,,,,0,0,0,,880,15760,3816,-423,627,-226
5.756,5.40,4.14,0.95,-0.18,0.51,-1.63,4.46,0.57,2.19,-3.80,599.00,1075.00,338.00,273.00,624.00,880.00,3755.00,4095.00,,,,,,,,,,,,0,0,0,,780,15568,4156,-532,423,-469
5.817,5.46,4.06,3.78,-2.21,3.24,-3.40,2.52,2.10,-2.70,3.41,635.00,1015.00,354.00,257.00,595.00,912.00,2778.00,4095.00,,,,,,,,,,,,0,0,0,,620,15584,4172,-492,398,-392
5.877,5.51,4.08,-1.76,0.95,-7.12,1.89,4.33,1.61,4.18,-1.76,592.00,1161.00,321.00,336.00,591.00,860.00,3243.00,3583.00,,,,,,,,,,,,0,0,0,,488,15456,4132,-313,24,-273
5.938,5.57,4.30,-1.22,4.26,-2.95,3.62,8.46,-1.93,0.05,-0.65,490.00,1040.00,271.00,272.00,664.00,803.00,3291.00,4095.00,,,,,,,,,,,,0,0,0,,720,15732,4296,-260,-58,-94
6.001,5.62,4.15,9.39,-6.49,12.19,-8.71,1.28,2.51,-2.95,3.77,723.00,912.00,401.00,208.00,595.00,947.00,2736.00,4095.00,,,,,,,,,,,,0,0,0,,660,15484,4424,-300,-178,-68
6.083,5.68,3.99,-4.22,2.22,-11.29,3.35,1.04,5.44,1.49,-2.51,578.00,1237.00,320.00,381.00,510.00,884.00,3547.00,4067.00,,,,,,,,,,,,0,0,0,,624,15572,4380,-168,-30,-75
6.104,5.73,4.27,-3.72,6.92,-6.27,6.90,9.67,-2.96,-2.58,3.23,444.00,1069.00,241.00,284.00,687.00,787.00,2799.00,4095.00,,,,,,,,,,,,0,0,0,,572,15708,4568,-222,99,-77
6.164,5.79,4.19,7.58,-5.86,8.81,-7.48,2.52,1.37,4.29,-2.25,722.00,963.00,399.00,230.00,619.00,930.00,3322.00,3614.00,,,,,,,,,,,,0,0,0,,692,15468,4580,-86,124,-117
6.226,5.84,4.09,-0.03,-0.15,-4.55,0.74,2.25,3.77,-0.66,0.40,609.00,1117.00,326.00,313.00,546.00,881.00,3150.00,4095.00,,,,,,,,,,,,0,0,0,,548,15452,4356,-51,221,-157
6.287,5.90,4.11,-1.58,3.18,-4.46,3.32,4.49,0.95,-2.67,3.37,523.00,1086.00,283.00,291.00,611.00,870.00,2783.00,4095.00,,,,,,,,,,,,0,0,0,,500,15436,4412,-72,315,-150
6.327,5.95,4.14,0.59,0.63,-1.53,-0.21,4.80,0.28,1.69,-3.06,577.00,1067.00,325.00,285.00,630.00,875.00,3641.00,4095.00,,,,,,,,,,,,0,0,0,,608,15584,4324,-263,314,-76
6.389,6.01,4.00,3.73,-2.39,4.29,-4.37,1.26,2.15,-3.11,4.01,642.00,1022.00,366.00,253.00,607.00,957.00,2709.00,4095.00,,,,,,,,,,,,0,0,0,,684,15660,4292,-294,159,-105
6.451,6.06,3.91,-2.76,1.25,-8.01,1.57,2.25,3.27,4.70,-2.50,593.00,1198.00,332.00,351.00,561.00,893.00,3343.00,3581.00,,,,,,,,,,,,0,0,0,,620,15624,4316,-299,28,-228
6.471,6.12,4.13,-2.15,4.57,-3.37,4.10,8.17,-2.19,-0.51,0.18,490.00,1070.00,266.00,273.00,677.00,818.00,3180.00,4095.00,,,,,,,,,,,,0,0,0,,684,15412,4356,-414,-58,-149
6.533,6.17,3.93,9.97,-6.61,16.99,-11.83,0.29,2.85,-2.34,3.47,720.00,894.00,435.00,187.00,595.00,976.00,2751.00,4031.00,,,,,,,,,,,,0,0,0,,636,15396,4316,-397,-339,150
6.593,6.23,3.83,-3.51,1.54,-10.44,2.90,1.95,5.43,0.81,-1.77,592.00,1225.00,323.00,373.00,502.00,853.00,3450.00,4095.00,,,,,,,,,,,,0,0,0,,640,15456,4556,-298,-290,68
6.655,6.28,4.08,-4.50,9.07,-5.35,6.74,8.66,-2.13,-3.14,4.05,401.00,1041.00,239.00,275.00,669.00,801.00,2704.00,4095.00,,,,,,,,,,,,0,0,0,,868,15596,4496,-392,-150,-9
6.696,6.34,4.03,7.10,-4.40,9.54,-6.38,3.08,1.73,5.37,-3.02,673.00,944.00,371.00,217.00,601.00,901.00,3397.00,3536.00,,,,,,,,,,,,0,0,0,,852,15380,4484,-413,14,-168
6.758,6.39,3.95,0.26,0.43,-3.79,0.72,2.42,3.65,-1.24,1.26,587.00,1087.00,322.00,304.00,548.00,878.00,3039.00,4095.00,,,,,,,,,,,,0,0,0,,836,15520,4744,-532,137,-258
6.819,6.45,3.98,-0.49,1.88,-2.48,1.70,4.57,1.69,-0.80,2.41,550.00,1077.00,298.00,281.00,586.00,850.00,2832.00,3901.00,,,,,,,,,,,,0,0,0,,760,15528,4724,-501,375,-355
6.879,6.50,4.07,1.14,1.00,2.52,-0.71,5.83,0.40,1.26,-2.44,560.00,1034.00,310.00,246.00,614.00,837.00,3547.00,4095.00,,,,,,,,,,,,0,0,0,,676,15340,4812,-367,539,-221
6.921,6.56,3.95,7.21,-5.11,8.66,-6.77,1.64,2.71,-3.49,4.58,698.00,958.00,385.00,227.00,585.00,929.00,2645.00,4095.00,,,,,,,,,,,,0,0,0,,708,15484,4492,-392,403,-249
6.982,6.61,3.92,-2.26,1.53,-7.17,1.97,3.34,3.37,5.20,-3.01,579.00,1166.00,320.00,336.00,547.00,853.00,3406.00,3559.00,,,,,,,,,,,,0,0,0,,612,15308,4696,-383,285,-245
7.043,6.67,4.18,-2.19,5.51,-3.81,4.89,9.10,-2.31,-0.96,0.85,466.00,1045.00,257.00,272.00,670.00,791.00,3092.00,4095.00,,,,,,,,,,,,0,0,0,,736,15500,4876,-350,242,-251
7.105,6.72,3.99,11.17,-8.25,15.79,-11.04,0.39,2.63,-1.85,2.37,770.00,891.00,426.00,192.00,601.00,978.00,2893.00,4071.00,,,,,,,,,,,,0,0,0,,608,15404,4924,-211,239,-323
7.207,6.78,3.82,-3.16,1.14,-10.10,2.90,0.55,5.57,0.77,-1.71,601.00,1221.00,321.00,368.00,511.00,898.00,3441.00,4095.00,,,,,,,,,,,,0,0,0,,556,15360,4644,-190,259,-255
7.228,6.83,3.98,-3.14,4.53,-5.15,4.22,7.14,-1.26,-3.24,4.21,500.00,1114.00,273.00,292.00,656.00,831.00,2687.00,4095.00,,,,,,,,,,,,0,0,0,,692,15436,4740,-200,187,-304
7.269,6.89,3.92,6.58,-4.03,8.57,-5.81,2.71,1.85,5.54,-3.34,666.00,954.00,366.00,222.00,601.00,911.00,3446.00,3543.00,,,,,,,,,,,,0,0,0,,440,15256,4896,-178,159,-216
7.309,6.94,3.86,1.12,-0.36,-2.16,-0.06,2.81,3.12,-1.87,2.18,603.00,1073.00,326.00,291.00,560.00,877.00,2924.00,4095.00,,,,,,,,,,,,0,0,0,,580,15320,4740,-171,189,-177
7.35,7.00,3.90,0.33,0.85,-2.53,0.99,4.61,2.02,1.61,1.40,573.00,1072.00,310.00,287.00,575.00,841.00,2864.00,3645.00,,,,,,,,,,,,0,0,0,,608,15336,4636,-239,-16,-243
7.41,7.05,4.06,0.94,1.98,0.36,0.57,7.06,-0.78,0.71,-1.61,533.00,1015.00,301.00,259.00,640.00,823.00,3427.00,4095.00,,,,,,,,,,,,0,0,0,,452,15348,4940,-236,-48,-149
7.471,7.11,3.95,7.53,-5.03,10.27,-7.12,1.90,2.56,-3.72,4.92,691.00,944.00,381.00,215.00,587.00,923.00,2608.00,4095.00,,,,,,,,,,,,0,0,0,,572,15320,4872,-143,1,-184
7.595,7.16,3.89,-2.40,1.77,-7.27,2.12,2.69,4.25,5.52,-3.04,573.00,1165.00,318.00,336.00,528.00,855.00,3391.00,3517.00,,,,,,,,,,,,0,0,0,,532,15400,4716,-16,57,-64
7.617,7.22,4.22,-3.14,7.23,-4.31,6.32,10.60,-3.22,-1.72,1.96,432.00,1036.00,240.00,267.00,685.00,764.00,2951.00,4095.00,,,,,,,,,,,,0,0,0,,560,15288,4920,-97,73,-120
7.636,7.27,4.07,11.89,-8.42,18.77,-11.33,1.10,2.54,1.25,1.11,767.00,870.00,410.00,172.00,596.00,953.00,2928.00,3725.00,,,,,,,,,,,,0,0,0,,476,15396,4820,-82,262,-28
7.697,7.33,4.03,-2.51,1.17,-7.25,1.09,3.28,3.46,0.15,-0.80,593.00,1189.00,336.00,345.00,545.00,853.00,3312.00,4095.00,,,,,,,,,,,,0,0,0,,664,15188,4896,-103,222,-110
7.738,7.38,4.20,-2.07,4.21,-3.72,3.81,7.39,-0.86,-3.56,4.68,499.00,1077.00,272.00,279.00,639.00,814.00,2634.00,4095.00,,,,,,,,,,,,0,0,0,,736,15480,4804,-133,227,-3
7.8,7.44,4.13,5.57,-3.16,9.95,-6.12,2.91,1.60,4.66,-3.48,647.00,970.00,363.00,212.00,607.00,910.00,3527.00,3681.00,,,,,,,,,,,,0,0,0,,656,15324,4868,-147,245,-85
7.862,7.49,4.08,2.08,-1.31,-1.19,-1.11,3.08,1.85,-2.12,2.55,624.00,1060.00,339.00,288.00,597.00,898.00,2879.00,4095.00,,,,,,,,,,,,0,0,0,,788,15260,4720,-69,283,-45
7.924,7.55,4.04,-0.39,0.65,-4.00,1.02,3.21,2.53,2.18,0.32,587.00,1109.00,318.00,304.00,574.00,877.00,3004.00,3667.00,,,,,,,,,,,,0,0,0,,716,15572,4672,-143,142,-153
7.985,7.60,4.22,-0.79,2.60,-2.08,2.33,7.76,-1.50,0.46,-1.26,532.00,1069.00,286.00,272.00,657.00,816.00,3376.00,4095.00,,,,,,,,,,,,0,0,0,,588,15332,5004,-115,92,-168
8.026,7.66,4.09,8.28,-5.63,11.37,-7.68,1.51,2.81,-4.03,5.37,704.00,931.00,385.00,209.00,583.00,931.00,2559.00,4095.00,,,,,,,,,,,,0,0,0,,604,15304,4740,-91,84,-126
8.069,7.71,4.00,-2.23,1.52,-7.78,2.76,2.26,5.32,5.17,-2.94,579.00,1165.00,310.00,337.00,502.00,845.00,3395.00,3557.00,,,,,,,,,,,,0,0,0,,624,15400,4924,-49,132,-182
8.129,7.77,4.37,-2.65,7.03,-4.60,7.44,11.53,-3.85,-2.24,2.73,433.00,1022.00,227.00,262.00,697.00,749.00,2858.00,4095.00,,,,,,,,,,,,0,0,0,,672,15308,4876,-58,141,-171
8.192,7.82,4.25,11.26,-7.63,19.16,-11.69,1.86,2.38,3.34,-0.22,743.00,873.00,415.00,171.00,593.00,929.00,3029.00,3554.00,,,,,,,,,,,,0,0,0,,688,15400,4728,-34,109,-161
8.294,7.88,4.20,-0.32,-0.36,-6.58,1.43,3.26,3.54,-0.32,-0.09,619.00,1136.00,326.00,333.00,543.00,852.00,3216.00,4095.00,,,,,,,,,,,,0,0,0,,552,15244,4868,-48,41,-255
8.335,7.93,4.37,-1.22,4.26,-3.38,4.38,7.76,-0.51,-3.48,4.73,490.00,1040.00,262.00,271.00,623.00,795.00,2623.00,4077.00,,,,,,,,,,,,0,0,0,,628,15444,4760,22,76,-155
8.355,7.99,4.44,4.77,-2.39,5.52,-3.74,5.64,0.65,4.71,-3.48,630.00,981.00,346.00,237.00,608.00,838.00,3525.00,3675.00,,,,,,,,,,,,0,0,0,,496,15448,4764,-12,143,-156
8.417,8.04,4.40,3.43,-1.62,2.28,-1.83,3.69,1.83,-2.76,3.50,619.00,1013.00,331.00,256.00,591.00,877.00,2767.00,4095.00,,,,,,,,,,,,0,0,0,,664,15244,4804,-87,123,-188
8.458,8.10,4.37,-1.43,1.35,-5.42,2.27,3.88,2.76,4.03,-0.71,576.00,1134.00,305.00,311.00,560.00,849.00,3071.00,3504.00,,,,,,,,,,,,0,0,0,,548,15296,4656,-110,113,-158
8.519,8.15,4.56,-1.51,3.95,-1.54,3.07,8.17,-1.77,0.07,-0.67,501.00,1061.00,272.00,261.00,662.00,809.00,3295.00,4095.00,,,,,,,,,,,,0,0,0,,692,15352,4872,-226,106,-137
8.58,8.21,4.40,8.33,-6.13,13.02,-8.67,1.30,2.60,-3.43,4.48,723.00,942.00,394.00,201.00,592.00,944.00,2656.00,4095.00,,,,,,,,,,,,0,0,0,,608,15328,4844,-197,77,-149
8.662,8.26,4.23,-3.88,1.54,-9.91,2.72,1.05,5.55,2.65,-2.58,596.00,1243.00,323.00,367.00,507.00,881.00,3486.00,3892.00,,,,,,,,,,,,0,0,0,,588,15324,4788,-82,126,-71
8.683,8.32,4.49,-4.89,7.99,-5.33,7.13,9.39,-3.16,-2.39,2.95,428.00,1088.00,234.00,272.00,698.00,800.00,2832.00,4095.00,,,,,,,,,,,,0,0,0,,736,15308,4840,-126,130,-94
8.744,8.37,4.36,7.39,-6.07,12.15,-8.65,1.92,1.69,4.04,-1.56,733.00,976.00,400.00,208.00,615.00,944.00,3215.00,3583.00,,,,,,,,,,,,0,0,0,,724,15420,4760,-121,97,-260
8.785,8.43,4.29,-0.85,0.06,0.20,-1.30,2.87,3.63,-0.75,0.53,611.00,1147.00,334.00,274.00,544.00,863.00,3133.00,4095.00,,,,,,,,,,,,0,0,0,,608,15268,4740,-66,112,-129
8.846,8.48,4.42,-1.97,4.63,-3.07,3.93,6.92,-0.11,-1.80,3.82,487.00,1061.00,267.00,271.00,619.00,813.00,2672.00,3908.00,,,,,,,,,,,,0,0,0,,660,15316,4736,-130,82,-177
8.927,8.54,4.49,1.57,0.46,1.60,-0.40,5.74,0.68,3.82,-3.05,572.00,1031.00,310.00,253.00,606.00,834.00,3499.00,3762.00,,,,,,,,,,,,0,0,0,,576,15440,4852,-197,111,-120
8.949,8.59,4.41,4.10,-1.93,2.94,-2.22,3.07,2.32,-3.32,4.32,622.00,995.00,334.00,252.00,582.00,887.00,2674.00,4095.00,,,,,,,,,,,,0,0,0,,628,15500,4948,-130,216,-109
9.031,8.65,4.39,-2.12,1.61,-6.51,2.69,3.91,2.75,5.56,-1.85,575.00,1157.00,304.00,321.00,560.00,848.00,3178.00,3401.00,,,,,,,,,,,,0,0,0,,748,15440,4720,-106,126,-179
9.092,8.70,4.61,-2.21,5.40,-3.20,4.54,8.85,-1.89,-0.54,0.22,469.00,1049.00,259.00,268.00,658.00,790.00,3174.00,4095.00,,,,,,,,,,,,0,0,0,,644,15252,4764,-95,45,-150
9.134,8.76,4.45,9.34,-6.22,14.22,-9.12,1.30,2.60,-2.54,3.87,713.00,907.00,395.00,194.00,592.00,944.00,2702.00,4020.00,,,,,,,,,,,,0,0,0,,624,15388,4832,-94,58,-141
9.195,8.81,4.30,-4.31,1.97,-11.26,4.11,1.47,5.70,2.04,-2.01,587.00,1250.00,307.00,373.00,499.00,863.00,3418.00,3926.00,,,,,,,,,,,,0,0,0,,624,15380,4716,-65,58,-226
9.257,8.87,4.53,-4.41,7.66,-7.32,8.20,8.88,-2.32,-3.04,3.91,432.00,1077.00,229.00,286.00,673.00,798.00,2720.00,4095.00,,,,,,,,,,,,0,0,0,,608,15332,4712,-120,-47,-224
9.299,8.92,4.43,6.26,-4.89,9.35,-6.96,2.62,1.82,5.10,-2.47,702.00,989.00,384.00,222.00,603.00,915.00,3313.00,3521.00,,,,,,,,,,,,0,0,0,,600,15252,4848,-96,-9,-196
9.401,8.98,4.32,-0.96,0.13,-4.91,1.03,2.23,3.85,-1.09,1.03,610.00,1150.00,323.00,315.00,544.00,880.00,3068.00,4095.00,,,,,,,,,,,,0,0,0,,612,15316,4740,-139,96,-182
9.422,9.03,4.31,-2.31,3.18,-2.84,2.78,4.08,1.20,-1.88,3.09,530.00,1118.00,283.00,277.00,607.00,878.00,2785.00,3999.00,,,,,,,,,,,,0,0,0,,552,15360,4720,-120,145,-141
9.483,9.09,4.35,-0.11,1.42,-1.09,0.87,5.12,0.23,1.39,-2.63,560.00,1074.00,304.00,272.00,628.00,865.00,3575.00,4095.00,,,,,,,,,,,,0,0,0,,656,15344,4788,-150,76,-153
9.504,9.14,4.20,4.11,-3.28,4.97,-3.56,1.39,1.81,-3.24,4.21,669.00,1031.00,346.00,241.00,617.00,961.00,2687.00,4095.00,,,,,,,,,,,,0,0,0,,644,15300,4952,-136,79,-157
9.565,9.20,4.10,-2.97,0.81,-8.21,2.73,2.06,3.47,4.67,-2.64,610.00,1223.00,313.00,343.00,557.00,895.00,3371.00,3599.00,,,,,,,,,,,,0,0,0,,596,15524,4872,-178,153,-198
9.627,9.25,4.33,-3.51,5.41,-3.68,4.70,8.72,-2.40,-0.81,0.62,480.00,1104.00,259.00,272.00,678.00,805.00,3121.00,4095.00,,,,,,,,,,,,0,0,0,,612,15280,4832,-88,177,-146
9.689,9.31,4.12,9.91,-7.34,16.34,-10.47,0.21,2.97,-1.14,2.74,750.00,914.00,409.00,185.00,592.00,976.00,2800.00,3920.00,,,,,,,,,,,,0,0,0,,728,15244,4692,-138,96,-131
9.77,9.36,3.98,-3.78,1.54,-10.83,3.37,1.22,5.35,0.46,-1.26,595.00,1238.00,317.00,374.00,511.00,880.00,3376.00,4095.00,,,,,,,,,,,,0,0,0,,596,15404,4760,-204,116,-81
9.791,9.42,4.16,-3.67,6.09,-5.90,6.10,7.75,-1.52,-3.46,4.53,464.00,1091.00,250.00,286.00,658.00,817.00,2651.00,4095.00,,,,,,,,,,,,0,0,0,,656,15380,4992,-207,112,-136
9.833,9.47,4.10,6.27,-4.14,9.99,-6.54,2.81,1.91,5.91,-3.21,674.00,969.00,371.00,214.00,598.00,906.00,3398.00,3479.00,,,,,,,,,,,,0,0,0,,756,15448,4764,-85,200,-146
9.916,9.53,4.03,-0.32,0.40,-3.43,0.42,2.69,3.26,-1.67,1.89,594.00,1113.00,325.00,302.00,557.00,878.00,2960.00,4095.00,,,,,,,,,,,,0,0,0,,704,15348,4908,-54,60,-236
9.957,9.58,4.01,-0.41,0.87,-2.13,0.27,3.75,2.25,0.60,1.87,580.00,1103.00,320.00,288.00,577.00,865.00,2843.00,3745.00,,,,,,,,,,,,0,0,0,,636,15368,4732,-70,12,-140
10.018,9.64,4.12,-0.15,1.90,-0.79,0.71,6.24,-0.24,0.91,-1.92,546.00,1062.00,305.00,270.00,631.00,838.00,3471.00,4095.00,,,,,,,,,,,,0,0,0,,588,15340,4756,-120,111,-236
10.08,9.69,3.98,6.34,-5.21,6.93,-6.28,1.31,2.63,-3.65,4.82,713.00,994.00,387.00,240.00,591.00,943.00,2619.00,4095.00,,,,,,,,,,,,0,0,0,,552,15340,4808,-130,110,-162
10.162,9.75,3.88,-3.08,1.30,-8.09,2.33,1.88,4.42,5.26,-3.08,595.00,1212.00,319.00,345.00,531.00,879.00,3415.00,3557.00,,,,,,,,,,,,0,0,0,,580,15316,4976,-121,58,-197
10.183,9.80,4.13,-4.08,6.79,-3.86,4.69,8.95,-2.50,-1.31,1.36,450.00,1088.00,260.00,274.00,679.00,800.00,3026.00,4095.00,,,,,,,,,,,,0,0,0,,464,15360,4780,-106,109,-145
10.224,9.86,3.92,10.15,-8.27,17.60,-12.33,-0.11,2.80,-0.53,1.65,785.00,928.00,442.00,185.00,601.00,993.00,2937.00,3940.00,,,,,,,,,,,,0,0,0,,492,15292,4764,-103,225,-115
10.266,9.91,3.75,-3.85,1.22,-9.42,1.99,0.61,4.91,0.58,-1.43,606.00,1252.00,333.00,367.00,529.00,912.00,3401.00,4095.00,,,,,,,,,,,,0,0,0,,712,15304,4780,-130,141,-62
10.327,9.97,3.88,-3.08,3.61,-6.01,4.11,6.25,-0.96,-3.23,4.20,525.00,1139.00,279.00,303.00,656.00,854.00,2688.00,4095.00,,,,,,,,,,,,0,0,0,,608,15428,4612,-103,69,-85
10.389,10.02,3.79,4.51,-3.50,6.84,-5.38,2.06,1.52,4.03,-3.51,672.00,1021.00,369.00,235.00,619.00,943.00,3575.00,3778.00,,,,,,,,,,,,0,0,0,,624,15332,4856,-150,151,-159
10.452,10.08,3.71,0.49,-1.42,-1.99,-1.32,2.22,1.77,-1.65,1.87,646.00,1132.00,348.00,299.00,609.00,931.00,2963.00,4095.00,,,,,,,,,,,,0,0,0,,640,15424,4920,-189,152,-285
10.515,10.13,3.66,-1.10,0.26,-3.54,0.35,2.69,2.42,1.45,0.74,607.00,1152.00,327.00,304.00,583.00,898.00,2977.00,3734.00,,,,,,,,,,,,0,0,0,,616,15280,4856,-42,90,-154
10.556,10.19,3.82,-0.88,2.59,-1.09,0.87,6.87,-1.47,0.72,-1.63,533.00,1073.00,304.00,272.00,667.00,845.00,3429.00,4095.00,,,,,,,,,,,,0,0,0,,648,15320,4892,-74,128,-147
10.617,10.24,3.68,6.94,-5.49,9.31,-7.23,0.99,2.55,-3.73,4.93,716.00,978.00,390.00,224.00,597.00,957.00,2607.00,4095.00,,,,,,,,,,,,0,0,0,,696,15408,4804,-76,207,-151
10.678,10.30,3.56,-3.05,1.35,-8.35,2.08,1.25,5.33,4.67,-3.03,593.00,1209.00,325.00,351.00,511.00,879.00,3443.00,3636.00,,,,,,,,,,,,0,0,0,,636,15252,4780,-68,122,-156
10.759,10.35,3.88,-4.85,7.38,-4.45,5.84,9.99,-3.63,-1.76,2.03,442.00,1104.00,247.00,272.00,708.00,791.00,2943.00,4095.00,,,,,,,,,,,,0,0,0,,780,15400,4900,-39,140,-189
10.78,10.41,3.72,10.61,-8.37,15.54,-11.26,0.64,2.61,1.59,0.39,783.00,914.00,433.00,195.00,599.00,969.00,3025.00,3747.00,,,,,,,,,,,,0,0,0,,612,15344,4724,-61,172,-179
10.883,10.46,3.61,-2.37,0.12,-8.46,1.50,1.60,3.53,0.16,-0.80,626.00,1216.00,336.00,358.00,560.00,910.00,3313.00,4095.00,,,,,,,,,,,,0,0,0,,556,15312,4756,2,108,-138
10.903,10.52,3.77,-2.62,4.14,-3.78,2.97,6.70,-0.83,-3.46,4.53,506.00,1103.00,285.00,286.00,646.00,836.00,2651.00,4095.00,,,,,,,,,,,,0,0,0,,732,15428,4832,-40,121,-186
10.966,10.57,3.75,3.45,-1.69,6.11,-4.93,3.54,0.99,4.12,-3.68,621.00,1014.00,365.00,239.00,620.00,902.00,3601.00,3781.00,,,,,,,,,,,,0,0,0,,604,15372,4684,-72,81,-212
10.985,10.63,3.66,2.01,-1.70,1.57,-3.04,1.89,2.25,-2.27,2.77,638.00,1074.00,358.00,272.00,597.00,931.00,2853.00,4095.00,,,,,,,,,,,,0,0,0,,588,15368,4908,-69,21,-188
11.047,10.68,3.61,-1.23,0.43,-4.88,0.52,2.62,2.60,2.25,-0.28,603.00,1153.00,332.00,319.00,578.00,896.00,3099.00,3716.00,,,,,,,,,,,,0,0,0,,488,15272,4764,-87,60,-176
11.109,10.74,3.75,-1.69,2.97,-2.78,1.62,6.40,-1.62,0.63,-1.49,530.00,1097.00,301.00,285.00,678.00,864.00,3410.00,4095.00,,,,,,,,,,,,0,0,0,,520,15312,4860,-143,161,-107
11.15,10.79,3.62,6.71,-5.89,9.20,-7.89,1.25,0.75,-3.20,4.14,735.00,998.00,405.00,229.00,655.00,994.00,2694.00,4095.00,,,,,,,,,,,,0,0,0,,612,15408,4948,-125,136,-50
11.252,10.85,3.48,-4.00,0.88,-9.41,1.87,0.66,4.55,2.02,-2.81,619.00,1271.00,335.00,368.00,539.00,919.00,3570.00,4015.00,,,,,,,,,,,,0,0,0,,544,15448,4824,-90,153,-122
11.273,10.90,3.71,-5.98,7.77,-7.58,7.42,8.14,-3.44,-1.86,2.17,442.00,1143.00,240.00,295.00,725.00,847.00,2926.00,4095.00,,,,,,,,,,,,0,0,0,,628,15312,4792,-95,91,-145
11.314,10.96,3.53,7.13,-6.63,12.27,-9.90,0.13,1.96,2.00,-0.91,759.00,1001.00,427.00,214.00,626.00,1006.00,3221.00,3817.00,,,,,,,,,,,,0,0,0,,556,15396,4672,-127,13,-204
11.397,11.01,3.43,-1.68,-0.52,-6.06,-0.22,1.50,3.56,-0.21,-0.26,640.00,1204.00,353.00,341.00,560.00,913.00,3239.00,4095.00,,,,,,,,,,,,0,0,0,,552,15332,4816,-100,66,-52
11.438,11.07,3.54,-3.57,4.61,-6.35,4.49,5.72,-0.18,-3.19,4.13,502.00,1131.00,275.00,304.00,635.00,854.00,2695.00,4095.00,,,,,,,,,,,,0,0,0,,616,15380,5012,-137,133,-142
11.5,11.12,3.57,0.87,-0.34,-4.26,-0.51,4.05,0.70,2.95,-3.28,605.00,1083.00,347.00,320.00,624.00,891.00,3601.00,3919.00,,,,,,,,,,,,0,0,0,,732,15376,4660,-187,118,-121
11.541,11.18,3.50,1.99,-1.61,0.48,-2.26,2.11,1.93,-2.76,3.49,635.00,1072.00,350.00,278.00,605.00,931.00,2768.00,4095.00,,,,,,,,,,,,0,0,0,,656,15464,4940,-121,85,-166
11.604,11.23,3.42,-3.41,1.54,-9.04,2.25,1.94,3.31,3.72,-1.40,591.00,1220.00,326.00,359.00,563.00,903.00,3206.00,3614.00,,,,,,,,,,,,0,0,0,,580,15440,4880,-50,108,-186
11.665,11.29,3.60,-3.14,4.87,-3.78,3.36,6.99,-1.79,-0.00,-0.57,491.00,1104.00,279.00,283.00,677.00,848.00,3280.00,4095.00,,,,,,,,,,,,0,0,0,,660,15220,4684,-61,89,-148
11.726,11.34,3.44,7.48,-5.90,10.67,-8.56,0.40,2.50,-2.99,3.84,725.00,968.00,409.00,220.00,605.00,981.00,2728.00,4095.00,,,,,,,,,,,,0,0,0,,648,15340,4744,-61,71,-143
11.767,11.40,3.27,-5.06,1.69,-11.99,2.58,0.08,5.73,1.19,-2.32,604.00,1297.00,338.00,400.00,511.00,911.00,3530.00,4095.00,,,,,,,,,,,,0,0,0,,600,15300,4796,-111,81,-182
11.828,11.45,3.49,-5.02,7.40,-8.03,7.34,7.78,-2.51,-2.47,3.07,443.00,1111.00,243.00,301.00,694.00,838.00,2817.00,4095.00,,,,,,,,,,,,0,0,0,,564,15352,4868,-85,95,-157
11.889,11.51,3.38,5.10,-5.02,7.38,-7.73,1.23,1.51,3.43,-2.16,722.00,1039.00,415.00,245.00,629.00,975.00,3359.00,3731.00,,,,,,,,,,,,0,0,0,,592,15348,4932,-77,150,-159
11.971,11.56,3.26,-2.09,0.15,-6.33,0.73,0.98,3.44,-0.48,0.14,622.00,1202.00,337.00,336.00,569.00,935.00,3185.00,4095.00,,,,,,,,,,,,0,0,0,,520,15352,4744,-63,121,-128
11.991,11.62,3.24,-3.81,3.75,-6.60,3.53,2.82,1.12,-2.40,2.96,528.00,1168.00,291.00,315.00,624.00,925.00,2830.00,4095.00,,,,,,,,,,,,0,0,0,,608,15320,4796,-145,76,-134
12.032,11.67,3.25,-0.99,0.63,-3.22,0.24,3.42,0.48,1.93,-3.42,594.00,1136.00,327.00,301.00,639.00,919.00,3696.00,4095.00,,,,,,,,,,,,0,0,0,,592,15492,4872,-157,88,-99
12.094,11.73,3.08,2.46,-2.64,1.89,-3.66,-0.04,2.17,-2.79,3.55,666.00,1082.00,368.00,273.00,621.00,1007.00,2762.00,4095.00,,,,,,,,,,,,0,0,0,,608,15300,4848,-114,110,-153
12.156,11.78,2.97,-4.10,1.09,-9.75,2.38,0.73,3.36,3.14,-2.35,613.00,1269.00,328.00,368.00,574.00,946.00,3411.00,3793.00,,,,,,,,,,,,0,0,0,,628,15416,4724,-157,119,-194
12.217,11.84,3.17,-4.33,5.01,-6.12,4.15,7.09,-2.41,-0.26,-0.19,498.00,1153.00,279.00,304.00,699.00,859.00,3229.00,4095.00,,,,,,,,,,,,0,0,0,,580,15272,4848,-155,43,-189
12.297,11.89,2.93,8.36,-6.77,12.23,-9.14,-1.60,2.63,-2.44,3.02,748.00,957.00,410.00,210.00,623.00,1058.00,2823.00,4095.00,,,,,,,,,,,,0,0,0,,632,15340,4772,-98,95,-124
12.339,11.95,2.81,-5.32,1.99,-12.27,2.89,0.46,5.17,0.94,-1.96,597.00,1300.00,334.00,401.00,523.00,911.00,3477.00,4095.00,,,,,,,,,,,,0,0,0,,708,15280,4876,-161,178,-104
12.359,12.00,3.01,-5.49,7.27,-8.31,7.13,6.74,-1.81,-2.99,3.83,450.00,1136.00,247.00,306.00,681.00,857.00,2729.00,4095.00,,,,,,,,,,,,0,0,0,,664,15384,4776,-114,137,-154
12.421,12.06,2.94,5.21,-4.17,6.58,-5.93,1.63,1.61,4.48,-3.07,688.00,1011.00,382.00,241.00,621.00,957.00,3461.00,3667.00,,,,,,,,,,,,0,0,0,,668,15468,4880,-63,114,-209
12.482,12.11,2.84,-1.23,-0.05,-5.15,0.22,0.99,3.70,-1.16,1.14,619.00,1168.00,339.00,325.00,561.00,928.00,3054.00,4095.00,,,,,,,,,,,,0,0,0,,584,15376,4656,-78,84,-225
12.543,12.17,2.85,-1.27,0.94,-5.01,1.07,2.99,1.60,-2.01,2.41,587.00,1139.00,323.00,316.00,606.00,907.00,2896.00,4093.00,,,,,,,,,,,,0,0,0,,652,15360,4780,-73,98,-180
12.585,12.22,2.95,-0.86,1.71,-2.61,1.38,4.88,-0.10,1.71,-3.10,559.00,1098.00,304.00,285.00,642.00,881.00,3646.00,4095.00,,,,,,,,,,,,0,0,0,,664,15320,4808,-114,108,-195
12.708,12.28,2.82,4.91,-4.86,4.84,-6.19,0.40,2.69,-3.04,3.91,718.00,1042.00,400.00,260.00,599.00,976.00,2720.00,4095.00,,,,,,,,,,,,0,0,0,,664,15384,4756,-156,99,-230
12.728,12.33,2.74,-3.19,1.34,-9.65,2.23,1.09,4.20,3.46,-3.05,595.00,1216.00,330.00,368.00,545.00,912.00,3523.00,3817.00,,,,,,,,,,,,0,0,0,,656,15456,4896,-115,95,-124
12.749,12.39,2.99,-4.85,6.49,-7.85,7.82,7.80,-2.42,-0.63,0.36,464.00,1131.00,236.00,295.00,690.00,835.00,3155.00,4095.00,,,,,,,,,,,,0,0,0,,608,15268,4876,-96,147,-147
12.812,12.44,2.80,8.79,-7.95,14.67,-11.47,-0.85,2.35,-1.48,1.62,791.00,971.00,445.00,203.00,624.00,1035.00,2994.00,4095.00,,,,,,,,,,,,0,0,0,,580,15380,4948,-113,200,-140
12.872,12.50,2.65,-4.61,1.18,-10.51,1.92,-0.16,4.75,1.10,-2.19,616.00,1292.00,341.00,384.00,541.00,944.00,3511.00,4095.00,,,,,,,,,,,,0,0,0,,636,15380,4788,-141,122,-145
12.912,12.55,2.79,-4.06,3.84,-6.61,3.66,5.50,-1.01,-2.84,3.62,528.00,1177.00,289.00,314.00,667.00,881.00,2754.00,4095.00,,,,,,,,,,,,0,0,0,,588,15328,4644,-73,103,-144
12.974,12.61,2.72,3.39,-3.18,5.82,-5.72,1.38,1.25,2.75,-3.60,674.00,1058.00,383.00,247.00,636.00,976.00,3677.00,3984.00,,,,,,,,,,,,0,0,0,,764,15420,4796,-176,133,-175
13.076,12.66,2.68,-0.77,-0.82,-3.14,-1.09,1.93,1.60,-1.26,1.29,640.00,1171.00,351.00,311.00,618.00,946.00,3035.00,4095.00,,,,,,,,,,,,0,0,0,,648,15376,4860,-222,99,-211
13.096,12.72,2.68,-1.95,0.92,-4.39,0.75,2.59,2.20,0.04,1.06,595.00,1171.00,325.00,311.00,591.00,907.00,3001.00,3913.00,,,,,,,,,,,,0,0,0,,676,15308,4744,-134,101,-102
13.137,12.77,2.85,-1.60,2.66,-3.56,2.26,6.17,-1.32,1.11,-2.21,538.00,1102.00,295.00,289.00,670.00,865.00,3514.00,4095.00,,,,,,,,,,,,0,0,0,,560,15376,5052,-156,137,-178
13.198,12.83,2.74,5.92,-4.89,5.98,-5.97,0.71,2.58,-3.46,4.54,706.00,1002.00,387.00,247.00,599.00,967.00,2650.00,4095.00,,,,,,,,,,,,0,0,0,,636,15332,4896,-110,78,-138
13.239,12.88,2.67,-3.67,1.50,-9.82,2.69,1.16,4.76,3.79,-3.13,595.00,1234.00,323.00,366.00,528.00,896.00,3517.00,3775.00,,,,,,,,,,,,0,0,0,,608,15308,4888,-60,86,-156
13.32,12.94,3.00,-5.05,7.58,-7.02,6.85,9.38,-3.60,-1.39,1.47,439.00,1107.00,245.00,293.00,715.00,810.00,3012.00,4095.00,,,,,,,,,,,,0,0,0,,556,15276,4876,-57,84,-197
13.382,12.99,2.89,9.54,-7.92,18.79,-12.22,0.74,2.00,0.60,0.50,779.00,942.00,430.00,176.00,618.00,981.00,3062.00,3886.00,,,,,,,,,,,,0,0,0,,604,15400,4932,-65,147,-122
13.444,13.05,2.82,-2.92,0.37,-9.36,1.80,1.44,3.65,0.41,-1.18,624.00,1235.00,336.00,368.00,558.00,913.00,3365.00,4095.00,,,,,,,,,,,,0,0,0,,664,15324,4748,-40,138,-151
13.465,13.10,2.99,-3.23,4.53,-5.55,4.42,6.40,-0.61,-3.24,4.21,501.00,1118.00,272.00,295.00,642.00,841.00,2687.00,4095.00,,,,,,,,,,,,0,0,0,,656,15412,4792,-61,67,-182
13.526,13.16,3.01,4.10,-2.75,5.75,-4.40,3.37,0.96,3.46,-3.69,650.00,1017.00,357.00,239.00,623.00,909.00,3647.00,3883.00,,,,,,,,,,,,0,0,0,,660,15308,4632,-102,28,-131
13.586,13.21,2.98,1.57,-1.46,0.87,-2.28,2.44,2.00,-2.08,2.50,635.00,1086.00,348.00,274.00,599.00,917.00,2886.00,4095.00,,,,,,,,,,,,0,0,0,,672,15432,4864,-110,33,-152
13.647,13.27,2.96,-2.20,1.10,-5.68,1.58,2.46,2.72,1.80,-0.27,592.00,1177.00,318.00,320.00,576.00,899.00,3124.00,3783.00,,,,,,,,,,,,0,0,0,,560,15456,5008,-96,90,-182
13.708,13.32,3.15,-2.26,3.20,-2.36,1.66,6.75,-1.57,0.78,-1.72,529.00,1115.00,298.00,280.00,672.00,851.00,3442.00,4095.00,,,,,,,,,,,,0,0,0,,552,15336,4772,-56,81,-86
13.809,13.38,3.00,5.92,-5.58,9.00,-7.59,0.15,2.53,-3.14,4.05,733.00,1021.00,400.00,229.00,607.00,990.00,2704.00,4095.00,,,,,,,,,,,,0,0,0,,764,15368,4688,-61,147,-112
13.829,13.43,2.87,-4.31,1.38,-10.08,2.66,0.46,4.93,1.67,-2.96,606.00,1270.00,325.00,370.00,530.00,917.00,3621.00,4086.00,,,,,,,,,,,,0,0,0,,696,15368,4608,-179,170,-154
13.849,13.49,3.17,-5.42,7.33,-7.20,7.37,8.91,-3.18,-1.92,2.27,448.00,1131.00,239.00,291.00,705.00,816.00,2914.00,4095.00,,,,,,,,,,,,0,0,0,,600,15376,4808,-146,77,-148
13.911,13.54,3.09,7.65,-6.26,14.86,-10.24,1.43,1.94,3.04,-1.12,737.00,971.00,415.00,195.00,612.00,956.00,3198.00,3685.00,,,,,,,,,,,,0,0,0,,588,15468,4848,-85,97,-85
13.953,13.60,3.03,-1.42,0.13,-5.49,0.50,2.01,3.92,-0.33,-0.09,615.00,1171.00,336.00,327.00,544.00,886.00,3215.00,4095.00,,,,,,,,,,,,0,0,0,,540,15364,4732,-118,143,-86
14.014,13.65,3.21,-2.77,4.63,-4.32,4.42,6.60,-0.18,-3.13,4.05,494.00,1095.00,266.00,281.00,625.00,825.00,2705.00,4095.00,,,,,,,,,,,,0,0,0,,872,15404,4832,-148,164,-100
14.076,13.71,3.30,0.64,0.14,0.63,-0.83,4.96,0.73,2.96,-3.31,592.00,1079.00,323.00,266.00,613.00,859.00,3605.00,3920.00,,,,,,,,,,,,0,0,0,,732,15320,4916,-98,142,-152
14.119,13.76,3.28,2.68,-1.46,2.87,-2.42,2.89,2.01,-2.83,3.61,622.00,1039.00,338.00,254.00,594.00,901.00,2755.00,4095.00,,,,,,,,,,,,0,0,0,,676,15420,4736,-82,81,-239
14.18,13.82,3.28,-3.17,1.74,-7.93,2.87,3.34,2.94,4.56,-1.78,582.00,1202.00,309.00,338.00,560.00,863.00,3223.00,3531.00,,,,,,,,,,,,0,0,0,,536,15408,4696,-21,105,-153
14.241,13.87,3.56,-2.82,5.53,-2.40,4.34,8.91,-2.22,-0.16,-0.33,471.00,1071.00,258.00,261.00,669.00,795.00,3248.00,4095.00,,,,,,,,,,,,0,0,0,,644,15460,4896,-19,149,-133
14.283,13.93,3.45,8.19,-6.01,14.23,-8.74,1.30,2.60,-2.94,3.76,720.00,944.00,387.00,192.00,592.00,944.00,2737.00,4095.00,,,,,,,,,,,,0,0,0,,644,15420,4576,-78,123,-166
14.345,13.98,3.34,-5.03,2.46,-10.84,3.79,1.21,5.57,1.26,-2.19,579.00,1269.00,310.00,370.00,505.00,875.00,3501.00,4069.00,,,,,,,,,,,,0,0,0,,688,15364,4728,-110,52,-177
14.406,14.04,3.60,-5.14,7.82,-5.80,8.09,8.52,-2.33,-2.70,3.42,434.00,1104.00,224.00,270.00,678.00,810.00,2777.00,4095.00,,,,,,,,,,,,0,0,0,,592,15412,4812,-138,107,-159
14.447,14.09,3.58,5.62,-4.73,9.73,-7.18,3.32,1.28,4.28,-2.54,704.00,1010.00,386.00,220.00,613.00,903.00,3376.00,3644.00,,,,,,,,,,,,0,0,0,,608,15372,4840,-138,77,-152
14.549,14.15,3.50,-1.63,0.41,-4.54,0.97,1.83,3.68,-0.78,0.59,608.00,1172.00,322.00,311.00,553.00,898.00,3126.00,4095.00,,,,,,,,,,,,0,0,0,,628,15360,4852,-25,85,-133
14.57,14.20,3.49,-3.07,3.50,-6.82,6.93,3.44,1.60,-2.43,3.01,528.00,1142.00,243.00,290.00,601.00,891.00,2825.00,4095.00,,,,,,,,,,,,0,0,0,,672,15364,4672,-116,196,-118
14.612,14.26,3.55,-0.75,1.34,-0.44,0.47,4.55,0.59,1.67,-3.04,569.00,1104.00,307.00,268.00,622.00,876.00,3637.00,4095.00,,,,,,,,,,,,0,0,0,,732,15432,4632,-185,159,-210
14.673,14.31,3.44,3.91,-3.16,6.17,-4.38,1.48,2.54,-3.31,4.31,667.00,1036.00,354.00,235.00,592.00,939.00,2675.00,4095.00,,,,,,,,,,,,0,0,0,,592,15304,4736,-105,28,-147
14.735,14.37,3.42,-3.14,1.79,-7.47,3.08,2.96,4.16,5.85,-2.77,580.00,1199.00,303.00,330.00,528.00,848.00,3323.00,3447.00,,,,,,,,,,,,0,0,0,,700,15304,4864,-148,109,-124
14.797,14.42,3.73,-3.75,6.98,-2.21,4.78,9.60,-2.28,-0.98,0.88,443.00,1069.00,251.00,256.00,663.00,775.00,3088.00,4095.00,,,,,,,,,,,,0,0,0,,756,15304,4832,-142,182,-118
14.86,14.48,3.60,10.00,-6.77,19.50,-12.42,1.16,2.77,-0.86,2.61,726.00,897.00,429.00,172.00,588.00,945.00,2806.00,3891.00,,,,,,,,,,,,0,0,0,,592,15360,4720,-80,101,-128
14.922,14.53,3.51,-3.98,2.01,-10.24,3.41,1.91,5.66,0.50,-1.30,582.00,1232.00,313.00,365.00,496.00,849.00,3383.00,4095.00,,,,,,,,,,,,0,0,0,,724,15256,4780,-222,112,-232
14.942,14.59,3.75,-3.19,5.97,-3.95,5.37,8.29,-1.39,-3.62,4.77,463.00,1074.00,251.00,270.00,647.00,797.00,2624.00,4095.00,,,,,,,,,,,,0,0,0,,624,15376,4668,-77,91,-205
15.003,14.64,3.77,5.91,-3.27,10.48,-5.83,4.19,1.05,6.53,-3.19,647.00,960.00,354.00,206.00,611.00,878.00,3356.00,3392.00,,,,,,,,,,,,0,0,0,,700,15360,4744,-104,34,-117
15.065,14.70,3.77,0.30,0.16,-1.09,-0.08,3.67,3.06,-1.94,2.29,595.00,1093.00,320.00,279.00,553.00,849.00,2911.00,4095.00,,,,,,,,,,,,0,0,0,,704,15408,4788,-117,124,-169
15.127,14.75,3.84,-0.32,1.43,-0.09,0.66,5.16,1.84,2.03,1.57,562.00,1083.00,302.00,263.00,575.00,827.00,2815.00,3568.00,,,,,,,,,,,,0,0,0,,636,15388,4888,-135,49,-154
15.169,14.81,4.02,0.11,2.29,1.35,1.63,7.48,-0.71,0.69,-1.59,532.00,1040.00,279.00,242.00,633.00,808.00,3424.00,4095.00,,,,,,,,,,,,0,0,0,,688,15348,4884,-81,102,-119
15.272,14.86,3.92,6.98,-4.92,11.11,-6.76,2.05,2.54,-3.88,5.15,694.00,962.00,368.00,206.00,586.00,918.00,2583.00,4095.00,,,,,,,,,,,,0,0,0,,752,15404,4852,-99,150,-171
15.293,14.92,3.87,-2.79,1.80,-6.87,3.00,2.84,4.34,5.72,-3.19,576.00,1182.00,301.00,323.00,524.00,848.00,3406.00,3503.00,,,,,,,,,,,,0,0,0,,568,15340,4824,-71,56,-96
15.334,14.97,4.17,-4.04,7.54,-3.03,6.43,9.98,-2.99,-1.60,1.79,432.00,1065.00,233.00,253.00,684.00,778.00,2973.00,4095.00,,,,,,,,,,,,0,0,0,,584,15396,4904,-51,115,-111
15.416,15.03,4.01,10.52,-7.91,20.32,-12.52,0.92,2.42,0.81,1.00,765.00,906.00,425.00,167.00,602.00,963.00,2970.00,3803.00,,,,,,,,,,,,0,0,0,,648,15428,4820,-120,191,-187
15.437,15.08,3.92,-3.03,1.44,-7.42,2.23,2.26,3.81,0.36,-1.11,590.00,1205.00,317.00,337.00,545.00,880.00,3355.00,4095.00,,,,,,,,,,,,0,0,0,,636,15352,4820,-60,110,-237
15.5,15.14,4.12,-2.35,4.45,-4.00,5.17,7.90,-0.68,-3.68,4.86,495.00,1082.00,254.00,272.00,627.00,794.00,2614.00,4095.00,,,,,,,,,,,,0,0,0,,660,15280,4796,-66,126,-167
15.562,15.19,4.15,6.11,-2.91,11.50,-5.49,4.61,1.46,6.05,-3.65,632.00,943.00,341.00,196.00,593.00,854.00,3472.00,3501.00,,,,,,,,,,,,0,0,0,,648,15316,4864,-148,135,-205
15.644,15.25,4.14,2.86,-0.70,3.48,-1.21,3.98,2.43,-2.48,3.08,595.00,1011.00,313.00,240.00,569.00,853.00,2816.00,4095.00,,,,,,,,,,,,0,0,0,,748,15300,4876,-125,116,-155
15.664,15.30,4.18,0.14,1.34,-0.34,0.74,5.04,2.44,3.87,-0.07,560.00,1066.00,302.00,265.00,558.00,818.00,2976.00,3467.00,,,,,,,,,,,,0,0,0,,604,15468,4756,-91,134,-183
15.725,15.36,4.41,-0.42,3.77,1.40,2.02,8.80,-1.53,0.28,-0.98,496.00,1021.00,273.00,239.00,646.00,784.00,3338.00,4095.00,,,,,,,,,,,,0,0,0,,668,15340,4708,-81,128,-230
15.786,15.41,4.33,8.63,-5.37,15.25,-8.45,2.64,2.50,-3.88,5.16,690.00,912.00,374.00,183.00,581.00,898.00,2582.00,4095.00,,,,,,,,,,,,0,0,0,,588,15280,4892,-59,117,-177
15.828,15.47,4.25,-2.31,1.64,-6.89,3.38,2.76,5.56,5.18,-3.10,576.00,1165.00,295.00,320.00,491.00,823.00,3423.00,3570.00,,,,,,,,,,,,0,0,0,,560,15396,4908,-122,155,-122
15.891,15.52,4.63,-3.61,8.58,-3.59,8.45,11.80,-3.71,-2.29,2.81,405.00,1018.00,211.00,245.00,688.00,738.00,2848.00,4095.00,,,,,,,,,,,,0,0,0,,580,15300,4792,-51,128,-165
15.933,15.58,4.53,10.53,-6.80,18.02,-10.02,2.78,1.92,3.86,-0.63,720.00,879.00,387.00,171.00,598.00,907.00,3067.00,3520.00,,,,,,,,,,,,0,0,0,,676,15348,4832,-132,42,-176
16.016,15.63,4.48,-0.55,0.54,-3.90,0.87,3.58,3.46,-0.37,-0.02,592.00,1119.00,320.00,304.00,542.00,843.00,3206.00,4095.00,,,,,,,,,,,,0,0,0,,688,15336,5012,-175,89,-176
16.076,15.69,4.64,-1.96,4.85,-2.65,4.57,7.62,-0.50,-3.43,4.50,481.00,1054.00,256.00,262.00,624.00,799.00,2654.00,4094.00,,,,,,,,,,,,0,0,0,,592,15416,4776,-178,132,-141
16.118,15.74,4.67,2.69,-0.67,4.08,-1.93,5.31,0.82,4.08,-3.48,596.00,1017.00,322.00,239.00,606.00,845.00,3566.00,3767.00,,,,,,,,,,,,0,0,0,,660,15316,4976,-73,146,-128
16.159,15.80,4.58,3.43,-1.62,3.79,-2.12,2.84,2.49,-2.82,3.58,619.00,1013.00,327.00,243.00,579.00,891.00,2758.00,4095.00,,,,,,,,,,,,0,0,0,,512,15252,4732,-58,102,-175
16.219,15.85,4.55,-2.90,2.00,-6.30,2.50,3.86,2.83,4.48,-1.38,571.00,1181.00,306.00,320.00,558.00,848.00,3159.00,3505.00,,,,,,,,,,,,0,0,0,,612,15428,4852,-118,182,-131
16.279,15.91,4.76,-2.05,5.27,-1.83,3.93,8.80,-1.82,-0.16,-0.33,471.00,1046.00,261.00,258.00,656.00,790.00,3248.00,4095.00,,,,,,,,,,,,0,0,0,,616,15380,4892,-166,86,-159
16.382,15.96,4.64,9.31,-5.84,16.64,-9.26,2.35,2.47,-2.98,4.41,699.00,899.00,381.00,177.00,585.00,909.00,2645.00,4031.00,,,,,,,,,,,,0,0,0,,620,15516,4888,-111,139,-116
16.402,16.02,4.59,-3.84,2.58,-11.60,4.41,3.65,3.89,3.53,-2.42,563.00,1207.00,304.00,375.00,529.00,831.00,3401.00,3743.00,,,,,,,,,,,,0,0,0,,724,15412,4780,-141,118,-190
16.462,16.07,4.92,-4.89,9.29,-4.61,9.06,11.20,-2.88,-3.02,3.89,399.00,1051.00,208.00,251.00,665.00,739.00,2723.00,4095.00,,,,,,,,,,,,0,0,0,,580,15336,4832,-107,71,-120
16.523,16.13,4.91,7.87,-5.23,11.96,-7.83,4.69,1.12,5.54,-2.08,694.00,936.00,384.00,205.00,603.00,859.00,3218.00,3425.00,,,,,,,,,,,,0,0,0,,580,15420,4828,-60,159,-144
16.544,16.18,4.84,-0.19,0.96,-2.68,1.22,3.52,3.42,-1.14,1.10,575.00,1091.00,307.00,287.00,544.00,846.00,3059.00,4095.00,,,,,,,,,,,,0,0,0,,604,15408,4812,-56,149,-133
16.605,16.24,4.88,-1.66,4.90,-1.70,4.18,5.72,0.93,-0.85,3.21,477.00,1040.00,257.00,255.00,598.00,829.00,2715.00,3827.00,,,,,,,,,,,,0,0,0,,620,15464,4820,-100,60,-125
16.666,16.29,4.95,1.66,1.29,1.31,1.85,6.27,0.62,2.99,-2.87,546.00,1005.00,276.00,241.00,602.00,818.00,3519.00,3869.00,,,,,,,,,,,,0,0,0,,680,15352,4788,-84,95,-175
16.747,16.35,4.82,5.40,-2.40,7.19,-3.60,2.24,2.63,-3.53,4.64,623.00,957.00,333.00,221.00,581.00,909.00,2639.00,4095.00,,,,,,,,,,,,0,0,0,,616,15332,4820,-98,82,-150
16.768,16.40,4.76,-2.09,1.96,-6.00,2.64,3.76,3.64,5.83,-2.45,564.00,1145.00,302.00,315.00,535.00,833.00,3266.00,3419.00,,,,,,,,,,,,0,0,0,,664,15352,4696,-113,78,-88
16.829,16.46,5.02,-2.42,6.36,-2.23,5.69,9.84,-2.25,-0.81,0.62,447.00,1031.00,239.00,250.00,659.00,767.00,3121.00,4095.00,,,,,,,,,,,,0,0,0,,660,15308,4820,-90,123,-140
16.87,16.51,4.79,10.24,-6.42,19.23,-10.47,0.52,2.89,-1.82,2.99,709.00,880.00,388.00,165.00,591.00,966.00,2796.00,3999.00,,,,,,,,,,,,0,0,0,,664,15328,4768,-65,52,-137
16.932,16.57,4.63,-3.63,1.93,-10.35,4.29,1.45,5.59,0.75,-1.68,581.00,1218.00,299.00,358.00,502.00,866.00,3437.00,4095.00,,,,,,,,,,,,0,0,0,,680,15232,4888,-60,36,-148
16.993,16.62,4.78,-3.99,7.22,-5.18,7.32,7.76,-1.58,-3.21,4.17,439.00,1072.00,231.00,269.00,660.00,818.00,2691.00,4095.00,,,,,,,,,,,,0,0,0,,520,15484,4916,-135,99,-14
17.034,16.68,4.70,6.41,-3.97,10.79,-6.66,3.09,1.78,5.74,-3.24,666.00,959.00,368.00,208.00,599.00,899.00,3415.00,3505.00,,,,,,,,,,,,0,0,0,,684,15360,4860,-149,142,-85
17.115,16.73,4.62,0.39,0.42,-2.11,0.38,3.06,3.57,-1.67,1.90,586.00,1082.00,318.00,287.00,544.00,858.00,2959.00,4095.00,,,,,,,,,,,,0,0,0,,664,15340,5032,-38,124,-85
17.157,16.79,4.63,0.24,1.44,-2.44,1.38,4.90,1.86,1.15,1.84,556.00,1059.00,303.00,283.00,577.00,835.00,2819.00,3667.00,,,,,,,,,,,,0,0,0,,636,15268,4764,-92,76,-163
17.218,16.84,4.75,0.48,2.91,0.47,1.86,7.10,-0.29,1.04,-1.80,511.00,1008.00,280.00,249.00,623.00,811.00,3440.00,4061.00,,,,,,,,,,,,0,0,0,,568,15432,4820,-44,73,-132
17.28,16.90,4.62,8.42,-5.22,9.82,-6.97,2.02,2.83,-3.89,5.17,687.00,916.00,381.00,218.00,577.00,912.00,2581.00,4095.00,,,,,,,,,,,,0,0,0,,696,15268,4752,-45,88,-151
17.321,16.95,4.54,-2.09,2.09,-6.91,2.83,3.12,4.14,6.23,-3.17,560.00,1141.00,304.00,325.00,527.00,843.00,3371.00,3431.00,,,,,,,,,,,,0,0,0,,644,15332,4820,11,119,-136
17.383,17.01,4.82,-2.40,6.98,-4.05,7.51,10.00,-2.39,-1.53,1.68,432.00,1013.00,224.00,256.00,662.00,765.00,2986.00,4095.00,,,,,,,,,,,,0,0,0,,628,15320,4728,-89,161,-128
17.505,17.06,4.64,12.43,-8.21,20.53,-11.70,1.25,2.68,1.13,1.38,751.00,847.00,405.00,162.00,590.00,944.00,2892.00,3716.00,,,,,,,,,,,,0,0,0,,556,15344,4680,-45,133,-141
17.525,17.12,4.48,-1.95,1.52,-7.46,2.07,1.44,5.27,0.19,-0.85,576.00,1152.00,320.00,339.00,511.00,874.00,3319.00,4095.00,,,,,,,,,,,,0,0,0,,728,15436,4696,-92,83,-193
17.546,17.17,4.65,-2.83,5.30,-5.08,4.89,7.93,-1.10,-3.62,4.77,477.00,1078.00,263.00,286.00,641.00,802.00,2624.00,4095.00,,,,,,,,,,,,0,0,0,,616,15340,4692,-103,93,-142
17.587,17.23,4.58,6.45,-2.96,9.98,-5.46,3.18,1.91,5.33,-3.63,630.00,932.00,350.00,208.00,594.00,893.00,3514.00,3600.00,,,,,,,,,,,,0,0,0,,692,15400,4736,-132,97,-96
17.648,17.28,4.51,2.47,-0.57,0.85,-1.58,3.34,1.91,-2.01,2.40,595.00,1023.00,335.00,269.00,592.00,887.00,2898.00,4095.00,,,,,,,,,,,,0,0,0,,632,15388,4780,-76,179,-87
17.71,17.34,4.49,-0.57,1.38,-1.83,0.76,3.95,2.22,2.04,0.56,566.00,1095.00,310.00,281.00,576.00,859.00,2973.00,3664.00,,,,,,,,,,,,0,0,0,,696,15448,4656,-69,192,-58
17.772,17.39,4.62,-0.76,3.62,-0.78,1.96,7.13,-1.42,0.80,-1.75,503.00,1039.00,285.00,261.00,662.00,835.00,3446.00,4095.00,,,,,,,,,,,,0,0,0,,748,15504,4660,-57,134,-75
17.856,17.45,4.44,7.82,-5.34,10.80,-7.73,1.14,2.38,-3.55,4.66,699.00,941.00,390.00,214.00,601.00,956.00,2636.00,4095.00,,,,,,,,,,,,0,0,0,,828,15336,4752,-83,200,-91
17.876,17.50,4.28,-3.17,1.87,-8.37,2.43,1.22,5.35,4.30,-3.26,578.00,1198.00,319.00,348.00,511.00,880.00,3509.00,3713.00,,,,,,,,,,,,0,0,0,,660,15568,4640,-187,81,-279
17.916,17.56,4.61,-3.34,7.38,-4.64,6.66,10.87,-3.82,-1.90,2.23,430.00,1040.00,237.00,268.00,704.00,768.00,2918.00,4095.00,,,,,,,,,,,,0,0,0,,744,15288,4828,-50,63,-126
17.98,17.61,4.47,11.67,-7.89,18.78,-11.56,1.85,2.23,3.23,-0.19,748.00,865.00,415.00,173.00,598.00,933.00,3031.00,3568.00,,,,,,,,,,,,0,0,0,,664,15392,4852,-153,112,-129
18.042,17.67,4.38,-0.98,0.78,-6.33,1.40,2.55,3.51,-0.23,-0.23,589.00,1131.00,325.00,330.00,551.00,877.00,3235.00,4095.00,,,,,,,,,,,,0,0,0,,664,15328,4884,-118,154,-110
18.082,17.72,4.55,-1.47,5.35,-2.58,4.33,7.77,-0.72,-3.64,4.80,464.00,1020.00,259.00,263.00,630.00,799.00,2621.00,4095.00,,,,,,,,,,,,0,0,0,,740,15468,4792,-78,178,-88
18.143,17.78,4.57,5.34,-2.20,6.08,-3.44,4.93,0.95,5.03,-3.65,617.00,954.00,337.00,230.00,606.00,855.00,3536.00,3644.00,,,,,,,,,,,,0,0,0,,748,15380,4864,-133,137,-178
18.225,17.83,4.52,4.10,-1.33,1.83,-1.46,3.55,1.91,-2.76,3.50,602.00,979.00,327.00,258.00,590.00,880.00,2767.00,4095.00,,,,,,,,,,,,0,0,0,,656,15352,4904,-74,108,-174
18.246,17.89,4.49,-0.98,1.71,-6.35,2.58,3.98,2.56,4.57,-0.89,560.00,1103.00,305.00,320.00,565.00,850.00,3071.00,3447.00,,,,,,,,,,,,0,0,0,,712,15372,4600,-36,126,-152
18.308,17.94,4.70,-0.43,4.26,-1.29,2.99,8.66,-1.94,-0.00,-0.57,483.00,1008.00,272.00,259.00,662.00,797.00,3280.00,4095.00,,,,,,,,,,,,0,0,0,,836,15352,4628,-88,80,-165
18.368,18.00,4.54,9.89,-6.06,11.88,-7.90,1.61,2.59,-3.51,4.60,700.00,884.00,386.00,206.00,589.00,933.00,2643.00,4095.00,,,,,,,,,,,,0,0,0,,680,15348,4560,-121,84,-205
18.448,18.05,4.40,-3.12,2.04,-9.56,3.12,1.61,5.36,3.21,-2.76,572.00,1190.00,314.00,358.00,507.00,866.00,3483.00,3824.00,,,,,,,,,,,,0,0,0,,724,15424,4668,-124,89,-150
18.467,18.11,4.67,-4.84,9.00,-8.31,9.52,9.95,-3.08,-2.47,3.07,405.00,1057.00,217.00,287.00,688.00,781.00,2817.00,4095.00,,,,,,,,,,,,0,0,0,,680,15368,4740,-132,97,-175
18.529,18.16,4.55,8.00,-5.38,13.27,-9.03,2.11,1.44,4.12,-1.68,698.00,935.00,400.00,201.00,621.00,943.00,3231.00,3583.00,,,,,,,,,,,,0,0,0,,748,15456,4768,-120,115,-161
18.592,18.22,4.43,-0.28,0.17,-5.54,0.68,2.30,3.49,-0.52,0.20,601.00,1118.00,333.00,326.00,554.00,886.00,3177.00,4095.00,,,,,,,,,,,,0,0,0,,748,15340,4848,-94,74,-135
18.653,18.27,4.50,-2.56,4.56,-4.13,3.88,5.85,-0.28,-2.94,3.76,494.00,1088.00,273.00,283.00,637.00,852.00,2737.00,4095.00,,,,,,,,,,,,0,0,0,,680,15352,4844,-109,139,-140
18.694,18.33,4.51,0.81,0.62,-0.55,-0.20,4.53,0.54,2.06,-3.18,575.00,1058.00,319.00,274.00,624.00,878.00,3639.00,4048.00,,,,,,,,,,,,0,0,0,,780,15412,4676,-86,270,-123
18.756,18.38,4.35,4.26,-2.52,3.41,-3.51,1.44,2.52,-2.92,3.73,640.00,1004.00,355.00,256.00,593.00,941.00,2741.00,4095.00,,,,,,,,,,,,0,0,0,,628,15524,4556,-171,140,-224
18.838,18.44,4.29,-2.74,2.14,-7.80,2.24,3.19,2.99,5.27,-2.20,565.00,1169.00,319.00,342.00,560.00,867.00,3255.00,3472.00,,,,,,,,,,,,0,0,0,,668,15344,4716,-163,-14,-132
18.859,18.49,4.51,-1.60,5.43,-2.28,3.32,8.51,-1.86,-0.52,0.20,463.00,1023.00,272.00,267.00,661.00,800.00,3177.00,4095.00,,,,,,,,,,,,0,0,0,,768,15552,4744,-156,111,-216
18.96,18.55,4.32,10.08,-5.97,15.57,-9.34,0.87,2.81,-2.39,3.59,694.00,875.00,390.00,185.00,590.00,955.00,2736.00,4026.00,,,,,,,,,,,,0,0,0,,708,15408,4676,-165,137,-216
18.981,18.60,4.19,-3.76,2.58,-10.77,3.18,1.63,5.72,1.74,-1.96,562.00,1203.00,320.00,375.00,497.00,857.00,3426.00,3967.00,,,,,,,,,,,,0,0,0,,712,15312,4832,-92,31,-179
19.023,18.66,4.39,-3.78,8.14,-5.35,6.74,8.16,-1.85,-3.11,4.01,416.00,1037.00,239.00,275.00,665.00,811.00,2709.00,4095.00,,,,,,,,,,,,0,0,0,,632,15368,4768,-76,122,-282
19.084,18.71,4.31,7.34,-4.12,9.06,-6.86,2.84,1.87,5.52,-2.81,660.00,928.00,384.00,224.00,599.00,906.00,3349.00,3495.00,,,,,,,,,,,,0,0,0,,600,15360,4720,-52,95,-196
19.145,18.77,4.21,0.20,0.86,-3.64,0.50,2.24,3.88,-1.31,1.36,574.00,1077.00,325.00,304.00,543.00,879.00,3026.00,4095.00,,,,,,,,,,,,0,0,0,,588,15432,4796,-39,118,-169
19.206,18.82,4.21,-1.47,3.57,-3.14,2.56,4.27,1.57,-0.82,2.73,511.00,1070.00,288.00,282.00,593.00,863.00,2785.00,3872.00,,,,,,,,,,,,0,0,0,,592,15332,4680,-57,182,-221
19.248,18.88,4.28,1.17,1.87,-1.03,0.79,5.71,0.24,1.21,-2.35,534.00,1009.00,305.00,272.00,621.00,845.00,3534.00,4095.00,,,,,,,,,,,,0,0,0,,720,15344,4668,-82,52,-190
19.331,18.93,4.13,6.42,-3.75,6.06,-5.31,1.27,2.77,-3.52,4.63,658.00,953.00,373.00,242.00,587.00,941.00,2640.00,4095.00,,,,,,,,,,,,0,0,0,,596,15404,4900,-116,80,-172
19.352,18.99,4.04,-2.62,1.97,-8.70,2.60,2.33,3.92,5.46,-2.99,569.00,1169.00,318.00,351.00,541.00,875.00,3386.00,3521.00,,,,,,,,,,,,0,0,0,,716,15352,4800,-146,130,-177
19.413,19.04,4.29,-3.14,6.56,-4.23,5.10,9.03,-2.39,-0.90,0.75,448.00,1055.00,256.00,275.00,674.00,795.00,3104.00,4095.00,,,,,,,,,,,,0,0,0,,664,15376,4732,-96,158,-127
19.455,19.10,4.16,10.54,-7.53,16.64,-11.11,1.59,2.10,-1.72,2.45,749.00,896.00,421.00,186.00,605.00,946.00,2875.00,4043.00,,,,,,,,,,,,0,0,0,,684,15460,4508,-122,91,-156
19.517,19.15,3.98,-3.75,1.72,-8.91,2.27,0.63,5.54,0.83,-1.80,589.00,1231.00,325.00,357.00,511.00,896.00,3454.00,4095.00,,,,,,,,,,,,0,0,0,,584,15308,4752,-124,71,-202
19.58,19.21,4.11,-3.28,5.45,-5.44,4.39,6.52,-1.13,-3.14,4.06,477.00,1093.00,272.00,294.00,659.00,849.00,2703.00,4095.00,,,,,,,,,,,,0,0,0,,652,15432,4688,-214,105,-133
19.621,19.26,4.03,5.96,-3.54,8.28,-6.21,2.54,1.54,5.23,-3.55,656.00,965.00,376.00,227.00,613.00,925.00,3505.00,3606.00,,,,,,,,,,,,0,0,0,,668,15404,4772,-188,55,-115
19.682,19.32,3.96,0.93,-0.39,-3.00,-0.34,2.56,2.78,-1.73,1.98,606.00,1082.00,336.00,303.00,573.00,894.00,2949.00,4095.00,,,,,,,,,,,,0,0,0,,640,15444,4688,-132,153,-109
19.743,19.37,3.95,0.08,1.42,-3.27,1.06,3.90,2.20,1.10,1.45,558.00,1066.00,313.00,295.00,577.00,861.00,2882.00,3714.00,,,,,,,,,,,,0,0,0,,720,15400,4880,-104,92,-186
19.784,19.43,4.12,0.73,2.33,-0.69,0.98,7.21,-0.91,0.92,-1.93,525.00,1014.00,300.00,267.00,643.00,821.00,3473.00,4095.00,,,,,,,,,,,,0,0,0,,656,15336,4700,-85,31,-139
19.845,19.48,4.00,7.57,-4.86,7.39,-6.35,1.77,2.48,-3.71,4.90,684.00,938.00,385.00,236.00,591.00,930.00,2610.00,4095.00,,,,,,,,,,,,0,0,0,,592,15284,4832,-91,85,-167
19.907,19.54,3.91,-2.29,1.79,-8.96,2.98,2.27,4.39,5.31,-3.26,571.00,1159.00,313.00,351.00,528.00,866.00,3445.00,3567.00,,,,,,,,,,,,0,0,0,,644,15408,4592,-109,127,-88
19.948,19.59,4.20,-3.29,7.67,-4.92,6.52,9.70,-3.00,-1.52,1.67,423.00,1030.00,240.00,272.00,688.00,787.00,2987.00,4095.00,,,,,,,,,,,,0,0,0,,616,15472,4744,-77,77,-2
20.052,19.65,4.02,12.06,-8.24,17.91,-11.97,0.58,2.66,0.92,0.99,757.00,860.00,431.00,181.00,598.00,970.00,2965.00,3787.00,,,,,,,,,,,,0,0,0,,744,15332,4788,-84,161,-58
20.073,19.70,3.94,-2.34,1.43,-8.70,2.48,2.33,3.75,0.38,-1.13,583.00,1173.00,320.00,352.00,546.00,879.00,3359.00,4095.00,,,,,,,,,,,,0,0,0,,704,15432,4660,-150,95,-138
20.135,19.76,4.10,-2.53,4.89,-4.53,4.08,7.26,-0.99,-3.44,4.50,485.00,1077.00,272.00,286.00,645.00,821.00,2654.00,4095.00,,,,,,,,,,,,0,0,0,,732,15364,4684,-102,-23,-88
20.197,19.81,4.05,5.06,-2.29,5.80,-4.31,3.11,1.35,4.50,-3.71,623.00,967.00,355.00,238.00,613.00,909.00,3583.00,3728.00,,,,,,,,,,,,0,0,0,,740,15420,4912,-132,91,-80
20.259,19.87,3.99,2.09,-0.87,-0.55,-1.27,2.75,1.96,-2.01,2.40,609.00,1047.00,338.00,282.00,597.00,907.00,2898.00,4095.00,,,,,,,,,,,,0,0,0,,788,15296,4780,-190,146,-100
20.3,19.92,3.92,-1.28,1.49,-1.17,-0.22,2.71,2.63,1.83,0.20,570.00,1123.00,323.00,281.00,576.00,892.00,3043.00,3731.00,,,,,,,,,,,,0,0,0,,744,15424,4748,-99,59,-74
20.424,19.98,4.07,-1.47,3.57,-4.12,3.21,6.89,-1.65,0.91,-1.91,511.00,1070.00,283.00,288.00,673.00,848.00,3470.00,4095.00,,,,,,,,,,,,0,0,0,,800,15400,4804,-106,77,-124
20.443,20.03,3.90,7.40,-5.59,8.57,-7.12,0.58,2.50,-3.33,4.35,714.00,963.00,393.00,230.00,603.00,974.00,2671.00,4095.00,,,,,,,,,,,,0,0,0,,756,15416,4916,-108,202,-144
20.464,20.09,3.76,-3.38,1.59,-9.20,2.08,1.24,4.59,3.53,-3.14,589.00,1217.00,330.00,363.00,532.00,897.00,3536.00,3815.00,,,,,,,,,,,,0,0,0,,764,15388,4756,-147,76,-246
20.505,20.14,4.06,-4.77,8.61,-4.92,6.52,9.76,-3.42,-1.93,2.28,413.00,1065.00,240.00,272.00,703.00,794.00,2912.00,4095.00,,,,,,,,,,,,0,0,0,,688,15348,4892,-55,52,-119
20.567,20.20,3.92,11.17,-7.79,17.17,-11.28,1.20,2.33,2.95,-0.44,751.00,880.00,421.00,183.00,602.00,955.00,3088.00,3632.00,,,,,,,,,,,,0,0,0,,796,15388,4668,-92,113,-185
20.61,20.25,3.85,-0.91,0.48,-6.24,0.70,2.58,3.63,-0.16,-0.33,598.00,1137.00,337.00,335.00,547.00,873.00,3248.00,4095.00,,,,,,,,,,,,0,0,0,,824,15404,4708,-91,162,-152
20.673,20.31,4.01,-2.30,5.39,-3.79,4.45,6.90,-0.23,-3.49,4.58,470.00,1053.00,263.00,275.00,623.00,816.00,2645.00,4095.00,,,,,,,,,,,,0,0,0,,904,15412,4628,-70,150,-154
20.735,20.36,4.03,4.10,-1.76,4.66,-3.40,4.38,1.10,4.24,-3.55,616.00,990.00,345.00,243.00,607.00,870.00,3568.00,3750.00,,,,,,,,,,,,0,0,0,,736,15444,4672,-107,115,-284
20.796,20.42,3.96,3.65,-1.42,2.62,-2.33,2.79,2.48,-2.72,3.43,610.00,999.00,338.00,256.00,580.00,893.00,2775.00,4095.00,,,,,,,,,,,,0,0,0,,736,15408,4640,-78,-36,-230
20.838,20.47,3.94,-1.94,2.04,-5.21,1.95,3.55,2.80,4.17,-1.06,560.00,1136.00,309.00,311.00,562.00,859.00,3122.00,3518.00,,,,,,,,,,,,0,0,0,,564,15352,4788,-39,-27,-197
20.899,20.53,4.14,-1.39,4.62,-0.03,2.91,7.96,-1.65,0.01,-0.59,482.00,1037.00,267.00,247.00,660.00,813.00,3283.00,4095.00,,,,,,,,,,,,0,0,0,,668,15332,4800,-42,125,-202
20.941,20.58,4.01,9.47,-6.49,12.70,-8.56,1.38,2.30,-3.37,4.39,722.00,909.00,394.00,203.00,601.00,949.00,2666.00,4095.00,,,,,,,,,,,,0,0,0,,628,15424,4688,-78,110,-219
21.002,20.64,3.86,-3.72,2.11,-10.98,3.90,1.01,5.56,2.48,-2.61,576.00,1216.00,309.00,371.00,507.00,882.00,3503.00,3922.00,,,,,,,,,,,,0,0,0,,516,15356,4800,-100,71,-169
21.064,20.69,4.14,-4.29,8.01,-5.82,7.86,9.48,-3.00,-2.39,2.95,423.00,1062.00,227.00,272.00,691.00,794.00,2832.00,4095.00,,,,,,,,,,,,0,0,0,,700,15368,4640,-131,74,-176
21.145,20.75,4.00,7.35,-5.39,10.36,-8.28,1.37,2.00,3.96,-1.79,707.00,960.00,405.00,221.00,611.00,957.00,3260.00,3617.00,,,,,,,,,,,,0,0,0,,740,15320,4688,-149,84,-155
21.166,20.80,3.91,-1.54,0.54,-4.99,0.33,2.27,3.50,-0.42,0.05,603.00,1164.00,336.00,322.00,554.00,887.00,3197.00,4095.00,,,,,,,,,,,,0,0,0,,644,15480,4760,-93,71,-115
21.229,20.86,3.98,-3.40,4.84,-4.82,4.25,5.24,0.10,-2.83,3.60,494.00,1116.00,271.00,288.00,631.00,864.00,2756.00,4095.00,,,,,,,,,,,,0,0,0,,716,15348,4760,-99,117,-57
21.269,20.91,4.00,-0.16,1.08,-0.36,-0.21,4.32,0.64,1.80,-3.22,571.00,1086.00,318.00,272.00,623.00,883.00,3665.00,4095.00,,,,,,,,,,,,0,0,0,,772,15368,4784,-145,144,-102
21.33,20.97,3.88,2.23,-1.36,1.51,-2.12,1.62,2.09,-2.84,3.62,624.00,1055.00,341.00,266.00,605.00,945.00,2753.00,4095.00,,,,,,,,,,,,0,0,0,,636,15340,4588,-178,-21,-292
21.393,21.02,3.81,-3.34,2.08,-7.81,2.48,2.62,3.32,4.90,-2.02,573.00,1199.00,315.00,340.00,556.00,879.00,3245.00,3507.00,,,,,,,,,,,,0,0,0,,744,15280,4824,-128,-105,-203
21.434,21.08,4.03,-2.20,5.60,-2.95,3.75,8.07,-1.77,-0.50,0.16,464.00,1043.00,269.00,271.00,663.00,812.00,3182.00,4095.00,,,,,,,,,,,,0,0,0,,536,15268,5072,-139,147,-152
21.536,21.13,3.87,9.55,-6.03,15.05,-9.16,0.82,2.73,-2.48,3.68,703.00,895.00,390.00,188.00,593.00,959.00,2726.00,4030.00,,,,,,,,,,,,0,0,0,,720,15348,4908,-93,287,-58
21.556,21.19,3.74,-4.21,2.47,-11.37,3.67,1.32,5.75,1.57,-1.92,570.00,1228.00,315.00,379.00,499.00,867.00,3431.00,3991.00,,,,,,,,,,,,0,0,0,,816,15436,4584,-31,165,-101
21.638,21.24,3.96,-4.50,8.57,-5.85,7.62,8.20,-1.87,-3.05,3.93,412.00,1055.00,230.00,274.00,665.00,810.00,2718.00,4095.00,,,,,,,,,,,,0,0,0,,648,15376,4676,-40,157,-178
21.658,21.30,3.90,6.72,-4.27,9.13,-6.30,2.79,1.70,5.24,-2.64,673.00,955.00,372.00,220.00,605.00,912.00,3335.00,3518.00,,,,,,,,,,,,0,0,0,,736,15296,4652,-119,16,-217
21.722,21.35,3.81,-0.70,1.13,-4.05,1.09,2.13,3.95,-1.20,1.21,575.00,1108.00,317.00,304.00,542.00,881.00,3046.00,4095.00,,,,,,,,,,,,0,0,0,,736,15392,4880,-139,-111,-224
21.762,21.41,3.84,-1.93,3.72,-3.13,3.21,4.30,1.65,-1.12,2.95,511.00,1085.00,278.00,277.00,590.00,860.00,2767.00,3895.00,,,,,,,,,,,,0,0,0,,672,15448,4748,-142,-59,-284
21.825,21.46,3.92,0.25,1.70,0.27,0.41,5.50,0.28,1.18,-2.32,548.00,1051.00,304.00,261.00,622.00,851.00,3529.00,4095.00,,,,,,,,,,,,0,0,0,,636,15300,4872,-66,-49,-323
21.93,21.52,3.79,5.12,-2.95,5.66,-3.95,1.28,2.64,-3.49,4.58,645.00,982.00,349.00,237.00,591.00,944.00,2645.00,4095.00,,,,,,,,,,,,0,0,0,,604,15360,4840,-87,-25,-213
21.95,21.57,3.70,-3.09,1.97,-8.71,3.25,1.97,3.94,5.15,-2.71,574.00,1191.00,307.00,345.00,544.00,887.00,3354.00,3537.00,,,,,,,,,,,,0,0,0,,744,15396,4732,-95,41,-174
21.992,21.63,3.92,-3.93,6.95,-4.32,5.64,8.06,-1.93,-0.83,0.65,445.00,1077.00,249.00,272.00,669.00,816.00,3117.00,4095.00,,,,,,,,,,,,0,0,0,,684,15396,4692,-91,101,-254
22.055,21.68,3.70,9.87,-7.03,15.89,-10.00,-0.45,2.85,-2.24,2.80,738.00,908.00,402.00,186.00,603.00,1005.00,2847.00,4087.00,,,,,,,,,,,,0,0,0,,692,15376,4728,-123,-27,-183
22.096,21.74,3.55,-4.13,1.90,-11.04,3.68,0.73,4.94,0.86,-1.84,587.00,1243.00,313.00,374.00,527.00,907.00,3459.00,4095.00,,,,,,,,,,,,0,0,0,,736,15288,4936,-109,45,-202
22.159,21.79,3.69,-4.52,6.30,-7.31,6.65,6.28,-1.22,-3.11,4.01,466.00,1122.00,249.00,298.00,665.00,859.00,2709.00,4095.00,,,,,,,,,,,,0,0,0,,692,15392,4704,-92,184,-231
22.261,21.85,3.59,5.27,-3.92,7.60,-5.53,1.66,1.84,4.56,-3.24,678.00,1002.00,367.00,229.00,613.00,950.00,3489.00,3673.00,,,,,,,,,,,,0,0,0,,664,15396,4696,-132,75,-270
22.302,21.90,3.49,-0.60,-0.12,-3.20,-0.16,1.60,3.49,-1.61,1.80,614.00,1141.00,334.00,304.00,561.00,911.00,2971.00,4095.00,,,,,,,,,,,,0,0,0,,580,15284,4788,-41,106,-98
22.323,21.96,3.49,-0.77,1.55,-2.94,0.84,3.51,2.17,0.53,1.83,563.00,1099.00,315.00,293.00,582.00,875.00,2853.00,3760.00,,,,,,,,,,,,0,0,0,,596,15440,4640,-160,152,-196
22.385,22.01,3.61,-0.26,2.59,0.02,0.50,5.99,-0.01,0.83,-1.80,527.00,1047.00,304.00,263.00,626.00,841.00,3454.00,4095.00,,,,,,,,,,,,0,0,0,,684,15296,4708,-156,131,-150
22.425,22.07,3.50,6.86,-4.91,7.63,-6.38,1.27,2.77,-3.81,5.05,695.00,966.00,384.00,234.00,587.00,941.00,2594.00,4095.00,,,,,,,,,,,,0,0,0,,656,15412,4896,-146,86,-178
22.487,22.12,3.42,-3.41,2.43,-7.98,2.83,1.99,4.38,5.46,-3.11,563.00,1191.00,310.00,339.00,531.00,876.00,3408.00,3532.00,,,,,,,,,,,,0,0,0,,716,15396,4848,-87,125,-281
22.548,22.18,3.73,-3.95,7.50,-4.97,7.01,9.54,-2.68,-1.46,1.58,432.00,1062.00,234.00,269.00,678.00,785.00,2999.00,4095.00,,,,,,,,,,,,0,0,0,,608,15300,4804,-82,109,-193
22.63,22.23,3.56,11.36,-8.15,17.97,-11.64,0.41,2.71,0.32,1.51,763.00,882.00,423.00,179.00,598.00,975.00,2915.00,3825.00,,,,,,,,,,,,0,0,0,,664,15320,4768,-47,142,-113
22.65,22.29,3.47,-2.70,1.46,-8.51,2.42,1.69,4.48,0.37,-1.12,586.00,1189.00,320.00,350.00,531.00,884.00,3357.00,4095.00,,,,,,,,,,,,0,0,0,,600,15384,4728,-35,197,-182
22.753,22.34,3.62,-2.37,4.27,-4.37,4.23,6.56,-0.66,-3.51,4.60,500.00,1088.00,269.00,283.00,642.00,837.00,2643.00,4095.00,,,,,,,,,,,,0,0,0,,608,15328,4720,-98,156,-149
22.774,22.40,3.60,5.67,-3.08,10.26,-5.86,3.13,1.19,4.10,-3.36,643.00,964.00,356.00,208.00,618.00,912.00,3542.00,3753.00,,,,,,,,,,,,0,0,0,,644,15380,4824,-126,116,-97
22.815,22.45,3.56,1.26,-0.56,-0.49,-0.96,2.87,1.83,-1.86,2.17,608.00,1073.00,332.00,279.00,600.00,906.00,2926.00,4095.00,,,,,,,,,,,,0,0,0,,604,15352,4728,-199,172,-133
22.876,22.51,3.52,-1.08,1.39,-3.00,0.91,2.74,2.43,1.11,0.77,571.00,1117.00,314.00,293.00,582.00,896.00,2990.00,3781.00,,,,,,,,,,,,0,0,0,,644,15332,4672,-261,101,-130
22.917,22.56,3.65,-1.40,3.05,-2.20,2.37,6.11,-1.36,0.95,-1.97,525.00,1082.00,286.00,273.00,672.00,868.00,3479.00,4095.00,,,,,,,,,,,,0,0,0,,632,15400,4960,-217,87,-150
23.02,22.62,3.49,6.66,-5.11,10.05,-7.48,0.46,2.48,-3.47,4.55,705.00,979.00,390.00,219.00,605.00,979.00,2649.00,4095.00,,,,,,,,,,,,0,0,0,,644,15420,4792,-116,255,-198
23.04,22.67,3.38,-3.67,1.66,-8.60,2.45,1.21,4.23,3.42,-3.05,590.00,1229.00,320.00,351.00,543.00,907.00,3526.00,3823.00,,,,,,,,,,,,0,0,0,,640,15548,4768,-171,155,-119
23.082,22.73,3.68,-4.85,7.77,-4.92,6.52,9.52,-3.50,-1.70,1.93,433.00,1093.00,240.00,272.00,709.00,803.00,2955.00,4095.00,,,,,,,,,,,,0,0,0,,472,15364,5044,-64,185,-75
23.143,22.78,3.54,10.05,-7.46,17.97,-11.64,0.75,2.60,1.70,0.42,753.00,912.00,423.00,179.00,598.00,965.00,3015.00,3728.00,,,,,,,,,,,,0,0,0,,864,15332,4640,-144,156,-172
23.225,22.84,3.45,-1.86,0.46,-7.30,1.50,1.74,3.78,0.04,-0.63,609.00,1181.00,329.00,342.00,551.00,899.00,3289.00,4095.00,,,,,,,,,,,,0,0,0,,628,15300,4824,-214,109,-222
23.246,22.89,3.62,-1.12,2.64,-4.12,3.08,6.90,-0.72,-3.46,4.53,534.00,1082.00,285.00,289.00,640.00,827.00,2651.00,4095.00,,,,,,,,,,,,0,0,0,,612,15376,4924,-198,91,-162
23.306,22.95,3.62,4.65,-2.30,7.86,-4.58,3.63,1.33,3.97,-3.53,628.00,983.00,347.00,221.00,608.00,891.00,3583.00,3789.00,,,,,,,,,,,,0,0,0,,452,15304,4852,-140,210,-225
23.368,23.00,3.56,2.54,-1.32,2.14,-2.06,2.40,2.23,-2.07,2.49,619.00,1041.00,336.00,259.00,592.00,913.00,2887.00,4095.00,,,,,,,,,,,,0,0,0,,572,15296,4928,-153,132,-71
23.429,23.06,3.54,-1.13,1.47,-3.83,1.13,3.12,2.62,2.59,-0.03,569.00,1117.00,315.00,301.00,572.00,878.00,3039.00,3643.00,,,,,,,,,,,,0,0,0,,720,15324,4780,-135,102,-92
23.49,23.11,3.71,-1.33,3.92,-0.97,1.96,7.03,-1.44,0.43,-1.21,500.00,1054.00,286.00,263.00,664.00,839.00,3370.00,4095.00,,,,,,,,,,,,0,0,0,,648,15328,4812,-167,46,-172
23.573,23.17,3.56,7.65,-5.34,10.98,-8.17,0.61,2.65,-3.47,4.55,701.00,947.00,398.00,215.00,598.00,969.00,2649.00,4095.00,,,,,,,,,,,,0,0,0,,536,15312,4772,-279,21,-165
23.593,23.22,3.43,-3.41,1.82,-9.03,2.77,1.08,4.79,2.71,-2.75,582.00,1211.00,317.00,354.00,528.00,898.00,3515.00,3901.00,,,,,,,,,,,,0,0,0,,572,15272,4892,-223,99,-138
23.634,23.28,3.72,-5.31,8.44,-5.58,6.82,9.12,-3.36,-1.98,2.36,421.00,1093.00,239.00,277.00,709.00,813.00,2903.00,4095.00,,,,,,,,,,,,0,0,0,,664,15332,4980,-129,84,-90
23.736,23.33,3.56,8.65,-6.44,14.75,-10.47,0.62,1.80,2.14,-0.74,731.00,938.00,421.00,197.00,626.00,991.00,3184.00,3779.00,,,,,,,,,,,,0,0,0,,636,15420,4760,-40,110,-57
23.756,23.39,3.45,-1.92,0.21,-9.65,5.07,1.37,3.51,-0.04,-0.51,618.00,1192.00,283.00,341.00,563.00,919.00,3273.00,4095.00,,,,,,,,,,,,0,0,0,,704,15384,4616,-85,208,-56
23.797,23.44,3.56,-3.07,4.66,-4.87,4.20,5.58,-0.54,-3.01,3.87,496.00,1107.00,272.00,289.00,649.00,867.00,2725.00,4095.00,,,,,,,,,,,,0,0,0,,692,15340,4716,-162,194,-75
23.858,23.50,3.57,1.18,-0.41,1.06,-2.30,3.87,0.77,3.13,-3.38,604.00,1072.00,347.00,272.00,624.00,896.00,3609.00,3902.00,,,,,,,,,,,,0,0,0,,704,15308,4956,-175,127,-69
23.919,23.55,3.51,2.57,-1.33,2.32,-2.61,2.36,2.24,-2.81,3.57,619.00,1040.00,345.00,261.00,592.00,914.00,2759.00,4095.00,,,,,,,,,,,,0,0,0,,796,15360,4972,-110,75,-113
23.98,23.61,3.48,-2.85,1.98,-7.48,2.42,2.87,2.61,4.15,-1.23,571.00,1179.00,314.00,336.00,575.00,887.00,3152.00,3537.00,,,,,,,,,,,,0,0,0,,592,15312,4976,-93,131,-111
24.042,23.66,3.69,-1.68,4.23,-2.77,3.49,7.69,-1.89,-0.08,-0.45,495.00,1060.00,272.00,271.00,672.00,827.00,3264.00,4095.00,,,,,,,,,,,,0,0,0,,792,15268,4744,-130,132,-102
24.103,23.72,3.54,8.14,-5.50,11.98,-8.41,0.61,2.62,-3.25,4.22,701.00,933.00,396.00,208.00,599.00,970.00,2685.00,4095.00,,,,,,,,,,,,0,0,0,,804,15480,4900,-119,90,-161
24.165,23.77,3.44,-5.29,2.93,-11.97,3.58,1.65,4.70,1.90,-2.29,567.00,1266.00,320.00,389.00,525.00,880.00,3478.00,3978.00,,,,,,,,,,,,0,0,0,,660,15364,5000,-94,58,-211
24.206,23.83,3.71,-5.84,9.42,-7.44,8.24,8.72,-2.91,-2.55,3.19,403.00,1087.00,229.00,287.00,697.00,816.00,2803.00,4095.00,,,,,,,,,,,,0,0,0,,736,15440,4764,-86,76,-162
24.247,23.88,3.61,7.01,-5.43,9.10,-7.58,1.73,1.57,3.84,-1.76,713.00,974.00,399.00,228.00,621.00,954.00,3263.00,3632.00,,,,,,,,,,,,0,0,0,,700,15348,4892,-36,131,-152
24.307,23.94,3.52,-1.58,0.98,-4.98,0.55,1.75,3.84,-0.65,0.39,589.00,1152.00,332.00,320.00,549.00,897.00,3152.00,4095.00,,,,,,,,,,,,0,0,0,,632,15252,4908,-94,84,-190
24.389,23.99,3.57,-3.09,4.89,-5.44,4.39,4.62,0.45,-2.88,3.68,490.00,1101.00,272.00,294.00,626.00,877.00,2747.00,4095.00,,,,,,,,,,,,0,0,0,,688,15364,4980,-78,126,-139
24.409,24.05,3.58,-0.11,1.29,-1.67,0.12,3.75,0.89,1.63,-2.97,564.00,1078.00,320.00,284.00,621.00,897.00,3627.00,4095.00,,,,,,,,,,,,0,0,0,,664,15364,4768,-113,101,-137
24.47,24.10,3.44,2.58,-1.45,2.63,-2.93,0.73,2.36,-2.92,3.73,623.00,1043.00,349.00,260.00,606.00,972.00,2741.00,4095.00,,,,,,,,,,,,0,0,0,,724,15272,4952,-102,95,-139
24.551,24.16,3.38,-3.58,2.17,-8.44,2.74,2.22,2.29,3.61,-1.98,573.00,1208.00,314.00,346.00,592.00,918.00,3315.00,3686.00,,,,,,,,,,,,0,0,0,,668,15352,4932,-48,156,-179
24.572,24.21,3.56,-3.46,5.51,-4.38,4.51,7.10,-2.12,-0.15,-0.35,477.00,1099.00,265.00,281.00,688.00,852.00,3251.00,4095.00,,,,,,,,,,,,0,0,0,,744,15304,4980,-114,55,-260
24.634,24.27,3.39,8.21,-5.91,12.02,-8.47,0.15,2.37,-2.80,3.56,716.00,941.00,397.00,208.00,612.00,994.00,2761.00,4095.00,,,,,,,,,,,,0,0,0,,552,15328,4844,-96,90,-98
24.695,24.32,3.26,-4.72,2.45,-12.04,4.07,0.66,5.53,0.90,-1.80,576.00,1254.00,312.00,385.00,511.00,895.00,3450.00,4085.00,,,,,,,,,,,,0,0,0,,664,15332,4868,-76,158,-167
24.737,24.38,3.49,-4.67,8.05,-7.00,8.25,7.88,-2.25,-2.95,3.78,425.00,1077.00,227.00,282.00,683.00,829.00,2735.00,4095.00,,,,,,,,,,,,0,0,0,,748,15264,5000,-78,199,-107
24.861,24.43,3.41,6.18,-4.06,8.29,-6.55,2.01,1.72,4.77,-2.47,672.00,970.00,383.00,229.00,613.00,940.00,3333.00,3568.00,,,,,,,,,,,,0,0,0,,720,15308,4744,-111,92,-100
24.881,24.49,3.31,-0.62,0.91,-4.43,0.93,1.28,4.00,-1.11,1.07,581.00,1111.00,322.00,310.00,549.00,910.00,3063.00,4095.00,,,,,,,,,,,,0,0,0,,648,15356,4876,-93,176,-174
24.922,24.54,3.31,-2.34,4.23,-4.34,2.90,3.48,1.59,-1.98,3.16,501.00,1088.00,289.00,293.00,601.00,890.00,2779.00,4007.00,,,,,,,,,,,,0,0,0,,640,15268,4724,-82,90,-166
24.983,24.60,3.38,0.32,1.88,-0.99,0.60,4.57,0.53,1.32,-2.52,542.00,1043.00,308.00,273.00,624.00,877.00,3559.00,4095.00,,,,,,,,,,,,0,0,0,,576,15408,4896,-92,111,-107
25.024,24.65,3.24,3.99,-2.22,4.55,-4.30,0.71,2.61,-3.33,4.35,633.00,1007.00,363.00,250.00,598.00,966.00,2671.00,4095.00,,,,,,,,,,,,0,0,0,,764,15328,4716,-93,165,-164
25.086,24.71,3.18,-3.05,2.34,-7.67,2.37,2.00,3.39,4.97,-2.59,562.00,1177.00,316.00,339.00,560.00,899.00,3344.00,3552.00,,,,,,,,,,,,0,0,0,,688,15360,4840,-101,69,-160
25.149,24.76,3.40,-3.32,6.54,-5.23,5.51,7.61,-2.00,-0.66,0.40,450.00,1063.00,255.00,283.00,677.00,832.00,3150.00,4095.00,,,,,,,,,,,,0,0,0,,676,15368,4840,-113,72,-128
25.209,24.82,3.18,8.30,-5.97,12.78,-9.05,-1.00,3.01,-2.31,2.84,717.00,939.00,404.00,205.00,604.00,1023.00,2845.00,4095.00,,,,,,,,,,,,0,0,0,,572,15396,4992,-105,90,-157
25.229,24.87,3.04,-4.95,2.50,-15.11,7.37,0.23,5.68,0.93,-1.95,577.00,1264.00,276.00,398.00,511.00,907.00,3475.00,4095.00,,,,,,,,,,,,0,0,0,,596,15396,4892,-29,117,-135
25.289,24.93,3.17,-5.50,7.94,-8.17,7.54,5.75,-1.35,-2.92,3.73,434.00,1116.00,241.00,301.00,676.00,880.00,2741.00,4095.00,,,,,,,,,,,,0,0,0,,596,15328,4852,-82,110,-159
25.351,24.98,3.07,5.09,-3.58,7.00,-5.92,1.15,1.86,4.08,-3.04,668.00,1000.00,379.00,237.00,618.00,969.00,3481.00,3723.00,,,,,,,,,,,,0,0,0,,620,15396,4760,-129,157,-170
25.411,25.04,2.98,-0.85,0.43,-5.74,0.86,1.30,3.53,-1.30,1.35,599.00,1136.00,331.00,327.00,563.00,921.00,3028.00,4095.00,,,,,,,,,,,,0,0,0,,592,15348,4908,-114,54,-194
25.472,25.09,2.99,-0.59,1.49,-4.57,1.86,3.05,2.01,-0.56,2.33,563.00,1093.00,307.00,304.00,592.00,895.00,2832.00,3873.00,,,,,,,,,,,,0,0,0,,736,15400,4828,-88,84,-103
25.513,25.15,3.10,-0.45,2.52,-2.27,1.27,5.31,0.07,1.12,-2.23,531.00,1057.00,304.00,282.00,631.00,862.00,3516.00,4095.00,,,,,,,,,,,,0,0,0,,720,15376,4832,-137,129,-156
25.576,25.20,2.99,6.58,-4.76,6.71,-6.11,0.79,2.77,-3.59,4.72,693.00,973.00,385.00,241.00,592.00,959.00,2630.00,4095.00,,,,,,,,,,,,0,0,0,,680,15336,4812,-136,97,-120
25.638,25.26,2.91,-3.02,2.37,-8.86,2.83,1.53,4.29,5.32,-2.92,561.00,1175.00,315.00,351.00,538.00,894.00,3382.00,3533.00,,,,,,,,,,,,0,0,0,,748,15404,4968,-49,106,-211
25.679,25.31,3.19,-3.00,6.64,-4.96,5.64,8.39,-2.37,-1.08,1.02,445.00,1047.00,252.00,279.00,681.00,815.00,3070.00,4095.00,,,,,,,,,,,,0,0,0,,648,15360,4816,-100,58,-200
25.741,25.37,3.00,11.26,-7.92,14.97,-10.41,-0.46,2.98,-1.27,2.33,755.00,880.00,418.00,195.00,599.00,1002.00,2870.00,3984.00,,,,,,,,,,,,0,0,0,,636,15344,4776,-60,142,-101
25.821,25.42,2.88,-3.47,1.90,-10.23,2.49,0.52,5.58,0.62,-1.48,580.00,1211.00,329.00,374.00,511.00,899.00,3408.00,4095.00,,,,,,,,,,,,0,0,0,,588,15496,4640,-93,152,-136
25.842,25.48,3.05,-2.95,5.30,-4.99,4.37,6.21,-0.95,-3.29,4.29,478.00,1083.00,270.00,289.00,656.00,855.00,2678.00,4095.00,,,,,,,,,,,,0,0,0,,616,15412,4708,-57,118,-153
25.945,25.53,2.98,6.08,-3.44,7.93,-5.69,1.61,2.06,4.75,-3.31,651.00,958.00,368.00,227.00,606.00,946.00,3491.00,3653.00,,,,,,,,,,,,0,0,0,,608,15328,4804,-125,73,-143
25.966,25.59,2.82,0.00,-0.13,-4.41,0.31,-0.20,3.61,-1.47,1.59,608.00,1115.00,333.00,315.00,576.00,975.00,2997.00,4095.00,,,,,,,,,,,,0,0,0,,708,15396,4872,-180,137,-188
26.007,25.64,2.80,-0.93,1.43,-5.37,1.36,2.56,1.99,-0.55,1.77,568.00,1109.00,320.00,318.00,598.00,913.00,2919.00,3930.00,,,,,,,,,,,,0,0,0,,732,15264,4800,-164,82,-132
26.069,25.70,2.90,-0.73,2.51,-2.21,1.31,4.68,-0.35,1.34,-2.54,534.00,1069.00,303.00,281.00,653.00,894.00,3563.00,4095.00,,,,,,,,,,,,0,0,0,,684,15416,4852,-88,101,-146
26.131,25.75,2.75,5.89,-4.69,6.85,-8.29,0.00,2.49,-3.33,4.34,699.00,998.00,432.00,254.00,610.00,997.00,2672.00,4095.00,,,,,,,,,,,,0,0,0,,640,15364,4768,-71,207,-170
26.172,25.81,2.66,-3.93,2.15,-9.60,2.67,0.97,3.77,4.41,-3.21,577.00,1225.00,322.00,363.00,559.00,927.00,3492.00,3691.00,,,,,,,,,,,,0,0,0,,648,15404,4784,-132,157,-208
26.234,25.86,2.94,-4.14,7.06,-5.02,5.73,8.28,-2.57,-1.23,1.24,444.00,1083.00,251.00,279.00,690.00,823.00,3041.00,4095.00,,,,,,,,,,,,0,0,0,,692,15248,4728,-48,120,-131
26.297,25.92,2.78,11.44,-8.22,16.38,-11.32,-0.41,2.68,-0.29,1.74,765.00,881.00,428.00,189.00,608.00,1008.00,2910.00,3893.00,,,,,,,,,,,,0,0,0,,676,15376,5056,-161,142,-213
26.338,25.97,2.66,-3.82,2.12,-10.69,2.47,0.45,5.11,0.43,-1.21,577.00,1221.00,332.00,381.00,525.00,913.00,3370.00,4095.00,,,,,,,,,,,,0,0,0,,636,15356,4676,-95,212,-142
26.38,26.03,2.85,-2.24,4.64,-5.44,4.39,6.36,-1.00,-3.43,4.48,489.00,1072.00,272.00,294.00,656.00,851.00,2656.00,4095.00,,,,,,,,,,,,0,0,0,,716,15328,4752,-118,74,-123
26.442,26.08,2.79,6.19,-3.34,9.11,-6.09,1.68,2.04,5.00,-3.48,646.00,951.00,368.00,219.00,606.00,944.00,3506.00,3632.00,,,,,,,,,,,,0,0,0,,632,15468,4768,-88,130,-210
26.504,26.14,2.76,1.13,-0.33,-2.34,-0.56,2.32,2.10,-1.76,2.03,602.00,1072.00,336.00,297.00,597.00,919.00,2943.00,4095.00,,,,,,,,,,,,0,0,0,,484,15308,4860,-85,139,-132
26.546,26.19,2.77,-0.16,1.01,-4.15,1.36,2.89,1.91,1.01,1.21,573.00,1088.00,313.00,303.00,597.00,903.00,2925.00,3751.00,,,,,,,,,,,,0,0,0,,724,15464,4724,-89,58,-139
26.607,26.25,2.94,-0.29,2.64,-0.78,0.83,6.07,-1.34,1.00,-2.05,526.00,1047.00,303.00,269.00,672.00,869.00,3490.00,4095.00,,,,,,,,,,,,0,0,0,,600,15392,4876,-90,145,-222
26.668,26.30,2.80,6.80,-4.71,7.49,-6.33,0.28,2.61,-3.57,4.69,688.00,963.00,384.00,235.00,603.00,983.00,2633.00,4095.00,,,,,,,,,,,,0,0,0,,788,15188,4792,-173,163,-193
26.729,26.36,2.70,-3.49,2.43,-8.85,2.71,0.74,4.15,4.60,-3.17,564.00,1195.00,317.00,352.00,550.00,926.00,3474.00,3661.00,,,,,,,,,,,,0,0,0,,788,15368,4788,-166,102,-177
26.771,26.41,2.99,-4.67,8.22,-7.11,7.11,8.45,-3.00,-1.35,1.42,421.00,1072.00,242.00,292.00,704.00,827.00,3019.00,4095.00,,,,,,,,,,,,0,0,0,,592,15264,4896,-102,30,-178
26.833,26.47,2.78,9.95,-7.77,16.15,-11.37,-1.09,2.52,-0.40,1.25,767.00,923.00,431.00,191.00,621.00,1040.00,2995.00,3962.00,,,,,,,,,,,,0,0,0,,688,15352,4860,-84,81,-140
26.894,26.52,2.65,-3.05,1.08,-9.13,1.56,0.20,4.43,0.66,-1.54,602.00,1218.00,339.00,367.00,547.00,939.00,3417.00,4095.00,,,,,,,,,,,,0,0,0,,564,15324,4828,-69,204,-203
26.957,26.58,2.78,-4.03,6.21,-6.14,4.42,5.28,-1.02,-3.13,4.05,464.00,1103.00,275.00,302.00,670.00,889.00,2705.00,4095.00,,,,,,,,,,,,0,0,0,,740,15436,4628,-124,185,-180
27.04,26.63,2.72,4.68,-2.94,6.39,-5.02,1.57,1.39,4.27,-3.63,650.00,999.00,365.00,237.00,629.00,965.00,3583.00,3755.00,,,,,,,,,,,,0,0,0,,560,15264,4924,-107,68,-134
27.061,26.69,2.68,1.33,-0.52,-0.71,-1.16,1.80,2.06,-1.91,2.25,606.00,1069.00,337.00,283.00,604.00,939.00,2916.00,4095.00,,,,,,,,,,,,0,0,0,,576,15276,4836,-68,145,-121
27.141,26.74,2.66,-0.89,1.55,-4.00,0.90,2.37,2.27,1.39,0.89,564.00,1104.00,320.00,305.00,591.00,913.00,2955.00,3727.00,,,,,,,,,,,,0,0,0,,712,15392,4860,-94,98,-131
27.162,26.80,2.81,-0.88,3.45,-2.02,2.25,5.54,-1.11,0.88,-1.86,509.00,1049.00,287.00,272.00,670.00,882.00,3463.00,4095.00,,,,,,,,,,,,0,0,0,,716,15432,4916,-126,84,-98
27.224,26.85,2.66,6.95,-4.73,8.55,-6.92,-0.03,2.65,-3.61,4.75,687.00,958.00,389.00,229.00,605.00,994.00,2626.00,4095.00,,,,,,,,,,,,0,0,0,,704,15340,4896,-74,173,-193
27.265,26.91,2.59,-3.01,2.01,-8.60,2.45,1.17,3.84,4.47,-3.12,572.00,1186.00,320.00,351.00,555.00,918.00,3473.00,3675.00,,,,,,,,,,,,0,0,0,,620,15272,4660,-76,94,-120
27.328,26.96,2.88,-4.10,7.95,-5.21,6.54,8.34,-3.38,-1.57,1.74,423.00,1056.00,241.00,275.00,720.00,839.00,2979.00,4095.00,,,,,,,,,,,,0,0,0,,564,15352,4748,-69,113,-92
27.431,27.02,2.72,10.72,-7.72,17.33,-11.73,-0.27,2.22,0.84,0.74,754.00,894.00,430.00,184.00,622.00,1015.00,3010.00,3825.00,,,,,,,,,,,,0,0,0,,724,15508,4728,-114,160,-147
27.451,27.07,2.61,-2.65,0.70,-9.23,1.81,0.51,3.53,0.44,-1.22,610.00,1211.00,335.00,366.00,571.00,950.00,3371.00,4095.00,,,,,,,,,,,,0,0,0,,656,15360,4680,-124,64,-158
27.491,27.13,2.70,-3.43,5.77,-3.19,3.97,4.45,-0.88,-2.50,3.11,470.00,1090.00,267.00,272.00,675.00,915.00,2813.00,4095.00,,,,,,,,,,,,0,0,0,,500,15600,4888,516,-21,78
27.552,27.18,2.53,3.14,-2.14,13.02,-5.17,-0.65,-0.36,3.59,-5.87,640.00,1039.00,326.00,183.00,720.00,1104.00,4095.00,4095.00,,,,,,,,,,,,0,0,0,,564,14796,5072,-197,382,142
27.612,27.24,2.35,-0.61,0.07,4.03,-0.91,-1.09,-0.76,1.42,-2.67,608.00,1136.00,305.00,233.00,742.00,1136.00,3581.00,4095.00,,,,,,,,,,,,0,0,0,,580,15400,4824,-105,635,171
27.675,27.29,2.17,-3.20,1.78,-1.74,1.83,-1.29,-0.45,2.49,-4.24,581.00,1202.00,292.00,272.00,732.00,1135.00,3825.00,4095.00,,,,,,,,,,,,0,0,0,,700,15492,4488,-19,477,160
27.716,27.35,2.12,-3.38,3.02,0.80,2.91,1.22,-3.61,3.59,-5.87,545.00,1171.00,263.00,239.00,830.00,1119.00,4095.00,4095.00,,,,,,,,,,,,0,0,0,,856,15320,4392,-103,223,48
27.777,27.40,1.81,3.93,-4.98,13.11,-7.28,-4.22,-0.11,-0.16,-0.33,736.00,1087.00,365.00,193.00,758.00,1263.00,3248.00,4095.00,,,,,,,,,,,,0,0,0,,924,15376,4560,-134,183,-112
27.838,27.46,1.60,-5.46,2.16,-6.98,3.98,-2.29,1.17,3.59,-5.87,593.00,1301.00,286.00,316.00,683.00,1131.00,4095.00,4095.00,,,,,,,,,,,,0,0,0,,836,15316,4904,-159,217,-58
27.88,27.51,1.74,-7.06,8.55,-2.26,9.18,4.38,-5.33,2.10,-3.67,432.00,1168.00,198.00,228.00,860.00,1034.00,3734.00,4095.00,,,,,,,,,,,,0,0,0,,884,15956,5152,-342,846,-792
27.962,27.57,1.50,7.27,-6.99,23.90,-12.28,-3.03,-0.60,2.91,-4.87,772.00,1005.00,393.00,144.00,762.00,1221.00,3926.00,4095.00,,,,,,,,,,,,0,0,0,,952,16588,5896,-441,3034,-2926
27.983,27.62,1.33,-4.41,1.02,-5.16,2.24,-2.00,0.15,3.59,-5.87,619.00,1287.00,304.00,308.00,718.00,1149.00,4095.00,4095.00,,,,,,,,,,,,0,0,0,,1040,16044,4156,-1643,3657,-5020
28.044,27.68,1.35,-4.78,4.68,-1.43,5.12,1.73,-3.36,-0.37,-0.02,511.00,1184.00,243.00,246.00,811.00,1089.00,3206.00,4095.00,,,,,,,,,,,,0,0,0,,184,15628,4508,-2203,3692,-6095
28.148,27.73,1.23,1.98,-2.18,10.29,-4.64,-1.05,-1.70,3.40,-5.59,655.00,1089.00,333.00,201.00,780.00,1163.00,4047.00,4095.00,,,,,,,,,,,,0,0,0,,-484,15596,4648,-2069,2433,-7310
28.168,27.79,1.08,0.09,-0.97,2.69,-1.41,-1.66,-0.97,-1.07,1.01,635.00,1136.00,321.00,249.00,758.00,1168.00,3071.00,4095.00,,,,,,,,,,,,0,0,0,,-1624,14552,4540,-1235,900,-7469
28.208,27.84,0.96,-2.98,1.52,-4.35,2.03,-1.33,-0.61,-1.22,1.23,587.00,1200.00,303.00,300.00,739.00,1142.00,3043.00,4095.00,,,,,,,,,,,,0,0,0,,-3448,13556,4700,-783,-225,-5525
28.288,27.90,0.99,-2.51,3.11,-1.64,2.38,1.55,-3.29,-0.54,0.23,534.00,1129.00,283.00,267.00,811.00,1095.00,3173.00,4095.00,,,,,,,,,,,,0,0,0,,-4412,13428,5052,-961,-1677,-3357
28.329,27.95,0.81,5.56,-5.13,10.07,-7.34,-2.59,-0.14,-3.43,4.49,720.00,1023.00,387.00,218.00,737.00,1185.00,2655.00,4095.00,,,,,,,,,,,,0,0,0,,-4724,13484,5888,-947,-1774,-1114
28.391,28.01,0.66,-4.40,1.68,-8.96,2.46,-2.13,1.83,-0.65,0.39,597.00,1264.00,322.00,356.00,657.00,1104.00,3152.00,4095.00,,,,,,,,,,,,0,0,0,,-4428,13692,6488,-918,-985,89
28.433,28.06,0.88,-6.10,8.10,-5.62,6.60,4.88,-4.53,-2.50,3.12,435.00,1138.00,242.00,279.00,816.00,992.00,2812.00,4095.00,,,,,,,,,,,,0,0,0,,-4004,14368,6856,-859,3,1060
28.514,28.12,0.71,8.24,-7.10,13.35,-8.78,-2.42,0.58,-0.36,2.02,763.00,970.00,394.00,199.00,707.00,1155.00,2870.00,3875.00,,,,,,,,,,,,0,0,0,,-3484,14316,6144,-299,434,856
28.534,28.17,0.61,-3.48,0.73,-8.44,0.95,-1.34,1.76,-1.85,2.15,618.00,1250.00,346.00,363.00,650.00,1072.00,2928.00,4095.00,,,,,,,,,,,,0,0,0,,-3240,14560,5840,-291,479,584
28.595,28.23,0.75,-3.73,4.44,-5.02,3.78,3.38,-1.97,-2.27,5.10,508.00,1143.00,279.00,294.00,730.00,983.00,2515.00,3847.00,,,,,,,,,,,,0,0,0,,-3140,15160,6168,-657,486,214
28.657,28.28,0.74,3.17,-2.15,5.80,-4.31,0.57,0.07,3.59,-0.22,640.00,1038.00,355.00,238.00,688.00,1040.00,3015.00,3519.00,,,,,,,,,,,,0,0,0,,-3172,14616,6124,-38,727,-262
28.698,28.34,0.71,1.01,-0.50,0.61,-1.77,0.10,0.69,-4.03,5.37,609.00,1082.00,340.00,273.00,671.00,1042.00,2559.00,4095.00,,,,,,,,,,,,0,0,0,,-3164,14516,5280,271,731,-286
28.76,28.39,0.72,-1.89,1.40,-4.22,0.97,0.91,1.15,3.10,1.77,579.00,1153.00,320.00,307.00,645.00,997.00,2731.00,3401.00,,,,,,,,,,,,0,0,0,,-3140,14216,4688,323,50,-746
28.802,28.45,0.88,-2.05,3.76,-1.64,2.38,4.00,-2.20,-1.54,2.26,511.00,1089.00,283.00,267.00,731.00,965.00,2894.00,4033.00,,,,,,,,,,,,0,0,0,,-3460,13988,5112,-408,-947,-967
28.884,28.50,0.80,6.76,-5.14,11.83,-8.54,-0.81,0.81,-3.06,5.71,705.00,976.00,400.00,210.00,678.00,1077.00,2469.00,3906.00,,,,,,,,,,,,0,0,0,,-3856,13304,6116,-1060,-1901,-1219
28.926,28.56,0.73,-3.30,1.53,-8.22,2.21,-0.55,3.22,2.66,0.63,590.00,1215.00,322.00,348.00,592.00,999.00,2928.00,3568.00,,,,,,,,,,,,0,0,0,,-4676,13876,7824,-1067,-1771,-338
28.987,28.61,1.03,-4.92,8.18,-5.00,6.78,6.84,-4.28,-3.54,4.65,424.00,1084.00,237.00,271.00,777.00,912.00,2637.00,4095.00,,,,,,,,,,,,0,0,0,,-4012,14600,8160,-545,-716,575
29.049,28.67,0.93,9.93,-7.32,16.11,-10.53,-1.11,1.05,2.13,1.72,749.00,913.00,412.00,187.00,673.00,1083.00,2788.00,3540.00,,,,,,,,,,,,0,0,0,,-3412,14048,7468,327,-134,592
29.089,28.72,0.88,-1.52,0.29,-5.89,0.64,-0.07,2.03,-2.40,2.97,611.00,1171.00,336.00,331.00,626.00,1012.00,2829.00,4095.00,,,,,,,,,,,,0,0,0,,-3364,14388,6924,457,105,332
29.15,28.78,1.03,-2.83,4.95,-3.43,4.19,3.87,-1.54,-2.31,4.90,486.00,1088.00,265.00,273.00,707.00,953.00,2544.00,3874.00,,,,,,,,,,,,0,0,0,,-3324,14160,6140,710,160,-47
29.274,28.83,1.07,3.08,-1.47,6.98,-4.29,1.85,-0.76,1.66,-0.01,618.00,1023.00,347.00,227.00,703.00,1011.00,3088.00,3778.00,,,,,,,,,,,,0,0,0,,-3664,14184,6120,490,189,168
29.294,28.89,1.00,1.46,-0.69,2.62,-1.89,-0.24,0.59,-3.46,4.54,610.00,1068.00,330.00,253.00,679.00,1059.00,2650.00,4095.00,,,,,,,,,,,,0,0,0,,-4056,15184,6304,358,105,237
29.334,28.94,0.95,-1.77,1.43,-4.14,1.59,-0.14,1.33,1.06,1.45,577.00,1147.00,309.00,301.00,651.00,1034.00,2884.00,3719.00,,,,,,,,,,,,0,0,0,,-4232,14564,6668,759,254,578
29.354,29.00,1.13,-1.36,3.86,-0.56,3.09,4.71,-2.89,-1.35,1.43,502.00,1057.00,267.00,251.00,749.00,956.00,3018.00,4095.00,,,,,,,,,,,,0,0,0,,-2916,14392,5560,1503,705,1790
29.415,29.05,1.02,8.13,-5.29,14.19,-8.29,-1.24,0.68,-4.03,5.37,693.00,928.00,378.00,190.00,688.00,1099.00,2559.00,4095.00,,,,,,,,,,,,0,0,0,,-1388,15196,3684,1549,993,1493
29.477,29.11,0.91,-3.65,2.51,-7.95,3.12,-1.04,3.20,1.84,-0.57,563.00,1200.00,305.00,336.00,598.00,1019.00,3173.00,3808.00,,,,,,,,,,,,0,0,0,,-1764,14564,4156,-470,332,-177
29.537,29.16,1.18,-4.97,8.77,-3.60,7.27,6.26,-4.35,-2.74,3.47,411.00,1069.00,225.00,253.00,788.00,935.00,2771.00,4095.00,,,,,,,,,,,,0,0,0,,-2352,14684,5448,-1315,347,-365
29.618,29.22,1.05,9.41,-6.52,6.91,-6.42,-1.46,0.44,0.61,1.19,724.00,912.00,390.00,241.00,700.00,1116.00,2950.00,3813.00,,,,,,,,,,,,0,0,0,,-2740,14392,5656,-820,1001,-214
29.638,29.27,0.97,-0.70,0.10,-5.37,1.36,-0.43,1.37,-1.60,1.79,608.00,1139.00,320.00,318.00,653.00,1045.00,2973.00,4095.00,,,,,,,,,,,,0,0,0,,-2988,14592,6052,-2336,889,-296
29.719,29.33,1.09,-2.35,5.25,-3.34,5.16,3.31,-2.02,-3.46,4.53,474.00,1059.00,251.00,265.00,733.00,987.00,2651.00,4095.00,,,,,,,,,,,,0,0,0,,-3036,13816,6624,-1208,572,-5
29.739,29.38,1.10,3.89,-1.14,6.31,-2.97,1.25,-1.07,-0.29,-0.14,598.00,982.00,327.00,225.00,723.00,1044.00,3222.00,4095.00,,,,,,,,,,,,0,0,0,,-2756,13516,5832,-993,476,1143
29.801,29.44,1.03,3.20,-0.72,3.59,-1.36,-0.21,-0.01,-2.93,3.76,592.00,998.00,315.00,240.00,701.00,1075.00,2738.00,4095.00,,,,,,,,,,,,0,0,0,,-2756,14328,6440,-1733,-209,1053
29.863,29.49,0.98,-0.95,1.64,-4.29,2.56,-0.05,0.28,-1.49,1.63,562.00,1104.00,294.00,295.00,688.00,1060.00,2992.00,4095.00,,,,,,,,,,,,0,0,0,,-2508,14672,7016,-1333,-595,1149
29.923,29.55,1.13,-0.75,4.41,-1.51,3.76,4.07,-3.59,-0.83,0.65,482.00,1017.00,262.00,256.00,787.00,999.00,3117.00,4095.00,,,,,,,,,,,,0,0,0,,-2712,14388,7312,-849,-630,786
30.006,29.60,1.00,8.58,-5.30,13.50,-7.67,-1.63,-0.00,-2.97,3.82,688.00,912.00,370.00,192.00,719.00,1137.00,2731.00,4095.00,,,,,,,,,,,,0,0,0,,-2512,14168,6816,-750,-645,680
30.027,29.66,0.92,-3.13,2.34,-9.29,3.57,-0.60,2.42,-0.72,0.52,563.00,1181.00,305.00,350.00,619.00,1023.00,3133.00,4091.00,,,,,,,,,,,,1,0,0,,-2216,14388,6852,-838,-600,754
30.069,29.71,1.24,-4.42,9.08,-4.48,9.02,7.39,-4.63,-3.17,4.10,400.00,1037.00,208.00,250.00,784.00,901.00,2699.00,4095.00,,,,,,,,,,,,1,0,0,,-1860,14636,6772,-356,-372,539
30.13,29.77,1.18,10.67,-6.33,16.83,-9.33,0.16,0.65,2.73,0.91,700.00,863.00,381.00,176.00,672.00,1041.00,2881.00,3533.00,,,,,,,,,,,,1,0,0,,-1748,14452,7256,-825,424,461
30.192,29.82,1.20,0.27,0.93,-3.32,1.14,1.43,2.34,-2.55,3.19,571.00,1072.00,312.00,295.00,599.00,946.00,2803.00,4095.00,,,,,,,,,,,,1,0,0,,-1476,14116,7116,-157,749,-26
30.233,29.88,1.43,-0.77,5.97,-1.91,5.98,5.79,-1.28,-0.28,4.38,443.00,976.00,234.00,245.00,673.00,877.00,2522.00,3626.00,,,,,,,,,,,,1,0,0,,-1792,13724,7284,663,53,273
30.315,29.93,1.54,3.98,0.28,5.62,-1.45,3.63,0.09,3.60,-0.39,553.00,942.00,305.00,222.00,650.00,921.00,3043.00,3534.00,,,,,,,,,,,,1,0,0,,-2596,14260,6560,871,-123,-260
30.356,29.99,1.57,4.57,-0.67,6.41,-3.11,2.16,0.99,-4.03,5.37,576.00,944.00,329.00,225.00,636.00,953.00,2559.00,4095.00,,,,,,,,,,,,1,0,0,,-2244,14588,6412,200,644,733
30.418,30.04,1.60,-1.63,2.99,-4.90,3.21,2.18,1.66,3.95,0.64,529.00,1094.00,287.00,297.00,613.00,935.00,2860.00,3391.00,,,,,,,,,,,,1,0,0,,-1956,14572,6504,-22,695,771
30.481,30.10,1.84,-0.59,5.01,-0.22,4.26,6.52,-2.77,-1.76,2.02,465.00,994.00,249.00,240.00,720.00,887.00,2944.00,4095.00,,,,,,,,,,,,1,0,0,,-1844,14312,6680,402,325,644
30.54,30.15,1.75,9.44,-5.24,14.28,-7.83,-0.04,1.16,-2.99,4.79,675.00,880.00,368.00,187.00,656.00,1035.00,2591.00,3991.00,,,,,,,,,,,,1,0,0,,-1740,14260,6336,964,223,926
30.621,30.21,1.64,-3.49,2.99,-8.38,3.75,-0.40,3.87,1.54,-0.22,547.00,1177.00,297.00,336.00,570.00,976.00,3130.00,3817.00,,,,,,,,,,,,1,0,0,,-1804,14260,6176,593,92,584
30.641,30.26,1.93,-4.26,9.36,-5.26,9.73,7.36,-3.93,-2.95,3.78,393.00,1023.00,203.00,253.00,755.00,885.00,2735.00,4095.00,,,,,,,,,,,,1,0,0,,-1568,14588,6528,88,117,557
30.722,30.32,1.83,8.83,-5.55,16.95,-9.51,-0.03,0.96,3.08,0.28,694.00,909.00,384.00,176.00,663.00,1040.00,2962.00,3543.00,,,,,,,,,,,,1,0,0,,-1256,14860,6512,-33,-121,492
30.742,30.37,1.80,-0.03,0.65,-2.81,1.03,1.20,2.20,-1.85,2.15,583.00,1093.00,311.00,290.00,606.00,958.00,2928.00,4095.00,,,,,,,,,,,,1,0,0,,-1308,14960,6572,476,-271,305
30.784,30.43,1.95,-1.69,6.11,-2.16,5.75,4.80,-1.35,-2.00,4.12,447.00,1008.00,238.00,249.00,688.00,914.00,2640.00,3909.00,,,,,,,,,,,,1,0,0,,-1152,14740,6316,891,-123,245
30.847,30.48,2.02,2.89,0.64,4.78,-1.04,3.35,-0.54,1.97,-1.26,553.00,974.00,303.00,227.00,676.00,947.00,3285.00,3858.00,,,,,,,,,,,,1,0,0,,-992,15088,6676,389,152,-344
30.889,30.54,1.98,4.76,-1.02,5.93,-1.91,1.17,0.72,-3.10,4.00,585.00,946.00,311.00,222.00,657.00,998.00,2710.00,4095.00,,,,,,,,,,,,1,0,0,,-868,15644,6996,1668,638,-711
30.973,30.59,1.96,-1.63,2.71,-5.84,3.85,1.61,1.41,1.78,-0.07,537.00,1102.00,282.00,303.00,628.00,963.00,3091.00,3765.00,,,,,,,,,,,,1,0,0,,-1280,15188,6572,2301,1070,-1673
31.015,30.65,2.15,-0.44,5.28,0.53,3.94,5.80,-3.11,-0.44,0.08,457.00,981.00,250.00,235.00,743.00,921.00,3193.00,4095.00,,,,,,,,,,,,1,0,0,,-1720,14824,5592,2511,1839,-2186
31.075,30.70,2.00,9.24,-5.36,16.45,-8.56,-0.78,0.80,-3.03,3.90,682.00,890.00,368.00,175.00,678.00,1076.00,2721.00,4095.00,,,,,,,,,,,,1,0,0,,-1944,14716,4948,1517,1702,-1755
31.137,30.76,1.87,-3.32,2.44,-4.06,2.49,-0.57,2.92,0.39,-1.14,562.00,1187.00,294.00,293.00,602.00,1008.00,3360.00,4095.00,,,,,,,,,,,,1,0,0,,-2028,14944,4824,1002,1240,-1744
31.198,30.81,2.09,-4.76,9.48,-3.65,9.01,6.24,-4.08,-2.33,2.87,394.00,1040.00,205.00,242.00,777.00,929.00,2841.00,4095.00,,,,,,,,,,,,1,0,0,,-2236,14712,4704,986,797,-1838
31.239,30.87,1.98,7.78,-5.49,13.60,-8.38,-0.26,-0.49,0.39,-0.16,705.00,946.00,384.00,195.00,720.00,1091.00,3185.00,3987.00,,,,,,,,,,,,1,0,0,,-2680,14664,4680,531,540,-1701
31.3,30.92,1.84,-1.18,1.07,-3.93,1.29,-0.70,1.55,-0.82,0.63,582.00,1131.00,313.00,301.00,650.00,1051.00,3120.00,4095.00,,,,,,,,,,,,1,0,0,,-2908,15064,4760,199,253,-1155
31.363,30.98,1.91,-2.60,5.07,-8.95,12.89,3.24,-2.07,-2.95,3.77,481.00,1075.00,183.00,269.00,736.00,991.00,2736.00,4095.00,,,,,,,,,,,,1,0,0,,-3028,14992,4980,791,114,-724
31.464,31.03,1.93,1.23,0.64,2.63,-0.56,2.17,-1.13,0.66,-1.55,570.00,1040.00,307.00,244.00,713.00,1008.00,3418.00,4095.00,,,,,,,,,,,,1,0,0,,-3172,15664,4888,1503,338,-1287
31.485,31.09,1.85,3.83,-1.57,5.99,-2.17,0.38,0.14,-2.82,3.58,613.00,996.00,315.00,223.00,688.00,1046.00,2758.00,4095.00,,,,,,,,,,,,1,0,0,,-3336,14988,4712,1250,586,-1642
31.526,31.14,1.80,-2.79,1.96,-5.80,2.82,0.93,0.75,1.62,-0.28,571.00,1177.00,298.00,311.00,659.00,1007.00,3135.00,3811.00,,,,,,,,,,,,1,0,0,,-3280,15092,4592,1220,793,-1313
31.567,31.20,1.95,-2.55,5.48,-1.17,4.29,4.73,-3.43,-0.31,-0.11,470.00,1061.00,253.00,249.00,771.00,969.00,3218.00,4095.00,,,,,,,,,,,,1,0,0,,-3340,15088,4016,1840,1041,-833
31.629,31.25,1.78,8.26,-5.75,16.33,-9.01,-1.36,0.32,-2.76,3.49,709.00,935.00,378.00,178.00,703.00,1115.00,2768.00,4095.00,,,,,,,,,,,,1,0,0,,-3668,15296,3808,1935,971,-735
31.689,31.31,1.64,-4.98,2.54,-10.62,4.08,-1.15,2.54,0.84,-1.82,576.00,1264.00,304.00,364.00,621.00,1042.00,3456.00,4095.00,,,,,,,,,,,,1,0,0,,-3792,14696,3596,1439,311,-729
31.75,31.36,1.84,-4.81,7.88,-4.33,8.36,5.75,-4.55,-2.05,2.45,430.00,1088.00,215.00,253.00,804.00,959.00,2891.00,4095.00,,,,,,,,,,,,1,0,0,,-4048,14968,3140,1198,224,3
31.813,31.42,1.71,6.90,-5.58,11.96,-7.83,-0.74,-0.33,0.14,-0.74,720.00,982.00,384.00,205.00,720.00,1107.00,3302.00,4091.00,,,,,,,,,,,,1,0,0,,-3676,15100,3016,669,462,493
31.834,31.47,1.61,-1.96,0.86,-1.76,-2.28,-0.27,0.84,-0.17,-0.32,597.00,1173.00,365.00,304.00,670.00,1053.00,3247.00,4095.00,,,,,,,,,,,,1,0,0,,-3636,14948,2692,-118,358,354
31.896,31.53,1.63,-3.40,4.58,-3.32,4.58,2.01,-2.06,-2.32,2.86,501.00,1124.00,259.00,269.00,752.00,1040.00,2843.00,4095.00,,,,,,,,,,,,1,0,0,,-3360,15268,2580,-677,-41,371
31.978,31.58,1.59,-0.40,0.59,-0.43,0.59,0.71,-1.29,1.92,-3.40,589.00,1111.00,305.00,267.00,739.00,1073.00,3693.00,4095.00,,,,,,,,,,,,1,0,0,,-3348,15456,2912,-579,-432,407
31.999,31.64,1.45,1.72,-1.72,4.78,-3.12,-1.15,-0.19,-2.23,2.72,642.00,1087.00,339.00,240.00,720.00,1121.00,2859.00,4095.00,,,,,,,,,,,,1,0,0,,-3456,15440,3256,-809,-644,70
32.06,31.69,1.37,-3.70,1.60,-7.95,3.12,-0.18,0.43,0.70,-0.91,592.00,1232.00,305.00,336.00,684.00,1061.00,3299.00,4019.00,,,,,,,,,,,,1,0,0,,-3444,15472,3780,-602,-268,-178
32.12,31.75,1.53,-2.76,5.20,-2.90,4.80,4.65,-3.69,0.16,-0.81,479.00,1078.00,254.00,263.00,783.00,979.00,3314.00,4095.00,,,,,,,,,,,,1,0,0,,-3404,15440,3728,-493,212,-677
32.181,31.80,1.36,8.07,-5.94,14.67,-8.60,-1.85,0.49,-2.59,3.25,719.00,947.00,381.00,188.00,703.00,1132.00,2797.00,4095.00,,,,,,,,,,,,1,0,0,,-3388,15180,3132,-238,-41,-240
32.222,31.86,1.23,-5.17,2.28,-10.46,3.42,-1.40,2.48,1.19,-2.32,586.00,1282.00,314.00,368.00,626.00,1054.00,3530.00,4095.00,,,,,,,,,,,,1,0,0,,-3324,15348,3368,-106,-160,-9
32.284,31.91,1.42,-4.58,7.51,-5.85,8.03,5.16,-4.32,-2.06,2.46,437.00,1089.00,225.00,271.00,803.00,976.00,2890.00,4095.00,,,,,,,,,,,,1,0,0,,-3392,15356,3080,105,-730,-99
32.325,31.97,1.32,6.11,-5.39,9.31,-5.70,-0.60,-0.83,0.53,-1.35,723.00,1008.00,359.00,215.00,738.00,1116.00,3389.00,4095.00,,,,,,,,,,,,1,0,0,,-3604,14324,3444,-238,-1113,443
32.386,32.02,1.20,-1.52,0.38,-4.61,0.59,-1.16,0.98,0.05,-0.65,608.00,1168.00,329.00,315.00,676.00,1087.00,3291.00,4095.00,,,,,,,,,,,,1,0,0,,-3532,16032,4588,-19,-413,623
32.449,32.08,1.20,-3.59,4.46,-4.21,4.67,1.36,-1.76,-1.95,2.30,506.00,1136.00,262.00,278.00,749.00,1059.00,2910.00,4095.00,,,,,,,,,,,,1,0,0,,-3052,15980,3828,-28,373,-210
32.57,32.13,1.19,-0.18,0.64,0.58,-0.05,0.83,-1.43,2.32,-3.99,585.00,1100.00,310.00,261.00,743.00,1072.00,3785.00,4095.00,,,,,,,,,,,,1,0,0,,-3000,15260,3020,1092,287,-943
32.591,32.19,1.04,2.20,-1.91,3.90,-3.20,-1.74,-0.04,-1.90,2.22,643.00,1072.00,346.00,249.00,722.00,1143.00,2919.00,4095.00,,,,,,,,,,,,1,0,0,,-3560,14776,3292,1013,-1009,-792
32.633,32.24,0.92,-4.17,1.57,-8.95,3.39,-1.30,0.70,1.14,-2.25,598.00,1256.00,306.00,347.00,688.00,1101.00,3519.00,4095.00,,,,,,,,,,,,1,0,0,,-3588,14948,3528,1131,-952,536
32.674,32.30,1.04,-4.03,4.98,-3.89,3.66,3.27,-3.87,1.32,-2.52,496.00,1140.00,275.00,282.00,811.00,1039.00,3559.00,4095.00,,,,,,,,,,,,1,0,0,,-3248,15492,3388,956,-347,608
32.736,32.35,0.87,6.69,-5.69,11.94,-8.16,-2.36,0.06,-1.72,1.96,727.00,993.00,391.00,207.00,726.00,1168.00,2951.00,4095.00,,,,,,,,,,,,1,0,0,,-2940,15488,2992,763,-273,546
32.798,32.41,0.73,-5.78,2.21,-12.39,4.02,-1.90,2.21,2.22,-3.84,595.00,1316.00,315.00,391.00,641.00,1083.00,3762.00,4095.00,,,,,,,,,,,,1,0,0,,-2752,15720,3188,1065,-827,452
32.84,32.46,0.90,-5.87,7.90,-5.90,7.56,4.04,-4.00,-1.67,1.89,438.00,1134.00,231.00,275.00,805.00,1011.00,2960.00,4095.00,,,,,,,,,,,,1,0,0,,-2644,15888,2792,1252,-785,481
32.923,32.52,0.80,4.96,-4.92,7.24,-6.44,-0.95,-1.01,1.39,-2.62,720.00,1042.00,388.00,238.00,750.00,1137.00,3574.00,4095.00,,,,,,,,,,,,1,0,0,,-2792,15716,2852,1197,-584,-116
32.944,32.57,0.68,-1.72,0.26,-5.13,0.77,-1.63,1.05,0.60,-1.46,614.00,1181.00,329.00,320.00,679.00,1105.00,3405.00,4095.00,,,,,,,,,,,,1,0,0,,-3072,15312,2804,424,-53,-462
32.985,32.63,0.64,-2.15,3.40,-5.99,4.57,-0.15,-1.06,-1.57,1.74,522.00,1104.00,272.00,299.00,741.00,1103.00,2979.00,4095.00,,,,,,,,,,,,1,0,1,,-3136,15644,2796,-311,534,-200
33.047,32.68,0.61,-0.85,0.99,-0.56,0.09,0.10,-1.46,3.05,-5.07,581.00,1119.00,314.00,272.00,754.00,1104.00,3960.00,4095.00,,,,,,,,,,,,1,0,1,,-2888,15716,2468,-180,733,-58
33.11,32.74,0.45,2.24,-2.32,3.38,-3.02,-2.69,-0.05,-1.87,2.19,657.00,1082.00,346.00,253.00,735.00,1187.00,2923.00,4095.00,,,,,,,,,,,,1,0,1,,-2832,15600,2464,28,240,-92
33.151,32.79,0.33,-4.30,1.65,-8.76,2.80,-1.94,0.65,1.37,-2.59,597.00,1260.00,315.00,350.00,698.00,1131.00,3570.00,4095.00,,,,,,,,,,,,1,0,1,,-3024,15464,2724,-189,-65,75
33.214,32.85,0.43,-4.39,5.03,-8.94,5.70,2.35,-3.72,1.14,-2.25,498.00,1155.00,270.00,326.00,818.00,1073.00,3519.00,4095.00,,,,,,,,,,,,1,0,1,,-2988,15752,2788,-743,246,49
33.297,32.90,0.21,6.44,-6.13,12.27,-8.83,-4.02,0.22,-1.47,1.59,748.00,1015.00,403.00,208.00,742.00,1242.00,2997.00,4095.00,,,,,,,,,,,,1,0,1,,-2908,15984,3032,-698,519,-115
33.317,32.96,0.01,-6.91,2.65,-12.30,2.85,-3.77,2.24,2.69,-4.54,593.00,1360.00,335.00,402.00,662.00,1165.00,3873.00,4095.00,,,,,,,,,,,,1,0,1,,-2996,15760,2884,-558,950,-357
33.377,33.01,0.11,-6.79,7.14,-7.77,6.95,2.04,-3.96,-1.55,1.71,464.00,1200.00,247.00,301.00,833.00,1093.00,2982.00,4095.00,,,,,,,,,,,,1,0,1,,-2976,15612,2780,-766,1013,-376
33.438,33.07,-0.01,3.91,-4.75,7.26,-6.77,-2.28,-0.78,1.37,-2.60,727.00,1081.00,395.00,240.00,759.00,1191.00,3571.00,4095.00,,,,,,,,,,,,1,0,1,,-2788,15548,2652,-553,652,-161
33.479,33.12,-0.15,-2.04,0.04,-5.49,0.72,-2.79,1.15,0.08,-0.69,625.00,1203.00,332.00,325.00,690.00,1154.00,3297.00,4095.00,,,,,,,,,,,,1,0,1,,-2812,15612,2672,-153,112,-47
33.559,33.18,-0.19,-3.77,3.22,-5.50,3.35,-0.94,-1.06,-1.83,2.13,543.00,1183.00,288.00,303.00,752.00,1138.00,2930.00,4095.00,,,,,,,,,,,,1,0,1,,-2996,15528,2728,-187,-104,-173
33.681,33.23,-0.19,-1.97,1.43,-3.29,0.72,-0.33,-1.82,2.60,-4.40,579.00,1156.00,319.00,298.00,775.00,1134.00,3851.00,4095.00,,,,,,,,,,,,1,0,1,,-2984,15532,2928,-454,-25,-182
33.702,33.29,-0.36,1.62,-2.39,2.85,-3.68,-3.51,-0.20,-2.18,2.64,667.00,1111.00,362.00,263.00,752.00,1231.00,2869.00,4095.00,,,,,,,,,,,,1,0,1,,-2896,15632,3144,-331,65,2
33.722,33.34,-0.47,-4.34,1.26,-8.99,2.18,-2.57,0.57,1.15,-2.27,610.00,1275.00,327.00,359.00,709.00,1162.00,3523.00,4095.00,,,,,,,,,,,,1,0,1,,-2872,15528,2920,-83,100,5
33.764,33.40,-0.40,-4.44,4.75,-5.88,4.53,0.95,-3.61,0.67,-1.56,506.00,1166.00,272.00,298.00,834.00,1131.00,3419.00,4095.00,,,,,,,,,,,,1,0,1,,-2952,15548,3012,-296,13,-30
33.825,33.45,-0.60,5.75,-6.02,11.62,-8.93,-4.50,-0.13,-1.66,1.88,753.00,1040.00,410.00,214.00,763.00,1278.00,2961.00,4095.00,,,,,,,,,,,,1,0,1,,-2876,15484,3240,-492,-99,45
33.866,33.51,-0.77,-6.28,1.53,-12.29,2.73,-4.00,1.85,2.25,-3.90,623.00,1367.00,337.00,403.00,679.00,1188.00,3770.00,4095.00,,,,,,,,,,,,1,0,1,,-2732,15820,3300,-171,70,-80
33.929,33.56,-0.70,-6.33,6.55,-7.33,5.93,0.61,-3.80,-1.69,1.91,475.00,1197.00,259.00,304.00,848.00,1152.00,2957.00,4095.00,,,,,,,,,,,,1,0,1,,-2828,15436,3184,6,215,-231
34.033,33.62,-0.84,2.99,-4.34,5.51,-6.60,-3.44,-1.11,1.83,-3.27,723.00,1109.00,404.00,256.00,789.00,1258.00,3673.00,4095.00,,,,,,,,,,,,1,0,1,,-2924,15528,3040,-137,122,-232
34.054,33.67,-1.01,-3.63,0.17,-8.18,1.41,-4.15,0.39,0.44,-1.23,639.00,1277.00,336.00,355.00,737.00,1243.00,3372.00,4095.00,,,,,,,,,,,,1,0,1,,-2904,15544,2964,-15,65,-163
34.094,33.73,-1.07,-3.80,2.14,-5.89,2.49,-2.31,-1.42,-1.26,1.29,576.00,1219.00,304.00,315.00,786.00,1213.00,3035.00,4095.00,,,,,,,,,,,,1,0,1,,-2900,15624,3120,124,103,-82
34.156,33.78,-1.09,-1.65,0.76,-2.61,0.09,-1.37,-1.99,2.78,-4.67,597.00,1162.00,326.00,295.00,797.00,1187.00,3894.00,4095.00,,,,,,,,,,,,1,0,1,,-2848,15388,2928,101,100,-256
34.218,33.84,-1.24,1.86,-2.88,2.13,-3.74,-4.18,-0.70,-2.08,2.50,682.00,1115.00,368.00,271.00,782.00,1281.00,2886.00,4095.00,,,,,,,,,,,,1,0,1,,-2848,15492,2976,-133,-112,-80
34.259,33.89,-1.35,-4.62,1.33,-9.42,1.99,-3.50,0.40,1.43,-2.68,611.00,1287.00,333.00,367.00,728.00,1211.00,3583.00,4095.00,,,,,,,,,,,,1,0,1,,-2796,15660,3496,72,28,57
34.321,33.95,-1.25,-4.79,5.20,-5.87,4.40,0.70,-4.03,0.72,-1.63,497.00,1168.00,274.00,299.00,857.00,1155.00,3429.00,4095.00,,,,,,,,,,,,1,0,1,,-2836,15808,2984,298,308,-222
34.403,34.00,-1.46,6.49,-6.24,10.34,-9.07,-5.36,-0.34,-1.33,1.39,752.00,1016.00,423.00,226.00,784.00,1330.00,3022.00,4095.00,,,,,,,,,,,,1,0,1,,-2752,15432,2736,352,187,-230
34.444,34.06,-1.62,-6.25,1.49,-12.09,2.45,-4.76,1.68,2.37,-4.07,624.00,1367.00,341.00,403.00,695.00,1230.00,3798.00,4095.00,,,,,,,,,,,,1,0,1,,-2832,15556,3000,74,-51,-123
34.464,34.11,-1.52,-6.99,6.58,-9.83,6.55,0.35,-4.32,-1.63,1.83,480.00,1228.00,262.00,330.00,876.00,1180.00,2967.00,4095.00,,,,,,,,,,,,1,0,1,,-2788,15480,2900,49,-71,-149
34.526,34.17,-1.63,2.64,-4.07,4.72,-6.15,-3.59,-1.25,2.10,-3.67,717.00,1116.00,400.00,261.00,797.00,1270.00,3734.00,4095.00,,,,,,,,,,,,1,0,1,,-2960,15560,2852,-23,-10,-203
34.607,34.22,-1.76,-3.07,-0.22,-6.53,0.47,-4.29,0.11,0.43,-1.21,646.00,1262.00,343.00,341.00,750.00,1259.00,3370.00,4095.00,,,,,,,,,,,,1,0,1,,-2984,15540,2916,-357,10,-88
34.648,34.28,-1.84,-4.05,1.91,-6.14,1.91,-3.32,-1.20,-0.97,0.85,586.00,1239.00,315.00,323.00,791.00,1255.00,3091.00,4095.00,,,,,,,,,,,,1,0,1,,-2924,15720,3132,-350,221,-40
34.75,34.33,-1.85,-2.43,0.71,-3.67,0.17,-2.12,-2.66,3.46,-5.68,607.00,1200.00,331.00,307.00,838.00,1245.00,4062.00,4095.00,,,,,,,,,,,,1,0,1,,-2960,15544,2856,-185,248,-149
34.771,34.39,-2.02,1.50,-3.89,0.97,-4.04,-5.21,-1.02,-1.51,1.66,725.00,1162.00,382.00,286.00,811.00,1346.00,2989.00,4095.00,,,,,,,,,,,,1,0,1,,-2868,15684,2760,-426,157,2
34.812,34.44,-2.14,-5.97,1.19,-10.84,1.92,-4.35,0.08,2.15,-3.75,631.00,1363.00,343.00,389.00,752.00,1263.00,3747.00,4095.00,,,,,,,,,,,,1,0,1,,-2868,15384,3100,-345,77,-119
34.896,34.50,-2.00,-5.28,4.89,-6.40,3.59,0.67,-4.40,0.78,-1.73,510.00,1201.00,289.00,312.00,875.00,1168.00,3443.00,4095.00,,,,,,,,,,,,1,0,1,,-2740,15692,3116,-214,424,141
34.916,34.55,-2.17,6.16,-6.52,10.96,-9.50,-5.41,-0.61,-1.25,1.27,768.00,1037.00,428.00,223.00,796.00,1342.00,3038.00,4095.00,,,,,,,,,,,,1,0,1,,-2764,15652,2900,-356,350,-7
34.977,34.61,-2.28,-5.64,0.76,-12.57,2.23,-4.37,1.05,1.93,-3.41,642.00,1361.00,348.00,413.00,714.00,1232.00,3695.00,4095.00,,,,,,,,,,,,1,0,1,,-2688,15740,2820,-233,99,53
35.018,34.66,-2.16,-6.60,6.38,-8.78,6.27,0.07,-4.11,-1.54,1.71,482.00,1216.00,261.00,319.00,871.00,1187.00,2983.00,4095.00,,,,,,,,,,,,1,0,1,,-2696,15492,3072,-588,-4,-22
35.12,34.72,-2.23,2.95,-4.14,4.89,-6.12,-3.53,-1.45,1.98,-3.49,716.00,1105.00,398.00,259.00,805.00,1274.00,3706.00,4095.00,,,,,,,,,,,,1,0,1,,-2680,15408,3248,-551,122,-328
35.14,34.77,-2.30,-2.58,-0.58,-5.92,-0.21,-3.68,-0.07,0.04,-0.64,653.00,1250.00,352.00,339.00,749.00,1235.00,3290.00,4095.00,,,,,,,,,,,,1,0,1,,-2628,15512,3152,-858,404,-280
35.202,34.83,-2.32,-3.40,1.10,-5.88,1.42,-2.74,-1.27,-1.32,1.38,605.00,1234.00,322.00,324.00,786.00,1229.00,3024.00,4095.00,,,,,,,,,,,,1,0,1,,-2768,15444,2856,-875,-222,-290
35.243,34.88,-2.27,-2.29,0.70,-3.20,-0.16,-1.35,-2.77,2.70,-4.56,606.00,1194.00,334.00,304.00,831.00,1211.00,3876.00,4095.00,,,,,,,,,,,,1,0,1,,-2968,15700,3776,-401,-253,88
35.305,34.94,-2.39,2.37,-4.23,3.12,-5.33,-4.59,-0.96,-2.04,2.44,727.00,1133.00,394.00,272.00,799.00,1311.00,2893.00,4095.00,,,,,,,,,,,,1,0,1,,-2604,15896,3876,144,285,83
35.367,34.99,-2.47,-5.14,0.82,-10.75,2.27,-3.99,0.04,1.82,-3.26,634.00,1332.00,336.00,384.00,749.00,1247.00,3671.00,4095.00,,,,,,,,,,,,1,0,1,,-2544,15636,3056,192,639,-247
35.428,35.05,-2.33,-5.48,4.56,-6.61,3.66,0.28,-4.40,0.59,-1.45,521.00,1221.00,289.00,314.00,881.00,1186.00,3403.00,4095.00,,,,,,,,,,,,1,0,1,,-2708,15416,2796,197,-217,-404
35.49,35.10,-2.51,5.55,-6.93,8.98,-9.47,-5.81,-0.70,-1.00,0.90,794.00,1074.00,443.00,241.00,806.00,1367.00,3085.00,4095.00,,,,,,,,,,,,1,0,1,,-2756,15280,3356,384,-708,-379
35.511,35.16,-2.64,-6.59,0.74,-12.09,1.34,-5.09,0.66,2.41,-4.13,654.00,1414.00,362.00,415.00,739.00,1281.00,3807.00,4095.00,,,,,,,,,,,,1,0,1,,-2712,15736,3448,111,-316,-252
35.572,35.21,-2.53,-5.98,4.48,-8.92,5.56,-0.59,-4.02,-1.78,2.06,528.00,1248.00,272.00,327.00,877.00,1215.00,2939.00,4095.00,,,,,,,,,,,,1,0,1,,-3016,15736,3620,-139,282,-425
35.634,35.27,-2.58,2.84,-4.18,4.67,-6.09,-3.49,-1.42,1.72,-3.12,719.00,1111.00,399.00,261.00,803.00,1271.00,3649.00,4095.00,,,,,,,,,,,,1,0,1,,-2704,15444,3204,-6,232,-423
35.695,35.32,-2.65,-2.80,-0.14,-5.86,-0.07,-3.88,-0.07,-0.32,-0.09,640.00,1246.00,349.00,337.00,752.00,1245.00,3216.00,4095.00,,,,,,,,,,,,1,0,1,,-2812,15516,3020,316,-18,-242
35.736,35.38,-2.64,-2.87,0.74,-4.98,0.44,-2.47,-1.36,-1.44,1.55,611.00,1220.00,334.00,321.00,786.00,1219.00,3002.00,4095.00,,,,,,,,,,,,1,0,1,,-3052,15184,3184,-48,-356,-336
35.799,35.43,-2.56,-2.18,1.00,-2.70,-0.16,-1.12,-2.73,2.30,-3.97,595.00,1179.00,331.00,298.00,826.00,1199.00,3781.00,4095.00,,,,,,,,,,,,1,0,2,,-2988,15556,3300,-230,-36,-19
35.879,35.49,-2.65,2.94,-4.70,4.25,-6.32,-4.35,-0.73,-2.38,2.94,738.00,1122.00,407.00,267.00,786.00,1291.00,2833.00,4095.00,,,,,,,,,,,,1,0,2,,-2872,15420,3448,-142,440,55
35.9,35.54,-2.71,-5.42,1.18,-10.85,2.42,-3.83,0.28,1.38,-2.61,625.00,1334.00,334.00,384.00,737.00,1231.00,3573.00,4095.00,,,,,,,,,,,,1,0,2,,-2684,15584,2920,60,479,68
35.961,35.60,-2.50,-5.32,5.15,-6.05,4.66,1.42,-4.63,0.08,-0.69,503.00,1194.00,271.00,299.00,874.00,1141.00,3297.00,4095.00,,,,,,,,,,,,1,0,2,,-2664,15616,3012,72,81,-118
36.022,35.65,-2.64,6.18,-7.19,11.59,-9.76,-5.25,-0.73,-1.30,1.34,796.00,1055.00,429.00,219.00,799.00,1338.00,3029.00,4095.00,,,,,,,,,,,,1,0,2,,-2776,15720,3176,-62,59,-215
36.064,35.71,-2.72,-5.89,0.87,-12.05,2.38,-4.29,0.87,1.87,-3.34,641.00,1370.00,342.00,403.00,720.00,1234.00,3683.00,4095.00,,,,,,,,,,,,1,0,2,,-2860,15636,3204,-11,189,-251
36.126,35.76,-2.60,-5.55,4.34,-7.69,5.15,-0.36,-3.80,-2.02,2.41,528.00,1232.00,272.00,315.00,863.00,1197.00,2896.00,4095.00,,,,,,,,,,,,1,0,2,,-2900,15620,3088,62,128,-398
36.231,35.82,-2.66,2.33,-4.04,6.28,-6.40,-3.81,-1.67,2.06,-3.61,720.00,1129.00,394.00,247.00,819.00,1296.00,3725.00,4095.00,,,,,,,,,,,,1,0,2,,-3000,15424,3004,-225,158,-82
36.251,35.87,-2.76,-3.13,-0.37,-5.33,-0.41,-4.52,-0.37,-0.02,-0.54,652.00,1270.00,352.00,333.00,773.00,1287.00,3277.00,4095.00,,,,,,,,,,,,1,0,2,,-2844,15496,3112,-313,277,80
36.311,35.93,-2.79,-3.66,0.74,-5.04,0.30,-3.44,-1.43,-0.92,0.79,620.00,1259.00,337.00,323.00,803.00,1269.00,3100.00,4095.00,,,,,,,,,,,,1,0,2,,-2700,15860,3068,-132,424,-38
36.353,35.98,-2.74,-2.59,0.80,-3.00,0.17,-1.67,-2.90,2.67,-4.50,606.00,1205.00,327.00,299.00,842.00,1231.00,3867.00,4095.00,,,,,,,,,,,,1,0,2,,-2756,15624,3028,-30,296,-161
36.414,36.04,-2.82,2.71,-4.72,3.69,-5.76,-4.39,-0.91,-2.35,2.90,742.00,1133.00,399.00,269.00,794.00,1299.00,2838.00,4095.00,,,,,,,,,,,,1,0,2,,-2884,15680,3080,-260,96,-236
36.474,36.09,-2.84,-4.86,1.05,-9.50,2.02,-3.27,-0.16,1.65,-3.00,623.00,1309.00,333.00,368.00,747.00,1218.00,3632.00,4095.00,,,,,,,,,,,,1,0,2,,-2956,15424,3160,-198,123,-136
36.516,36.15,-2.64,-5.11,5.23,-4.76,4.16,1.20,-4.71,0.15,-0.80,499.00,1182.00,272.00,288.00,881.00,1153.00,3312.00,4095.00,,,,,,,,,,,,1,0,2,,-2872,15436,3276,-70,115,-96
36.598,36.20,-2.76,6.76,-7.48,13.51,-10.66,-5.14,-1.07,-1.10,1.06,800.00,1039.00,435.00,208.00,812.00,1344.00,3065.00,4095.00,,,,,,,,,,,,1,0,2,,-2864,15464,3192,-186,136,-112
36.618,36.26,-2.85,-5.75,0.94,-11.34,2.47,-4.44,0.66,2.00,-3.52,637.00,1360.00,336.00,391.00,730.00,1248.00,3712.00,4095.00,,,,,,,,,,,,1,0,2,,-2796,15736,3140,-337,196,-34
36.681,36.31,-2.72,-5.33,4.20,1.37,1.76,-0.29,-3.87,-1.94,2.29,530.00,1226.00,277.00,241.00,865.00,1196.00,2911.00,4095.00,,,,,,,,,,,,1,0,2,,-2772,15740,3284,-109,254,-36
36.723,36.37,-2.75,3.09,-4.22,6.22,-5.71,-3.33,-1.77,2.16,-3.76,717.00,1101.00,380.00,243.00,816.00,1275.00,3749.00,4095.00,,,,,,,,,,,,1,0,2,,-2752,15684,2772,104,198,-188
36.783,36.42,-2.81,-2.60,-0.46,-5.03,-0.41,-3.89,-0.67,-0.10,-0.43,649.00,1247.00,350.00,329.00,777.00,1266.00,3261.00,4095.00,,,,,,,,,,,,1,0,2,,-2788,15212,3020,-189,-235,-196
36.844,36.48,-2.80,-2.85,0.34,-4.92,0.70,-2.71,-1.70,-0.90,0.75,624.00,1232.00,329.00,318.00,804.00,1242.00,3104.00,4095.00,,,,,,,,,,,,1,0,2,,-2920,15512,3380,-408,-268,18
36.905,36.53,-2.75,-2.07,0.08,-2.97,0.50,-1.67,-3.06,2.89,-4.84,624.00,1203.00,321.00,296.00,849.00,1236.00,3922.00,4095.00,,,,,,,,,,,,1,0,2,,-2708,15656,3488,-292,-32,104
36.967,36.59,-2.85,2.63,-4.87,4.34,-6.16,-4.89,-1.24,-1.91,2.25,749.00,1141.00,403.00,265.00,816.00,1337.00,2916.00,4095.00,,,,,,,,,,,,1,0,2,,-2552,15608,3176,-37,96,-14
37.009,36.64,-2.93,-5.48,0.94,-9.84,1.91,-4.36,-0.25,2.24,-3.88,634.00,1346.00,337.00,374.00,766.00,1275.00,3767.00,4095.00,,,,,,,,,,,,1,0,2,,-2716,15688,3252,-229,24,-161
37.069,36.70,-2.73,-5.41,4.90,-6.00,4.71,0.97,-4.94,0.44,-1.22,511.00,1207.00,270.00,298.00,896.00,1171.00,3371.00,4095.00,,,,,,,,,,,,1,0,2,,-2504,15628,3404,-193,-47,-283
37.111,36.75,-2.86,7.02,-7.93,13.37,-10.99,-5.36,-1.04,-0.90,0.75,816.00,1041.00,444.00,211.00,814.00,1355.00,3104.00,4095.00,,,,,,,,,,,,1,0,2,,-2752,15708,3408,25,32,-218
37.194,36.81,-2.94,-5.18,0.58,-10.93,2.44,-4.38,0.64,2.01,-3.53,643.00,1343.00,334.00,385.00,730.00,1246.00,3713.00,4095.00,,,,,,,,,,,,1,0,2,,-2728,15324,3032,-13,-58,-308
37.235,36.86,-2.79,-4.73,3.89,-6.66,4.46,0.07,-4.11,-1.85,2.15,533.00,1207.00,277.00,308.00,871.00,1187.00,2928.00,4095.00,,,,,,,,,,,,1,0,2,,-2772,15580,3352,-123,-12,-63
37.337,36.92,-2.82,2.87,-3.86,5.89,-5.98,-3.47,-1.74,2.42,-4.15,706.00,1100.00,388.00,248.00,817.00,1281.00,3810.00,4095.00,,,,,,,,,,,,1,0,2,,-2724,15712,3540,126,9,-236
37.357,36.97,-2.87,-2.16,-0.73,-5.08,-0.44,-3.77,-0.76,0.10,-0.72,653.00,1234.00,351.00,330.00,779.00,1263.00,3302.00,4095.00,,,,,,,,,,,,1,0,2,,-2788,15636,3420,345,228,-254
37.398,37.03,-2.86,-2.69,0.17,-3.95,0.09,-2.68,-1.67,-0.70,0.46,628.00,1230.00,334.00,311.00,802.00,1239.00,3142.00,4095.00,,,,,,,,,,,,1,0,2,,-2732,15464,2764,178,244,-241
37.46,37.08,-2.78,-2.43,1.17,-3.01,0.69,-1.18,-3.20,2.95,-4.92,592.00,1185.00,318.00,295.00,848.00,1217.00,3935.00,4095.00,,,,,,,,,,,,1,0,2,,-2704,15352,3004,-273,91,-170
37.521,37.14,-2.87,2.84,-5.01,3.53,-5.93,-4.68,-1.25,-1.84,2.14,752.00,1136.00,404.00,272.00,813.00,1326.00,2929.00,4095.00,,,,,,,,,,,,1,0,2,,-2664,15620,3304,-318,100,-163
37.562,37.19,-2.93,-4.96,0.50,-9.93,1.94,-3.97,-0.36,2.69,-4.54,643.00,1334.00,337.00,375.00,765.00,1259.00,3873.00,4095.00,,,,,,,,,,,,1,0,2,,-2736,15624,3224,-216,40,-127
37.645,37.25,-2.75,-5.26,4.24,-6.41,4.58,0.59,-4.85,0.77,-1.70,528.00,1221.00,274.00,304.00,898.00,1186.00,3440.00,4095.00,,,,,,,,,,,,1,0,2,,-2800,15576,3448,-37,232,-30
37.707,37.30,-2.90,6.04,-7.83,12.22,-10.85,-5.75,-1.33,-0.45,0.09,826.00,1079.00,450.00,220.00,833.00,1387.00,3191.00,4095.00,,,,,,,,,,,,1,0,2,,-2868,15704,3172,-50,370,-195
37.728,37.36,-3.02,-6.08,0.56,-12.24,2.02,-5.35,0.74,2.65,-4.48,654.00,1392.00,350.00,410.00,739.00,1291.00,3863.00,4095.00,,,,,,,,,,,,1,0,2,,-2892,15528,3072,-203,162,-257
37.77,37.41,-2.89,-5.39,3.20,-7.33,3.90,-0.41,-4.04,-1.68,1.91,560.00,1262.00,289.00,321.00,875.00,1207.00,2958.00,4095.00,,,,,,,,,,,,1,0,2,,-2752,15616,3284,-203,72,-32
37.832,37.47,-2.93,3.13,-4.08,5.67,-5.96,-3.73,-1.47,2.41,-4.13,711.00,1095.00,389.00,250.00,809.00,1285.00,3807.00,4095.00,,,,,,,,,,,,1,0,2,,-2796,15548,3380,-185,224,-137
37.892,37.52,-2.98,-2.23,-0.59,-4.68,-0.47,-3.81,-0.65,-0.05,-0.50,649.00,1233.00,349.00,325.00,775.00,1261.00,3271.00,4095.00,,,,,,,,,,,,1,0,2,,-2756,15584,3152,-111,146,-93
37.932,37.58,-2.97,-2.42,0.17,-4.68,0.23,-2.81,-1.44,-0.82,0.63,625.00,1217.00,336.00,319.00,794.00,1238.00,3120.00,4095.00,,,,,,,,,,,,1,0,2,,-2752,15808,3496,-38,241,-74
37.993,37.63,-2.89,-2.21,0.91,-3.13,0.61,-1.31,-2.98,2.78,-4.68,598.00,1183.00,320.00,297.00,840.00,1216.00,3895.00,4095.00,,,,,,,,,,,,1,0,2,,-2760,15520,3160,-12,162,-283
38.056,37.69,-2.96,3.18,-5.23,4.50,-6.40,-4.44,-1.28,-2.01,2.39,756.00,1127.00,407.00,265.00,811.00,1315.00,2899.00,4095.00,,,,,,,,,,,,1,0,2,,-2784,15384,3104,-34,-16,-162
38.117,37.74,-3.00,-5.00,0.98,-9.58,1.93,-3.61,-0.41,2.21,-3.83,627.00,1319.00,335.00,370.00,762.00,1243.00,3760.00,4095.00,,,,,,,,,,,,1,0,2,,-2884,15420,3376,-77,33,-119
38.179,37.80,-2.80,-5.46,5.46,-6.48,4.81,1.01,-4.99,0.50,-1.30,496.00,1191.00,271.00,303.00,898.00,1171.00,3383.00,4095.00,,,,,,,,,,,,1,0,2,,-2860,15496,3240,-80,137,-129
38.239,37.85,-2.93,7.20,-8.30,13.55,-11.26,-5.42,-1.06,-0.62,0.35,830.00,1044.00,449.00,211.00,816.00,1359.00,3157.00,4095.00,,,,,,,,,,,,1,0,2,,-2648,15556,3188,-63,64,-96
38.281,37.91,-3.03,-5.73,0.47,-12.23,2.28,-4.87,0.51,2.48,-4.24,653.00,1376.00,345.00,407.00,742.00,1275.00,3824.00,4095.00,,,,,,,,,,,,1,0,2,,-2780,15532,3140,-87,59,-70
38.342,37.96,-2.92,-4.71,2.97,-6.68,3.06,-0.87,-3.97,-1.52,1.67,560.00,1236.00,299.00,320.00,879.00,1227.00,2987.00,4095.00,,,,,,,,,,,,1,0,2,,-2684,15648,3188,-147,205,-86
38.424,38.02,-2.97,2.32,-4.19,4.72,-5.73,-3.99,-1.95,2.82,-4.72,726.00,1134.00,391.00,258.00,834.00,1315.00,3903.00,4095.00,,,,,,,,,,,,1,0,2,,-2536,15604,3208,-144,95,-123
38.445,38.07,-3.05,-2.80,-1.20,-4.91,-1.37,-4.47,-0.79,0.31,-1.03,678.00,1282.00,368.00,336.00,790.00,1299.00,3345.00,4095.00,,,,,,,,,,,,1,0,2,,-2808,15464,3248,-178,-10,-223
38.505,38.13,-3.05,-2.88,0.00,-4.75,-0.02,-3.04,-1.82,-0.54,0.23,636.00,1245.00,341.00,322.00,814.00,1262.00,3173.00,4095.00,,,,,,,,,,,,1,0,2,,-2848,15416,3280,-72,121,-76
38.546,38.18,-2.95,-2.15,1.11,-2.80,0.50,-1.14,-3.32,2.93,-4.89,591.00,1174.00,320.00,294.00,853.00,1219.00,3930.00,4095.00,,,,,,,,,,,,1,0,2,,-2740,15544,3224,-47,246,-109
38.608,38.24,-3.04,3.42,-5.01,7.20,-7.31,-4.71,-1.17,-1.94,2.29,744.00,1110.00,407.00,244.00,810.00,1325.00,2911.00,4095.00,,,,,,,,,,,,1,0,2,,-2704,15688,3080,-20,273,-106
38.67,38.29,-3.09,-4.61,0.97,-9.93,1.94,-4.02,-0.08,2.29,-3.95,623.00,1299.00,337.00,375.00,754.00,1252.00,3779.00,4095.00,,,,,,,,,,,,1,0,2,,-2664,15708,3040,-85,177,-205
38.711,38.35,-2.89,-4.91,5.28,-5.67,4.60,0.83,-4.83,0.59,-1.45,496.00,1171.00,270.00,295.00,893.00,1174.00,3403.00,4095.00,,,,,,,,,,,,1,0,2,,-2672,15492,3028,-34,104,-281
38.833,38.40,-3.02,7.90,-8.43,13.92,-11.63,-5.53,-1.07,-0.49,0.15,825.00,1019.00,455.00,210.00,818.00,1365.00,3184.00,4095.00,,,,,,,,,,,,1,0,2,,-2728,15572,3192,-144,104,-159
38.873,38.46,-3.13,-5.57,0.79,-10.64,1.54,-5.10,0.81,2.51,-4.27,640.00,1356.00,349.00,390.00,733.00,1276.00,3829.00,4095.00,,,,,,,,,,,,1,0,2,,-2768,15632,3108,-161,145,-115
38.893,38.51,-3.00,-4.51,3.13,-6.82,3.73,-0.67,-3.99,-1.60,1.79,553.00,1221.00,289.00,316.00,877.00,1218.00,2973.00,4095.00,,,,,,,,,,,,1,0,2,,-2616,15660,3184,-123,98,-151
38.934,38.57,-3.04,2.93,-3.88,5.91,-5.70,-3.81,-1.99,2.85,-4.77,706.00,1098.00,382.00,246.00,833.00,1307.00,3911.00,4095.00,,,,,,,,,,,,1,0,2,,-2728,15592,3100,-121,97,-167
38.996,38.62,-3.14,-2.29,-0.63,-5.34,-0.51,-5.02,-0.05,0.39,-1.14,651.00,1237.00,354.00,334.00,767.00,1302.00,3360.00,4095.00,,,,,,,,,,,,1,0,2,,-2728,15596,3088,-119,153,-183
39.036,38.68,-3.17,-2.87,0.32,-4.83,0.34,-3.60,-1.72,-0.30,-0.12,625.00,1234.00,335.00,320.00,818.00,1287.00,3220.00,4095.00,,,,,,,,,,,,1,0,2,,-2712,15552,3212,-70,96,-215
39.097,38.73,-3.13,-2.73,1.09,-4.05,1.09,-2.35,-3.30,3.41,-5.60,598.00,1202.00,317.00,304.00,871.00,1278.00,4049.00,4095.00,,,,,,,,,,,,1,0,2,,-2680,15568,3288,-149,129,-189
39.178,38.79,-3.25,2.20,-4.94,2.81,-5.69,-5.53,-1.34,-1.50,1.64,758.00,1163.00,404.00,278.00,830.00,1375.00,2991.00,4095.00,,,,,,,,,,,,1,0,2,,-2872,15708,3196,-168,142,-287
39.218,38.84,-3.30,-5.51,1.03,-11.33,1.98,-4.41,-0.26,2.59,-4.40,631.00,1344.00,345.00,396.00,767.00,1278.00,3850.00,4095.00,,,,,,,,,,,,1,0,2,,-2696,15500,2996,-142,59,-207
39.26,38.90,-3.11,-5.72,5.48,-7.59,5.11,0.54,-4.94,0.62,-1.48,498.00,1203.00,272.00,314.00,903.00,1191.00,3408.00,4095.00,,,,,,,,,,,,1,0,2,,-2756,15540,3232,-107,91,-178
39.321,38.95,-3.24,7.59,-8.12,13.98,-11.36,-5.78,-0.94,-0.26,-0.19,816.00,1023.00,448.00,208.00,816.00,1374.00,3229.00,4095.00,,,,,,,,,,,,1,0,2,,-2680,15560,3184,-134,128,-197
39.362,39.01,-3.33,-5.25,1.06,-11.92,2.67,-5.02,0.63,2.48,-4.24,627.00,1329.00,336.00,398.00,739.00,1278.00,3824.00,4095.00,,,,,,,,,,,,1,0,2,,-2752,15568,3180,-99,85,-185
39.423,39.06,-3.21,-4.31,3.27,-6.42,2.91,-0.85,-3.99,-1.57,1.75,547.00,1207.00,300.00,318.00,880.00,1227.00,2978.00,4095.00,,,,,,,,,,,,1,0,2,,-2852,15588,3256,-79,64,-249
39.486,39.12,-3.24,3.23,-3.98,5.37,-5.67,-3.77,-2.04,2.75,-4.63,706.00,1088.00,385.00,251.00,835.00,1307.00,3888.00,4095.00,,,,,,,,,,,,1,0,2,,-2888,15532,3216,-81,86,-137
39.568,39.17,-3.28,-1.84,-0.86,-5.33,-0.41,-4.14,-0.80,0.27,-0.96,654.00,1223.00,352.00,333.00,786.00,1283.00,3335.00,4095.00,,,,,,,,,,,,1,0,2,,-2712,15648,3064,-70,117,-190
39.589,39.23,-3.29,-2.36,0.18,-4.52,0.23,-3.37,-1.69,-0.48,0.14,624.00,1214.00,335.00,317.00,813.00,1274.00,3185.00,4095.00,,,,,,,,,,,,1,0,2,,-2840,15476,3012,-143,97,-212
39.65,39.28,-3.23,-2.29,1.19,-3.05,0.24,-2.05,-3.12,3.22,-5.32,590.00,1178.00,326.00,299.00,858.00,1257.00,4001.00,4095.00,,,,,,,,,,,,1,0,2,,-2900,15500,3324,-199,-16,-122
39.692,39.34,-3.33,3.36,-5.19,4.00,-6.63,-5.30,-1.13,-1.70,1.93,752.00,1118.00,416.00,272.00,817.00,1355.00,2955.00,4095.00,,,,,,,,,,,,1,0,2,,-2676,15580,3244,-218,15,-160
39.753,39.39,-3.40,-4.97,0.65,-10.13,1.84,-4.65,-0.23,2.60,-4.40,638.00,1329.00,340.00,379.00,769.00,1289.00,3851.00,4095.00,,,,,,,,,,,,1,0,2,,-2908,15664,3252,-103,87,-175
39.835,39.45,-3.23,-4.72,4.06,-7.17,4.97,-0.04,-4.83,0.89,-1.89,528.00,1201.00,272.00,310.00,907.00,1215.00,3467.00,4095.00,,,,,,,,,,,,1,0,2,,-2720,15724,3240,-78,130,-144
39.896,39.50,-3.37,6.44,-7.96,11.92,-10.91,-6.03,-1.48,-0.26,-0.19,826.00,1066.00,454.00,223.00,844.00,1408.00,3229.00,4095.00,,,,,,,,,,,,1,0,2,,-2796,15584,3112,-166,80,-234
39.917,39.56,-3.47,-5.96,0.86,-11.29,1.54,-5.32,0.56,2.66,-4.49,642.00,1374.00,353.00,400.00,746.00,1296.00,3865.00,4095.00,,,,,,,,,,,,1,0,2,,-2752,15404,3332,-105,26,-83
39.978,39.61,-3.32,-4.31,3.34,-6.36,2.83,-0.58,-4.15,-1.57,1.75,545.00,1205.00,301.00,318.00,883.00,1219.00,2978.00,4095.00,,,,,,,,,,,,1,0,2,,-2632,15712,3192,-107,163,-125
40.041,39.67,-3.35,3.13,-3.84,5.03,-5.60,-3.88,-1.83,2.68,-4.52,702.00,1088.00,386.00,254.00,827.00,1305.00,3870.00,4095.00,,,,,,,,,,,,1,0,2,,-2864,15560,3200,-159,117,-137
40.083,39.72,-3.40,-1.90,-0.93,-4.90,-0.71,-4.34,-0.71,0.18,-0.84,657.00,1228.00,355.00,330.00,785.00,1290.00,3318.00,4095.00,,,,,,,,,,,,1,0,2,,-2664,15608,3300,-92,65,-75
40.164,39.78,-3.38,-2.50,0.31,-5.29,0.44,-3.11,-1.77,-0.58,0.29,621.00,1216.00,336.00,325.00,813.00,1264.00,3165.00,4095.00,,,,,,,,,,,,1,0,2,,-2764,15608,3140,-120,71,-214
40.205,39.83,-3.28,-2.40,1.07,-4.86,0.96,-1.35,-3.45,3.13,-5.19,595.00,1187.00,324.00,315.00,862.00,1233.00,3979.00,4095.00,,,,,,,,,,,,1,0,2,,-2764,15472,3208,-104,64,-108
40.266,39.89,-3.37,3.24,-5.05,3.88,-6.46,-5.07,-1.11,-1.81,2.09,748.00,1119.00,413.00,272.00,813.00,1342.00,2935.00,4095.00,,,,,,,,,,,,1,0,2,,-2864,15628,3304,-129,168,-78
40.327,39.94,-3.41,-4.55,0.95,-9.98,2.01,-4.10,-0.36,2.33,-4.00,623.00,1297.00,336.00,375.00,767.00,1266.00,3787.00,4095.00,,,,,,,,,,,,1,0,2,,-2684,15672,3160,-141,131,-100
