Time_Host,Time_Arduino,easingdata,CH1_Oxy,CH1_Deoxy,CH2_Oxy,CH2_Deoxy,CH3_Oxy,CH3_Deoxy,CH4_Oxy,CH4_Deoxy,CH1_PD730,CH1_PD850,CH2_PD730,CH2_PD850,CH3_PD730,CH3_PD850,CH4_PD730,CH4_PD850,Answers,airplane_playstate,trail_times,frameRate,Airplane X,Airplane Y,Correct,Wrong,Slow,AnswerRate,CorrectRate,VFTstates,VFTchoose,VFTCount,Culfstates,ax,ay,az,gx,gy,gz
0.064,0.04,0.00,0.00,0.00,0.00,0.00,0.00,0.00,0.00,0.00,300.00,639.00,70.00,158.00,531.00,1104.00,694.00,911.00,,,,,,,,,,,,0,1,0,,-3644,15612,1184,-325,35,-62
0.126,0.10,0.00,0.00,0.00,0.00,0.00,0.00,0.00,0.00,0.00,311.00,638.00,80.00,162.00,533.00,1111.00,700.00,929.00,,,,,,,,,,,,0,1,0,,-3692,15688,1032,-279,47,42
0.188,0.15,0.00,0.00,0.00,0.00,0.00,0.00,0.00,0.00,0.00,320.00,645.00,82.00,149.00,538.00,1125.00,685.00,959.00,,,,,,,,,,,,0,1,0,,-3724,15776,1236,-118,-12,80
0.271,0.21,0.00,0.00,0.00,0.00,0.00,0.00,0.00,0.00,0.00,312.00,656.00,78.00,173.00,533.00,1119.00,697.00,944.00,,,,,,,,,,,,0,1,0,,-3716,15808,1124,-105,95,-32
0.292,0.26,0.00,0.00,0.00,0.00,0.00,0.00,0.00,0.00,0.00,309.00,646.00,80.00,161.00,550.00,1119.00,708.00,942.00,,,,,,,,,,,,0,1,0,,-3684,15684,988,-1,165,-104
0.396,0.32,0.00,0.00,0.00,0.00,0.00,0.00,0.00,0.00,0.00,328.00,651.00,92.00,160.00,539.00,1133.00,691.00,961.00,,,,,,,,,,,,0,1,0,,-3772,15664,1176,-39,192,-77
0.416,0.37,0.00,0.00,0.00,0.00,0.00,0.00,0.00,0.00,0.00,317.00,663.00,82.00,161.00,537.00,1136.00,686.00,959.00,,,,,,,,,,,,0,1,0,,-3656,15676,1192,10,220,-30
0.479,0.43,0.00,0.00,0.00,0.00,0.00,0.00,0.00,0.00,0.00,304.00,658.00,75.00,168.00,541.00,1124.00,698.00,930.00,,,,,,,,,,,,0,1,0,,-3724,15840,924,-49,240,-133
0.52,0.48,0.00,0.00,0.00,0.00,0.00,0.00,0.00,0.00,0.00,315.00,636.00,80.00,153.00,534.00,1121.00,693.00,944.00,,,,,,,,,,,,0,1,0,,-3604,15692,1168,-99,207,-82
0.583,0.54,0.00,0.00,0.00,0.00,0.00,0.00,0.00,0.00,0.00,311.00,638.00,89.00,160.00,528.00,1119.00,676.00,944.00,,,,,,,,,,,,0,1,0,,-3612,15732,1036,-45,156,-120
0.624,0.59,0.03,-0.46,0.67,-0.69,1.61,0.61,-0.33,0.61,-0.21,304.00,647.00,75.00,158.00,540.00,1104.00,693.00,925.00,,,,,,,,,,,,0,1,0,,-3648,15736,1140,-35,164,-184
0.686,0.65,0.07,0.94,-0.68,0.96,-0.60,0.88,-0.86,0.56,-0.77,319.00,635.00,82.00,157.00,553.00,1108.00,715.00,941.00,,,,,,,,,,,,0,1,0,,-3600,15904,1124,4,183,-218
0.749,0.70,0.05,1.12,-1.54,5.08,-6.19,-0.39,0.25,-0.66,0.33,333.00,645.00,103.00,155.00,533.00,1131.00,689.00,959.00,,,,,,,,,,,,0,1,0,,-3592,15668,980,-66,143,-164
0.811,0.76,0.05,-1.15,0.79,-0.67,-0.49,0.05,0.14,-0.23,0.40,306.00,663.00,84.00,167.00,532.00,1115.00,681.00,941.00,,,,,,,,,,,,0,1,0,,-3728,15748,1076,-85,130,-124
0.871,0.81,0.07,-0.30,0.56,2.15,-1.88,0.52,-0.44,0.39,-0.48,305.00,645.00,86.00,155.00,544.00,1111.00,706.00,940.00,,,,,,,,,,,,0,1,0,,-3616,15732,1024,-101,170,-184
0.912,0.87,0.08,0.73,-0.67,3.39,-0.96,0.23,-0.34,-0.27,-0.02,320.00,640.00,80.00,144.00,544.00,1121.00,697.00,953.00,,,,,,,,,,,,0,1,0,,-3772,15684,968,-49,117,-198
0.995,0.92,0.07,-0.28,-0.04,1.59,-0.81,-0.07,0.11,-0.73,0.62,315.00,655.00,82.00,154.00,534.00,1121.00,679.00,954.00,,,,,,,,,,,,0,1,0,,-3652,15600,1148,-98,54,-135
1.014,0.98,0.07,-1.07,1.06,-2.97,4.74,-0.07,0.00,0.17,-0.19,301.00,656.00,66.00,159.00,537.00,1124.00,698.00,941.00,,,,,,,,,,,,0,1,0,,-3688,15784,1156,-95,159,-154
1.157,1.03,0.13,0.78,-0.69,2.05,-0.51,1.39,-2.44,-0.17,-0.21,320.00,639.00,80.00,150.00,597.00,1133.00,703.00,954.00,,,,,,,,,,,,0,1,0,,-3736,15964,1180,-13,296,-242
1.178,1.09,0.10,0.48,-0.70,3.42,-3.75,-0.42,0.36,-0.52,0.30,322.00,647.00,93.00,155.00,530.00,1129.00,688.00,954.00,,,,,,,,,,,,0,1,0,,-3680,15492,1052,-118,125,-177
1.198,1.14,0.10,-0.87,1.06,-2.08,1.59,0.07,0.23,0.42,-0.01,300.00,651.00,77.00,167.00,529.00,1111.00,688.00,927.00,,,,,,,,,,,,0,1,0,,-3600,15668,1280,-37,136,-69
1.218,1.20,0.13,0.26,0.31,1.21,0.24,0.67,-0.45,0.54,-0.58,306.00,635.00,78.00,152.00,543.00,1105.00,708.00,937.00,,,,,,,,,,,,0,1,0,,-3704,15864,1196,-73,277,-114
1.28,1.25,0.12,1.04,-0.83,5.20,-4.15,-0.19,0.36,-0.74,0.51,321.00,635.00,92.00,146.00,528.00,1119.00,683.00,957.00,,,,,,,,,,,,0,1,0,,-3636,15708,1016,-53,290,-98
1.34,1.31,0.10,-0.15,0.51,-0.26,0.74,-0.11,0.43,-0.17,0.45,305.00,642.00,78.00,159.00,525.00,1113.00,678.00,937.00,,,,,,,,,,,,0,1,0,,-3604,15860,1292,-130,88,-186
1.402,1.36,0.12,-0.06,0.72,-2.05,3.60,0.37,0.10,0.83,-0.20,301.00,636.00,69.00,158.00,530.00,1102.00,690.00,917.00,,,,,,,,,,,,0,1,0,,-3684,15748,1144,-91,76,-135
1.485,1.42,0.13,1.46,-0.57,3.85,-1.11,0.28,-0.01,-0.22,0.26,314.00,620.00,80.00,142.00,534.00,1109.00,686.00,944.00,,,,,,,,,,,,0,1,0,,-3508,15780,1204,-92,119,-191
1.505,1.47,0.11,-0.55,0.59,0.79,0.63,-0.26,0.45,-0.55,0.75,306.00,651.00,77.00,153.00,526.00,1119.00,672.00,944.00,,,,,,,,,,,,0,1,0,,-3736,15700,1072,-37,148,-234
1.566,1.53,0.13,-0.69,1.37,-2.69,4.09,0.58,-0.25,-0.16,0.13,294.00,641.00,68.00,160.00,538.00,1103.00,690.00,945.00,,,,,,,,,,,,0,1,0,,-3704,15632,1052,-44,-2,-157
1.626,1.58,0.13,0.37,-0.14,0.97,-0.37,0.20,-0.36,-0.11,-0.26,313.00,640.00,81.00,156.00,545.00,1123.00,704.00,953.00,,,,,,,,,,,,0,1,0,,-3636,15636,1236,-25,16,-111
1.688,1.64,0.11,0.62,-1.04,4.52,-2.89,-0.26,-0.10,-1.24,0.52,327.00,649.00,87.00,145.00,542.00,1136.00,689.00,976.00,,,,,,,,,,,,0,1,0,,-3724,15952,1208,-30,220,-305
1.793,1.69,0.13,-1.50,1.03,-3.85,2.67,0.34,0.07,0.21,0.06,304.00,668.00,75.00,174.00,531.00,1104.00,688.00,933.00,,,,,,,,,,,,0,1,0,,-3716,15444,916,-128,196,-125
1.812,1.75,0.16,-2.10,1.35,-0.14,3.23,0.88,-0.45,0.87,-0.43,302.00,678.00,68.00,148.00,541.00,1096.00,698.00,921.00,,,,,,,,,,,,0,1,0,,-3696,15708,1216,-16,133,-77
1.852,1.80,0.19,1.88,-0.83,6.52,-4.79,0.61,-0.12,0.09,0.31,316.00,614.00,93.00,141.00,534.00,1098.00,680.00,931.00,,,,,,,,,,,,0,1,0,,-3804,15876,1152,70,289,-160
1.894,1.86,0.20,0.78,0.26,2.05,-0.51,0.42,0.33,-0.09,0.79,304.00,623.00,80.00,150.00,523.00,1093.00,665.00,926.00,,,,,,,,,,,,0,1,0,,-3676,15680,844,-35,234,-98
1.934,1.91,0.23,-0.15,1.64,-1.96,4.68,0.94,-0.23,0.96,-0.19,287.00,623.00,65.00,153.00,534.00,1087.00,688.00,912.00,,,,,,,,,,,,0,1,0,,-3716,15776,1204,-88,92,-115
1.996,1.97,0.26,1.47,0.03,6.28,-1.70,0.67,-0.07,0.34,-0.01,304.00,610.00,79.00,131.00,532.00,1094.00,689.00,930.00,,,,,,,,,,,,0,1,0,,-3668,15760,1112,-185,95,-142
2.057,2.02,0.26,0.57,0.45,2.98,-0.35,0.40,0.12,-0.16,0.37,302.00,625.00,78.00,144.00,529.00,1100.00,681.00,939.00,,,,,,,,,,,,0,1,0,,-3724,15680,1048,-25,116,-175
2.117,2.08,0.28,0.26,0.43,0.36,0.53,0.67,0.03,0.35,0.01,304.00,633.00,78.00,156.00,529.00,1091.00,688.00,929.00,,,,,,,,,,,,0,1,0,,-3680,15764,1140,7,87,-223
2.158,2.13,0.32,0.73,0.28,1.00,2.31,0.94,-0.47,0.86,-0.67,304.00,624.00,70.00,145.00,541.00,1094.00,707.00,927.00,,,,,,,,,,,,0,1,0,,-3688,15672,1268,-36,52,-156
2.219,2.19,0.30,1.60,-1.25,4.62,-3.55,-0.08,0.35,-0.98,0.76,325.00,628.00,90.00,147.00,527.00,1114.00,677.00,960.00,,,,,,,,,,,,0,1,0,,-3588,15572,936,-45,91,-161
2.28,2.24,0.29,-0.61,0.73,-1.37,2.85,0.27,0.27,0.24,0.10,304.00,650.00,71.00,157.00,526.00,1101.00,686.00,931.00,,,,,,,,,,,,0,1,0,,-3756,15860,1120,-125,117,-313
2.342,2.30,0.32,1.20,0.12,2.96,-0.58,0.88,0.03,0.89,-0.09,304.00,615.00,79.00,145.00,527.00,1082.00,685.00,912.00,,,,,,,,,,,,0,1,0,,-3744,15516,1104,-233,13,-104
2.404,2.35,0.35,2.24,0.01,4.67,-0.44,0.91,0.02,0.77,0.09,300.00,592.00,76.00,135.00,527.00,1081.00,680.00,912.00,,,,,,,,,,,,0,1,0,,-3704,15764,1200,-52,131,-85
2.446,2.41,0.35,0.99,0.56,4.88,-0.75,0.35,0.78,0.32,0.54,298.00,613.00,77.00,135.00,511.00,1083.00,669.00,917.00,,,,,,,,,,,,0,1,0,,-3744,15836,1104,-27,257,-173
2.488,2.46,0.40,0.25,1.82,-0.68,4.53,1.21,-0.12,1.38,-0.20,282.00,610.00,64.00,146.00,528.00,1072.00,683.00,897.00,,,,,,,,,,,,0,1,0,,-3744,15792,872,-27,171,-133
2.592,2.52,0.43,1.63,0.09,0.29,3.36,1.09,-0.14,1.07,-0.37,302.00,605.00,67.00,145.00,530.00,1078.00,693.00,912.00,,,,,,,,,,,,0,1,0,,-3592,15632,1084,-123,90,-161
2.613,2.57,0.41,1.84,-0.40,4.05,-1.41,0.04,0.88,-0.26,0.68,309.00,608.00,81.00,142.00,511.00,1093.00,671.00,935.00,,,,,,,,,,,,0,1,0,,-3704,15772,1036,-143,129,-155
2.653,2.63,0.44,0.62,0.43,-0.53,2.57,0.90,0.16,0.65,0.18,302.00,624.00,71.00,153.00,523.00,1077.00,678.00,914.00,,,,,,,,,,,,0,1,0,,-3720,15776,1236,-88,179,-110
2.715,2.68,0.47,0.66,0.92,2.62,2.03,1.21,-0.29,1.35,-0.78,294.00,615.00,69.00,137.00,533.00,1077.00,705.00,912.00,,,,,,,,,,,,0,1,0,,-3660,15784,1092,-122,135,-162
2.777,2.74,0.52,2.15,-1.03,17.87,-19.64,1.36,-0.34,0.00,0.21,318.00,611.00,169.00,134.00,533.00,1072.00,685.00,937.00,,,,,,,,,,,,0,1,0,,-3700,15668,1088,42,61,-171
2.839,2.79,0.52,0.73,0.28,1.89,0.74,0.45,0.21,0.18,0.42,304.00,624.00,75.00,146.00,526.00,1095.00,675.00,925.00,,,,,,,,,,,,0,1,0,,-3628,15756,1280,151,15,-62
2.9,2.85,0.54,0.18,1.27,0.02,4.01,1.00,-0.18,1.12,-0.44,291.00,621.00,65.00,144.00,532.00,1083.00,695.00,912.00,,,,,,,,,,,,0,1,0,,-3720,15888,1224,72,213,-263
2.961,2.90,0.57,2.34,-0.27,6.63,-1.34,1.21,-0.12,0.96,-0.19,304.00,594.00,77.00,128.00,528.00,1072.00,688.00,912.00,,,,,,,,,,,,0,1,0,,-3812,15664,960,-72,150,-286
2.981,2.96,0.60,1.09,0.71,3.19,-0.66,1.12,-0.01,0.43,0.58,295.00,608.00,79.00,144.00,526.00,1073.00,666.00,912.00,,,,,,,,,,,,0,1,0,,-3832,15612,1228,45,29,-107
3.043,3.01,0.61,0.29,1.10,1.68,2.35,0.86,0.61,1.20,0.02,293.00,621.00,69.00,141.00,511.00,1066.00,677.00,898.00,,,,,,,,,,,,0,1,0,,-3664,15628,988,-4,166,-134
3.103,3.07,0.65,0.99,0.43,2.62,2.03,1.39,-0.21,1.53,-0.55,300.00,615.00,69.00,137.00,529.00,1067.00,694.00,900.00,,,,,,,,,,,,0,1,0,,-3700,15604,984,-232,301,-134
3.164,3.12,0.67,2.57,-1.35,6.69,-4.24,1.06,0.04,0.22,0.32,321.00,606.00,90.00,138.00,525.00,1074.00,678.00,926.00,,,,,,,,,,,,0,1,0,,-3660,15688,1260,-214,175,-119
3.227,3.18,0.67,1.31,-0.22,3.59,-1.25,0.68,0.67,1.02,0.08,309.00,618.00,81.00,144.00,511.00,1072.00,677.00,903.00,,,,,,,,,,,,0,1,0,,-3704,15708,1136,-197,131,-100
3.309,3.23,0.71,1.69,-0.05,5.75,-1.75,1.39,-0.21,1.57,-0.48,304.00,606.00,80.00,134.00,529.00,1067.00,691.00,897.00,,,,,,,,,,,,0,1,0,,-3632,15808,1232,-4,99,-246
3.329,3.29,0.73,2.46,-1.25,12.09,-10.26,1.21,-0.15,0.61,0.19,320.00,607.00,113.00,131.00,529.00,1073.00,678.00,915.00,,,,,,,,,,,,0,1,0,,-3728,15776,1032,34,13,-222
3.391,3.34,0.73,1.63,-0.45,3.79,-1.55,0.59,0.70,0.41,0.62,311.00,614.00,82.00,144.00,511.00,1075.00,665.00,912.00,,,,,,,,,,,,0,1,0,,-3800,15696,1040,82,36,-232
3.431,3.40,0.76,1.20,0.18,1.45,2.16,1.36,-0.17,1.28,-0.30,303.00,614.00,70.00,143.00,528.00,1067.00,688.00,903.00,,,,,,,,,,,,0,1,0,,-3692,15776,1112,268,143,-282
3.492,3.45,0.77,2.41,-1.29,7.28,-3.17,0.94,-0.09,0.56,-0.14,321.00,609.00,84.00,131.00,530.00,1083.00,691.00,925.00,,,,,,,,,,,,0,1,0,,-3760,15760,832,122,-35,-351
3.553,3.51,0.75,1.09,-0.62,5.02,-2.84,0.39,0.23,-0.19,0.33,317.00,630.00,86.00,142.00,526.00,1097.00,683.00,941.00,,,,,,,,,,,,0,1,0,,-3872,15628,1024,93,-54,-244
3.595,3.56,0.75,0.68,-0.54,0.98,-0.15,0.78,0.06,0.71,-0.27,318.00,639.00,80.00,155.00,527.00,1085.00,694.00,923.00,,,,,,,,,,,,0,1,0,,-3848,15820,928,-69,140,-192
3.721,3.62,0.77,1.93,-0.96,3.62,-1.03,1.09,-0.11,1.30,-0.65,318.00,615.00,80.00,143.00,529.00,1077.00,701.00,911.00,,,,,,,,,,,,0,1,0,,-3824,15596,980,-211,124,-261
3.742,3.67,0.76,2.79,-1.36,5.57,-2.59,0.57,0.31,0.91,-0.58,320.00,601.00,84.00,138.00,522.00,1087.00,703.00,923.00,,,,,,,,,,,,0,1,0,,-3760,15692,1252,-245,26,-130
3.763,3.73,0.77,0.99,0.43,2.98,-0.35,1.06,0.11,0.84,0.23,300.00,615.00,78.00,144.00,523.00,1072.00,674.00,906.00,,,,,,,,,,,,0,1,0,,-3768,15764,1072,-184,166,-44
3.805,3.78,0.80,1.09,0.71,1.22,2.24,1.24,0.05,1.67,-0.38,295.00,608.00,70.00,144.00,523.00,1066.00,686.00,891.00,,,,,,,,,,,,0,1,0,,-3800,15696,1084,-162,294,-102
3.865,3.84,0.82,2.18,-0.21,4.73,0.03,1.30,-0.25,0.80,-0.01,304.00,597.00,74.00,133.00,531.00,1072.00,683.00,913.00,,,,,,,,,,,,0,1,0,,-3820,15732,1012,-50,149,-235
3.949,3.89,0.81,1.15,0.26,3.19,-0.66,0.62,0.69,0.40,0.70,302.00,614.00,79.00,144.00,511.00,1074.00,662.00,910.00,,,,,,,,,,,,0,1,0,,-3756,15668,1128,-144,44,-98
3.97,3.95,0.80,0.17,1.33,-0.90,4.61,0.65,0.68,1.00,-0.04,290.00,620.00,64.00,147.00,511.00,1073.00,682.00,907.00,,,,,,,,,,,,0,1,0,,-3732,15704,1176,-114,146,-169
4.072,4.00,0.84,1.31,-0.28,2.13,0.91,1.51,-0.67,1.07,-0.37,310.00,619.00,74.00,144.00,541.00,1075.00,693.00,912.00,,,,,,,,,,,,0,1,0,,-3828,15704,996,-109,86,-209
4.092,4.06,0.83,-0.49,2.07,4.56,-2.69,0.67,0.07,0.33,0.13,282.00,624.00,86.00,144.00,528.00,1090.00,684.00,927.00,,,,,,,,,,,,0,1,0,,-3796,15624,956,-50,-32,-189
4.154,4.11,0.82,-0.05,0.48,-0.26,0.74,0.66,0.10,0.28,0.36,305.00,640.00,78.00,159.00,527.00,1089.00,676.00,923.00,,,,,,,,,,,,0,1,0,,-3844,15712,1304,-81,87,-150
4.216,4.17,0.83,0.68,0.17,0.78,2.13,0.94,-0.23,1.36,-0.91,306.00,627.00,71.00,147.00,534.00,1087.00,710.00,915.00,,,,,,,,,,,,0,1,0,,-3868,15716,1036,-200,197,-167
4.277,4.22,0.81,1.04,-0.43,3.39,-0.96,0.58,0.10,0.10,0.07,314.00,628.00,80.00,144.00,528.00,1093.00,689.00,937.00,,,,,,,,,,,,0,1,0,,-3736,15660,1096,-86,127,-93
4.338,4.28,0.78,0.27,0.13,0.35,0.07,0.19,0.83,-0.37,0.63,309.00,638.00,80.00,158.00,511.00,1088.00,674.00,940.00,,,,,,,,,,,,0,1,0,,-3856,15760,1036,63,167,-106
4.442,4.33,0.79,-0.59,1.27,-3.90,6.81,0.88,0.03,0.60,-0.15,295.00,640.00,60.00,156.00,527.00,1082.00,691.00,924.00,,,,,,,,,,,,0,1,0,,-3748,15668,1028,-144,141,-274
4.462,4.39,0.80,1.36,0.00,3.02,0.12,1.12,-0.33,0.72,-0.09,305.00,613.00,76.00,142.00,535.00,1082.00,687.00,918.00,,,,,,,,,,,,0,1,0,,-3736,15628,1120,-241,102,-58
4.482,4.44,0.77,0.83,0.12,3.19,-0.66,0.19,0.83,0.28,0.36,306.00,624.00,79.00,144.00,511.00,1088.00,676.00,923.00,,,,,,,,,,,,0,1,0,,-3680,15732,1244,73,261,-24
4.524,4.50,0.78,0.10,0.67,-0.74,2.64,0.88,-0.00,0.89,-0.01,301.00,633.00,71.00,154.00,528.00,1083.00,682.00,910.00,,,,,,,,,,,,0,1,0,,-3788,15700,1092,-24,294,-110
4.584,4.55,0.81,0.89,-0.08,0.79,1.11,1.45,-0.68,1.02,-0.54,309.00,626.00,75.00,151.00,542.00,1078.00,700.00,918.00,,,,,,,,,,,,0,1,0,,-3760,15712,964,2,120,-130
4.646,4.61,0.80,1.15,-0.52,3.93,-3.52,0.55,0.11,-0.02,0.33,315.00,627.00,91.00,151.00,528.00,1094.00,681.00,935.00,,,,,,,,,,,,0,1,0,,-3804,15492,1124,-92,89,-44
4.688,4.66,0.81,-0.66,0.74,-1.46,0.68,1.00,-0.04,0.35,0.42,304.00,651.00,80.00,167.00,528.00,1079.00,673.00,919.00,,,,,,,,,,,,0,1,0,,-3812,15808,1080,24,286,-45
4.791,4.72,0.82,0.47,0.30,0.79,1.36,1.09,-0.14,1.16,-0.45,305.00,630.00,74.00,150.00,530.00,1078.00,695.00,911.00,,,,,,,,,,,,0,1,0,,-3704,15764,1072,-128,234,-97
4.811,4.77,0.81,1.30,-0.57,3.39,-0.96,0.64,0.04,0.74,-0.12,315.00,624.00,80.00,144.00,529.00,1092.00,688.00,918.00,,,,,,,,,,,,0,1,0,,-3724,15696,908,-98,117,-100
4.853,4.83,0.78,-0.45,0.49,0.15,0.13,0.18,0.41,-0.28,0.74,307.00,650.00,80.00,159.00,523.00,1101.00,669.00,934.00,,,,,,,,,,,,0,1,0,,-3708,15624,976,-117,132,-119
4.914,4.88,0.78,-1.00,1.54,-3.27,5.40,0.70,-0.01,1.00,-0.26,293.00,646.00,64.00,158.00,530.00,1091.00,690.00,912.00,,,,,,,,,,,,0,1,0,,-3688,15740,1012,-177,69,-129
4.976,4.94,0.78,0.22,0.03,1.84,-0.43,0.76,-0.41,0.31,-0.08,311.00,641.00,80.00,151.00,541.00,1100.00,692.00,933.00,,,,,,,,,,,,0,1,0,,-3732,15668,1184,-125,31,-126
5.057,4.99,0.74,0.22,-0.56,3.93,-3.52,-0.07,0.04,-0.77,0.44,321.00,651.00,91.00,151.00,536.00,1123.00,686.00,960.00,,,,,,,,,,,,0,1,0,,-3772,15780,1056,-83,95,-123
5.077,5.05,0.71,-0.37,-0.36,-1.82,-0.54,0.28,0.20,0.38,-0.02,321.00,663.00,86.00,175.00,528.00,1103.00,689.00,929.00,,,,,,,,,,,,0,1,0,,-3728,15600,1112,-192,65,-293
5.159,5.10,0.74,0.47,0.12,0.78,0.15,1.30,-0.73,1.26,-0.72,308.00,633.00,79.00,155.00,545.00,1086.00,704.00,914.00,,,,,,,,,,,,0,1,0,,-3796,15704,1024,-132,-6,-106
5.18,5.16,0.73,0.89,-0.55,3.92,-2.25,0.46,0.14,0.24,0.10,317.00,634.00,85.00,146.00,528.00,1097.00,686.00,931.00,,,,,,,,,,,,0,1,0,,-3676,15700,1344,-100,173,-65
5.241,5.21,0.72,-0.25,0.61,-0.06,0.20,0.60,0.12,0.37,0.38,304.00,643.00,80.00,160.00,527.00,1091.00,674.00,919.00,,,,,,,,,,,,0,1,0,,-3696,15680,1060,-126,201,-143
5.303,5.27,0.73,-2.68,2.10,-3.10,4.23,1.00,-0.18,1.20,-0.30,293.00,680.00,68.00,162.00,532.00,1083.00,689.00,906.00,,,,,,,,,,,,0,1,0,,-3748,15740,1096,-91,133,-180
5.364,5.32,0.73,1.04,-0.37,8.17,-8.78,0.67,-0.00,0.60,-0.07,313.00,627.00,112.00,147.00,530.00,1092.00,688.00,922.00,,,,,,,,,,,,0,1,0,,-3852,15656,1128,-201,98,-63
5.406,5.38,0.71,-0.14,0.03,0.98,-0.15,0.25,0.28,-0.15,0.67,313.00,650.00,80.00,155.00,526.00,1102.00,670.00,931.00,,,,,,,,,,,,0,1,0,,-3764,15792,1184,-208,176,-86
5.465,5.43,0.69,-0.85,0.69,-0.47,-0.12,0.46,0.10,0.46,0.14,306.00,657.00,82.00,164.00,529.00,1098.00,682.00,922.00,,,,,,,,,,,,0,1,0,,-3684,15620,1168,-71,192,-174
5.547,5.49,0.69,0.63,-0.81,1.96,-1.60,0.64,-0.41,0.57,-0.52,323.00,645.00,85.00,155.00,542.00,1105.00,705.00,934.00,,,,,,,,,,,,0,1,0,,-3756,15776,1088,-53,-4,-185
5.567,5.54,0.64,0.07,-0.62,3.49,-3.37,-0.32,0.50,-0.62,0.34,323.00,656.00,91.00,153.00,525.00,1120.00,688.00,957.00,,,,,,,,,,,,0,1,0,,-3844,15644,1312,-15,91,-142
5.628,5.60,0.62,-3.36,1.23,-2.59,0.60,0.19,0.30,-0.03,0.14,311.00,715.00,82.00,175.00,526.00,1104.00,688.00,940.00,,,,,,,,,,,,0,1,0,,-3708,15500,1168,-179,162,-144
5.71,5.65,0.62,-0.54,0.28,-1.87,1.28,0.73,-0.51,0.41,-0.20,311.00,656.00,78.00,167.00,544.00,1104.00,695.00,932.00,,,,,,,,,,,,0,1,0,,-3720,15536,1148,-189,125,-71
5.731,5.71,0.59,0.02,-0.55,0.97,-0.37,-0.07,0.21,-0.15,-0.01,322.00,656.00,81.00,156.00,531.00,1118.00,695.00,948.00,,,,,,,,,,,,0,1,0,,-3708,15948,1116,88,199,-224
5.792,5.76,0.57,-0.65,0.44,-1.07,0.54,0.19,0.23,-0.24,0.64,309.00,656.00,80.00,165.00,528.00,1106.00,672.00,935.00,,,,,,,,,,,,0,1,0,,-3816,15588,1168,-12,50,-269
5.855,5.82,0.58,-0.94,1.27,-4.02,4.00,0.88,-0.18,1.07,-0.15,297.00,649.00,70.00,169.00,533.00,1088.00,685.00,907.00,,,,,,,,,,,,0,1,0,,-3816,15572,1232,-59,-7,-113
5.894,5.87,0.59,0.47,0.06,-6.23,2.51,0.73,-0.20,0.21,0.06,309.00,634.00,79.00,192.00,535.00,1095.00,688.00,933.00,,,,,,,,,,,,0,1,0,,-3740,15792,1200,-79,244,-98
5.957,5.93,0.57,0.32,-0.36,1.71,-1.94,0.25,0.17,-0.26,0.35,317.00,645.00,87.00,158.00,529.00,1105.00,683.00,943.00,,,,,,,,,,,,0,1,0,,-3676,15688,1260,-42,279,-128
6.018,5.98,0.57,-0.74,0.41,-3.66,2.61,0.49,-0.08,0.40,0.02,310.00,659.00,75.00,173.00,534.00,1102.00,687.00,927.00,,,,,,,,,,,,0,1,0,,-3744,15652,1020,-76,132,-234
6.06,6.04,0.60,0.02,-0.14,-0.06,0.67,1.09,-0.73,0.88,-0.64,315.00,649.00,78.00,158.00,547.00,1095.00,706.00,926.00,,,,,,,,,,,,0,1,0,,-3836,15680,1232,-116,97,-44
6.122,6.09,0.58,0.32,-0.99,4.62,-4.54,0.28,-0.01,-0.24,0.21,328.00,656.00,95.00,151.00,534.00,1109.00,688.00,946.00,,,,,,,,,,,,0,1,0,,-3728,15804,1192,-152,133,-134
6.183,6.15,0.56,-0.89,0.46,-1.87,1.28,0.25,0.21,0.02,0.50,310.00,662.00,78.00,167.00,528.00,1104.00,674.00,929.00,,,,,,,,,,,,0,1,0,,-3756,15680,1056,12,136,-200
6.307,6.20,0.57,-0.90,0.64,-2.20,3.13,0.61,-0.02,1.89,-0.53,307.00,659.00,71.00,161.00,531.00,1095.00,689.00,887.00,,,,,,,,,,,,0,1,0,,-3804,15800,1068,99,0,-178
6.327,6.26,0.57,0.53,-0.60,3.54,-1.69,0.61,-0.33,0.02,-0.01,320.00,644.00,83.00,146.00,540.00,1104.00,693.00,942.00,,,,,,,,,,,,0,1,0,,-3724,15612,1344,-130,106,-191
6.367,6.31,0.51,1.43,-1.64,3.64,-4.79,-0.64,1.11,-0.73,0.81,333.00,639.00,98.00,158.00,511.00,1116.00,672.00,949.00,,,,,,,,,,,,0,1,0,,-3716,15764,1264,-130,153,-127
6.409,6.37,0.48,-0.83,0.14,-0.67,-0.27,-0.11,0.33,0.12,-0.05,315.00,666.00,83.00,166.00,528.00,1116.00,693.00,939.00,,,,,,,,,,,,0,1,0,,-3768,15644,1148,-147,124,-82
6.451,6.42,0.47,-0.68,0.15,-0.07,-0.25,0.41,-0.33,0.26,-0.57,314.00,662.00,82.00,162.00,542.00,1113.00,711.00,947.00,,,,,,,,,,,,0,1,0,,-3712,15876,996,-100,164,-275
6.513,6.48,0.42,0.22,-0.56,1.92,-2.01,-0.56,0.17,-0.28,0.30,321.00,651.00,87.00,157.00,537.00,1141.00,685.00,945.00,,,,,,,,,,,,0,1,0,,-3848,15496,1172,-124,58,-137
6.575,6.53,0.43,-1.01,0.80,-0.87,-0.43,0.51,0.19,0.56,0.02,305.00,659.00,84.00,168.00,526.00,1093.00,685.00,921.00,,,,,,,,,,,,0,1,0,,-3728,15680,1208,-97,101,-88
6.638,6.59,0.47,-0.20,0.59,5.89,-8.34,1.24,-0.68,1.24,-0.90,304.00,642.00,114.00,159.00,544.00,1087.00,711.00,919.00,,,,,,,,,,,,0,1,0,,-3740,15888,1188,-117,306,-99
6.677,6.64,0.47,1.43,-1.64,-4.97,9.11,0.61,0.05,0.02,0.26,333.00,639.00,54.00,153.00,529.00,1093.00,683.00,935.00,,,,,,,,,,,,0,1,0,,-3716,15640,948,-73,158,-119
6.74,6.70,0.47,0.17,-0.77,2.38,-3.40,0.42,0.33,0.00,0.64,325.00,656.00,93.00,160.00,523.00,1093.00,669.00,926.00,,,,,,,,,,,,0,1,0,,-3728,15724,1112,-89,119,-215
6.801,6.75,0.52,-0.19,0.16,1.81,-0.88,1.45,-0.82,1.14,-0.25,311.00,649.00,82.00,153.00,546.00,1082.00,688.00,907.00,,,,,,,,,,,,0,1,0,,-3868,15636,1184,-137,186,-104
6.884,6.81,0.53,0.83,-0.65,6.01,-4.81,0.73,-0.33,0.12,0.03,319.00,637.00,94.00,144.00,539.00,1099.00,690.00,937.00,,,,,,,,,,,,0,1,0,,-3708,15692,1048,-36,149,-174
6.904,6.86,0.49,0.37,-0.84,4.40,-3.47,-0.28,0.99,0.21,0.06,325.00,652.00,90.00,148.00,511.00,1104.00,688.00,933.00,,,,,,,,,,,,0,1,0,,-3740,15792,1048,309,54,-211
6.945,6.92,0.50,-0.43,0.07,-1.26,0.61,0.76,-0.24,0.60,-0.23,314.00,657.00,80.00,166.00,536.00,1095.00,694.00,926.00,,,,,,,,,,,,0,1,0,,-3712,15700,1088,24,-42,-263
7.027,6.97,0.54,-0.65,0.56,0.36,1.01,1.24,-0.88,0.80,-0.85,307.00,654.00,76.00,154.00,550.00,1093.00,715.00,934.00,,,,,,,,,,,,0,1,0,,-3764,15644,1180,-249,33,-207
7.067,7.03,0.51,1.24,-2.18,3.94,-4.51,0.01,0.25,-1.02,0.77,344.00,653.00,96.00,155.00,529.00,1113.00,677.00,961.00,,,,,,,,,,,,0,1,0,,-3800,15712,1184,-208,157,-67
7.107,7.08,0.51,-1.32,0.43,-1.66,0.74,0.40,-0.02,-0.22,0.26,313.00,674.00,80.00,168.00,533.00,1104.00,686.00,944.00,,,,,,,,,,,,0,1,0,,-3704,15740,1076,-204,99,-140
7.169,7.14,0.52,-0.96,0.84,-1.11,1.75,0.82,-0.47,0.25,0.13,304.00,657.00,75.00,160.00,542.00,1099.00,685.00,930.00,,,,,,,,,,,,0,1,0,,-3716,15844,1056,-76,60,-284
7.23,7.19,0.52,0.68,-0.31,3.59,-1.25,0.52,0.12,0.28,0.11,314.00,635.00,81.00,144.00,528.00,1095.00,685.00,929.00,,,,,,,,,,,,0,1,0,,-3936,15564,1360,-272,-27,-178
7.273,7.25,0.50,0.11,0.06,2.26,-0.80,0.04,0.88,-0.65,0.81,311.00,643.00,81.00,150.00,511.00,1093.00,671.00,946.00,,,,,,,,,,,,0,1,0,,-3872,15624,1348,-22,215,-108
7.376,7.30,0.53,-0.92,1.77,-2.64,5.19,1.06,-0.06,1.37,-0.38,289.00,640.00,64.00,155.00,528.00,1077.00,690.00,902.00,,,,,,,,,,,,0,1,0,,-3780,15748,1192,-111,345,-125
7.396,7.36,0.56,0.73,0.03,2.11,0.42,1.15,-0.54,0.89,-0.17,308.00,628.00,76.00,146.00,541.00,1087.00,688.00,914.00,,,,,,,,,,,,0,1,0,,-3808,15644,1024,-49,188,-103
7.436,7.41,0.55,0.53,-0.31,4.18,-3.40,0.43,0.15,-0.17,0.27,315.00,639.00,90.00,149.00,528.00,1098.00,685.00,942.00,,,,,,,,,,,,0,1,0,,-3788,15708,1240,-32,97,-154
7.539,7.47,0.57,-0.24,0.12,-1.50,1.64,0.85,0.01,0.78,-0.13,312.00,651.00,76.00,163.00,528.00,1084.00,688.00,917.00,,,,,,,,,,,,0,1,0,,-3740,15676,1288,-186,148,-71
7.56,7.52,0.59,0.16,0.41,0.56,2.20,1.09,-0.18,1.10,-0.69,305.00,636.00,71.00,148.00,531.00,1079.00,705.00,919.00,,,,,,,,,,,,0,1,0,,-3756,15724,1352,-102,232,-246
7.602,7.58,0.55,0.93,-0.86,4.56,-2.69,-0.31,0.40,-0.10,0.16,322.00,638.00,86.00,144.00,528.00,1123.00,688.00,942.00,,,,,,,,,,,,0,1,0,,-3724,15700,1144,-34,7,-246
7.684,7.63,0.55,-0.59,0.36,0.98,-0.15,0.55,0.11,0.34,0.07,310.00,656.00,80.00,155.00,528.00,1094.00,686.00,928.00,,,,,,,,,,,,0,1,0,,-3952,15628,1264,23,-35,-222
7.746,7.69,0.56,-0.57,1.02,0.08,3.16,0.88,-0.18,0.73,-0.14,299.00,644.00,68.00,147.00,533.00,1088.00,689.00,919.00,,,,,,,,,,,,0,1,0,,-3836,15732,1236,-328,-53,-282
7.787,7.74,0.56,0.52,-0.02,3.62,-1.03,0.49,0.06,0.04,0.12,310.00,634.00,80.00,143.00,530.00,1098.00,688.00,938.00,,,,,,,,,,,,0,1,0,,-3748,15728,1296,-73,-89,-160
7.828,7.80,0.51,-0.50,0.51,1.84,-0.43,-0.34,1.01,-0.48,0.73,307.00,651.00,80.00,151.00,511.00,1106.00,672.00,942.00,,,,,,,,,,,,0,1,0,,-3752,15772,1356,-36,86,-115
7.89,7.85,0.51,-0.91,0.83,1.01,1.28,0.34,0.11,0.52,-0.07,304.00,656.00,74.00,149.00,530.00,1103.00,689.00,925.00,,,,,,,,,,,,0,1,0,,-3844,15676,1188,-93,257,-324
7.931,7.91,0.53,0.10,0.49,-1.77,2.72,0.97,-0.48,1.22,-0.79,304.00,636.00,72.00,160.00,541.00,1093.00,707.00,917.00,,,,,,,,,,,,0,1,0,,-3716,15652,1260,-16,116,-44
7.992,7.96,0.53,0.73,-0.32,4.56,-2.69,0.61,-0.09,0.03,0.28,314.00,634.00,86.00,144.00,533.00,1097.00,682.00,934.00,,,,,,,,,,,,0,1,0,,-3832,15636,1356,8,143,-67
8.053,8.02,0.54,-0.10,0.56,4.50,-6.53,0.72,0.22,0.70,0.19,304.00,640.00,106.00,160.00,523.00,1083.00,677.00,912.00,,,,,,,,,,,,0,1,0,,-3840,15720,1224,-96,243,-181
8.095,8.07,0.58,0.41,0.69,-0.85,4.02,1.21,-0.29,1.19,-0.54,299.00,625.00,66.00,149.00,533.00,1077.00,698.00,912.00,,,,,,,,,,,,0,1,0,,-3776,15756,996,-109,155,-122
8.177,8.13,0.59,0.78,0.20,5.99,-1.83,0.79,0.03,0.35,0.09,305.00,624.00,80.00,133.00,528.00,1086.00,685.00,927.00,,,,,,,,,,,,0,1,0,,-3852,15552,1192,-165,131,-96
8.219,8.18,0.57,0.21,0.45,2.34,0.59,0.19,0.87,0.06,0.93,304.00,634.00,75.00,144.00,510.00,1087.00,658.00,917.00,,,,,,,,,,,,0,1,0,,-3708,15820,1264,-186,180,-54
8.26,8.24,0.59,-0.99,2.05,-0.60,3.66,1.00,0.06,1.45,-0.31,285.00,637.00,67.00,149.00,525.00,1076.00,686.00,897.00,,,,,,,,,,,,0,1,0,,-3824,15736,1244,-79,154,-137
8.342,8.29,0.61,0.78,0.26,5.30,-1.37,1.12,-0.33,-0.14,0.09,304.00,623.00,79.00,135.00,535.00,1082.00,691.00,945.00,,,,,,,,,,,,0,1,0,,-3824,15700,1060,19,53,-156
8.383,8.35,0.61,0.93,-1.03,8.85,-9.01,0.45,0.24,-0.65,0.70,325.00,641.00,112.00,144.00,525.00,1094.00,675.00,949.00,,,,,,,,,,,,0,1,0,,-3752,15636,1328,4,109,-173
8.466,8.40,0.61,-0.18,-0.37,1.90,-2.21,0.67,0.07,0.61,-0.05,320.00,658.00,88.00,158.00,528.00,1090.00,687.00,921.00,,,,,,,,,,,,0,1,0,,-3956,15616,1260,-101,153,-96
8.487,8.46,0.64,0.00,0.40,1.22,2.24,1.18,-0.62,0.96,-0.80,306.00,640.00,70.00,144.00,543.00,1088.00,711.00,927.00,,,,,,,,,,,,0,1,0,,-3740,15704,1152,-112,153,-68
8.548,8.51,0.62,0.32,-0.71,4.11,-2.53,0.34,-0.03,-0.48,0.29,323.00,651.00,86.00,146.00,534.00,1107.00,688.00,953.00,,,,,,,,,,,,0,1,0,,-3760,15728,1224,-95,242,-94
8.609,8.57,0.62,-1.19,0.68,1.41,-0.29,0.48,0.31,0.34,0.48,308.00,666.00,80.00,153.00,523.00,1091.00,671.00,918.00,,,,,,,,,,,,0,1,0,,-3676,15564,1312,-115,137,-275
8.651,8.62,0.65,0.47,0.36,-1.35,4.76,1.21,-0.12,1.65,-0.35,304.00,629.00,64.00,149.00,528.00,1072.00,685.00,891.00,,,,,,,,,,,,0,1,0,,-3700,15592,1252,-153,31,-36
8.712,8.68,0.61,0.83,0.36,4.46,-0.12,-0.02,1.45,0.89,-0.09,302.00,620.00,75.00,135.00,496.00,1079.00,685.00,912.00,,,,,,,,,,,,0,1,0,,-3716,15676,1368,-118,253,-84
8.774,8.73,0.61,0.25,0.68,3.41,-0.73,0.47,0.74,0.49,0.70,300.00,629.00,79.00,143.00,511.00,1079.00,661.00,907.00,,,,,,,,,,,,0,1,0,,-3732,15564,1280,-87,239,-164
8.857,8.79,0.64,-0.20,1.59,-0.68,4.53,1.27,-0.03,1.54,-0.31,288.00,625.00,64.00,146.00,525.00,1067.00,685.00,894.00,,,,,,,,,,,,0,1,0,,-3792,15748,1020,-53,132,-145
8.877,8.84,0.67,0.83,0.18,2.82,0.68,1.21,-0.12,0.86,-0.05,305.00,623.00,74.00,141.00,528.00,1072.00,684.00,912.00,,,,,,,,,,,,0,1,0,,-3680,15544,1348,-68,165,-86
8.919,8.90,0.67,1.15,-0.35,5.18,-2.02,0.66,0.14,-0.03,0.57,312.00,624.00,82.00,138.00,526.00,1088.00,672.00,929.00,,,,,,,,,,,,0,1,0,,-3760,15692,1280,-122,184,-103
9.0,8.95,0.67,-0.63,1.04,0.57,0.70,0.72,0.22,0.54,0.22,299.00,645.00,77.00,154.00,523.00,1083.00,678.00,917.00,,,,,,,,,,,,0,1,0,,-3792,15720,1116,-78,154,-190
9.04,9.01,0.69,1.35,-0.88,3.59,-1.25,1.15,-0.30,1.32,-0.61,320.00,628.00,81.00,144.00,534.00,1080.00,699.00,909.00,,,,,,,,,,,,0,1,0,,-3720,15672,1288,-39,33,-163
9.102,9.06,0.69,2.30,-2.10,8.96,-6.76,0.70,0.02,0.34,0.31,336.00,625.00,99.00,135.00,529.00,1090.00,677.00,922.00,,,,,,,,,,,,0,1,0,,-3712,15676,1240,-182,84,-174
9.205,9.12,0.67,0.73,-0.67,4.56,-2.69,0.19,0.83,-0.04,0.99,320.00,640.00,86.00,144.00,511.00,1088.00,657.00,919.00,,,,,,,,,,,,0,1,0,,-3692,15660,1324,-176,166,-151
9.225,9.17,0.68,-0.55,1.38,1.22,2.24,0.88,-0.00,1.21,-0.28,293.00,637.00,70.00,144.00,528.00,1083.00,688.00,905.00,,,,,,,,,,,,0,1,0,,-3704,15680,1264,-168,78,-125
9.267,9.23,0.67,1.49,-1.49,8.33,-5.00,0.46,0.07,0.49,0.04,330.00,635.00,91.00,132.00,530.00,1099.00,685.00,923.00,,,,,,,,,,,,0,1,0,,-3748,15944,1372,-68,181,-209
9.329,9.28,0.64,0.53,-0.49,5.48,-4.04,0.16,0.84,0.43,0.50,318.00,642.00,91.00,144.00,511.00,1089.00,669.00,914.00,,,,,,,,,,,,0,1,0,,-3832,15560,1316,-111,126,-216
9.39,9.34,0.64,1.10,-0.27,3.51,-1.90,0.68,0.67,1.20,0.10,311.00,624.00,84.00,147.00,511.00,1072.00,674.00,896.00,,,,,,,,,,,,0,1,0,,-3864,15624,1344,-187,140,-150
9.452,9.39,0.68,1.61,-0.91,3.56,-1.47,1.36,-0.34,1.46,-0.36,319.00,622.00,82.00,145.00,533.00,1072.00,688.00,898.00,,,,,,,,,,,,0,1,0,,-3920,15736,1460,-61,255,-97
9.493,9.45,0.67,1.41,-0.61,4.22,-1.91,0.54,0.29,-0.11,0.85,315.00,622.00,83.00,143.00,523.00,1089.00,663.00,925.00,,,,,,,,,,,,0,1,0,,-3704,15584,1376,-131,134,-50
9.574,9.50,0.67,0.04,0.88,-1.17,2.78,0.55,1.00,0.90,0.51,298.00,631.00,71.00,156.00,503.00,1068.00,663.00,897.00,,,,,,,,,,,,0,1,0,,-3736,15800,1224,-83,151,-171
9.594,9.56,0.70,1.30,0.76,0.02,4.01,1.24,-0.13,1.97,-0.40,293.00,602.00,65.00,144.00,528.00,1071.00,683.00,881.00,,,,,,,,,,,,0,1,0,,-3792,15640,1388,-184,197,-48
9.655,9.61,0.73,0.78,0.50,4.67,-0.44,1.30,-0.15,0.73,0.34,300.00,619.00,76.00,135.00,528.00,1069.00,671.00,907.00,,,,,,,,,,,,0,1,0,,-3588,15800,1256,-100,208,-158
9.717,9.67,0.71,1.30,-0.81,4.37,-2.41,0.30,1.09,0.24,0.98,319.00,628.00,85.00,144.00,503.00,1076.00,654.00,909.00,,,,,,,,,,,,0,1,0,,-3716,15700,1244,-8,117,-156
9.758,9.72,0.71,0.16,0.47,3.39,-0.96,0.74,0.65,1.55,0.02,304.00,635.00,80.00,144.00,511.00,1070.00,673.00,886.00,,,,,,,,,,,,0,1,0,,-3780,15700,1348,47,4,-149
9.82,9.78,0.73,1.82,-1.15,8.85,-5.77,1.15,-0.02,0.90,0.01,322.00,621.00,94.00,132.00,526.00,1072.00,681.00,909.00,,,,,,,,,,,,0,1,0,,-3792,15652,1356,-172,160,-163
9.881,9.83,0.71,1.20,-0.77,7.04,-5.55,0.42,0.33,0.24,0.37,319.00,630.00,96.00,141.00,523.00,1093.00,676.00,924.00,,,,,,,,,,,,0,1,0,,-3744,15652,1344,-131,197,-90
9.942,9.89,0.72,0.42,-0.80,3.04,-3.42,0.91,-0.33,0.74,0.12,324.00,650.00,92.00,156.00,537.00,1091.00,679.00,912.00,,,,,,,,,,,,0,1,0,,-3676,15732,1280,-83,154,-120
10.004,9.94,0.74,0.37,0.22,3.67,-0.58,1.15,-0.13,1.34,-0.59,307.00,634.00,78.00,141.00,529.00,1075.00,698.00,908.00,,,,,,,,,,,,0,1,0,,-3724,15712,1288,-123,58,-315
10.046,10.00,0.75,1.86,-1.39,6.97,-3.28,0.93,0.26,0.31,0.76,326.00,624.00,85.00,133.00,520.00,1073.00,661.00,912.00,,,,,,,,,,,,0,1,0,,-3864,15732,1484,-74,31,-111
10.088,10.05,0.75,0.46,0.67,0.79,1.36,0.74,0.72,0.97,0.65,299.00,624.00,74.00,150.00,509.00,1068.00,657.00,891.00,,,,,,,,,,,,0,1,0,,-3792,15576,1476,-104,226,-58
10.149,10.11,0.77,0.07,1.24,-0.48,4.76,1.14,0.51,1.75,0.06,292.00,624.00,63.00,144.00,511.00,1057.00,669.00,878.00,,,,,,,,,,,,0,1,0,,-3796,15668,1276,-39,256,-185
10.211,10.16,0.78,2.04,-0.94,9.51,-5.60,0.92,0.62,1.14,0.32,317.00,612.00,92.00,128.00,510.00,1063.00,667.00,893.00,,,,,,,,,,,,0,1,0,,-3776,15648,1228,-106,118,-155
10.315,10.22,0.76,1.30,-0.57,6.51,-3.98,0.39,1.09,0.76,0.75,315.00,624.00,89.00,138.00,502.00,1072.00,656.00,896.00,,,,,,,,,,,,0,1,0,,-3820,15652,1444,-142,133,-90
10.336,10.27,0.80,0.73,0.28,2.77,-0.04,1.46,-0.09,1.89,-0.24,304.00,624.00,77.00,144.00,525.00,1061.00,678.00,880.00,,,,,,,,,,,,0,1,0,,-3780,15788,1484,-142,177,-89
10.376,10.33,0.80,0.99,0.19,2.35,0.83,0.83,0.62,1.40,-0.32,304.00,619.00,74.00,143.00,511.00,1067.00,687.00,899.00,,,,,,,,,,,,0,1,0,,-3740,15748,1376,-29,188,-153
10.419,10.38,0.79,2.00,-1.78,8.63,-6.28,0.63,0.25,0.01,0.75,332.00,627.00,97.00,135.00,523.00,1086.00,665.00,923.00,,,,,,,,,,,,0,1,0,,-3800,15820,1340,-108,73,-176
10.479,10.44,0.78,1.50,-2.21,1.96,-1.60,0.55,0.89,1.03,0.19,343.00,647.00,85.00,155.00,506.00,1071.00,673.00,900.00,,,,,,,,,,,,0,1,0,,-3800,15668,1352,-84,31,-176
10.542,10.49,0.80,1.51,-0.88,13.79,-5.58,1.33,-0.30,1.76,-0.60,319.00,624.00,85.00,108.00,532.00,1072.00,693.00,893.00,,,,,,,,,,,,0,1,0,,-3840,15640,1528,-203,134,-111
10.582,10.55,0.79,1.89,-1.80,8.49,-7.69,0.47,0.74,0.64,0.24,333.00,630.00,105.00,141.00,511.00,1079.00,676.00,913.00,,,,,,,,,,,,0,1,0,,-3620,15536,1444,-119,172,-120
10.685,10.60,0.76,0.58,-0.79,5.07,-3.70,0.27,1.02,0.37,0.72,323.00,646.00,90.00,145.00,505.00,1079.00,662.00,911.00,,,,,,,,,,,,0,1,0,,-3808,15976,1356,-95,188,-202
10.706,10.66,0.78,-0.47,1.74,-0.45,4.46,1.15,0.15,0.94,0.33,287.00,629.00,64.00,145.00,521.00,1067.00,669.00,900.00,,,,,,,,,,,,0,1,0,,-3716,15472,1508,-228,94,-140
10.747,10.71,0.78,1.58,-0.01,2.39,2.38,0.70,0.99,1.41,-0.08,304.00,608.00,68.00,137.00,502.00,1062.00,678.00,893.00,,,,,,,,,,,,0,1,0,,-3776,15584,1488,-122,56,-121
10.809,10.77,0.76,1.04,0.17,4.02,-1.62,0.51,1.09,0.68,0.75,304.00,618.00,82.00,143.00,501.00,1067.00,657.00,899.00,,,,,,,,,,,,0,1,0,,-3816,15728,1572,-144,214,6
10.871,10.82,0.79,0.24,1.06,0.76,2.66,1.20,0.53,1.64,0.10,294.00,623.00,69.00,145.00,510.00,1054.00,669.00,881.00,,,,,,,,,,,,0,1,0,,-3716,15596,1392,-155,255,-84
10.933,10.88,0.84,0.62,0.37,1.22,2.24,1.89,-0.52,2.03,-0.61,303.00,625.00,70.00,144.00,533.00,1055.00,690.00,884.00,,,,,,,,,,,,0,1,0,,-3740,15628,1364,-241,151,-166
10.954,10.93,0.83,1.15,-0.05,3.62,-1.03,0.71,0.66,0.39,0.68,307.00,619.00,80.00,143.00,511.00,1071.00,663.00,911.00,,,,,,,,,,,,0,1,0,,-3764,15684,1400,-452,106,-9
11.056,10.99,0.84,-0.01,0.83,0.11,2.61,0.99,0.56,1.39,0.29,299.00,633.00,70.00,149.00,511.00,1062.00,665.00,885.00,,,,,,,,,,,,0,1,0,,-3708,15780,1488,-397,144,-76
11.077,11.04,0.88,0.46,0.67,-0.43,4.16,1.52,-0.04,2.06,-0.48,299.00,624.00,65.00,146.00,523.00,1057.00,685.00,880.00,,,,,,,,,,,,0,1,0,,-3736,15580,1620,-423,415,-157
11.119,11.10,0.89,1.42,0.04,4.40,-0.59,1.15,0.08,1.03,0.27,304.00,611.00,77.00,137.00,523.00,1069.00,670.00,898.00,,,,,,,,,,,,0,1,0,,-3688,15636,1412,-140,315,-221
11.18,11.15,0.87,-0.21,0.78,2.77,-0.04,0.59,0.77,0.58,0.81,301.00,639.00,77.00,144.00,509.00,1073.00,656.00,901.00,,,,,,,,,,,,0,1,0,,-3656,15708,1484,-170,42,-123
11.243,11.21,0.88,-0.66,1.61,-1.82,5.21,0.89,0.60,1.68,-0.14,290.00,636.00,63.00,150.00,511.00,1065.00,677.00,885.00,,,,,,,,,,,,0,1,0,,-3680,15708,1556,-151,14,-202
11.305,11.26,0.89,0.89,0.04,4.19,-0.28,1.15,-0.02,1.28,-0.30,307.00,624.00,76.00,137.00,526.00,1072.00,688.00,903.00,,,,,,,,,,,,0,1,0,,-3724,15680,1620,-68,189,-112
11.409,11.32,0.88,0.42,0.32,3.36,-1.18,0.62,0.69,0.68,0.25,305.00,631.00,81.00,145.00,511.00,1074.00,675.00,911.00,,,,,,,,,,,,0,1,0,,-3728,15512,1688,-145,193,-171
11.43,11.37,0.88,0.46,0.67,-0.06,0.91,0.89,0.82,1.70,0.05,299.00,624.00,77.00,157.00,505.00,1059.00,670.00,880.00,,,,,,,,,,,,0,1,0,,-3760,15588,1552,-191,129,-92
11.472,11.43,0.91,1.83,-0.69,4.08,-2.74,1.61,-0.14,2.15,-0.62,314.00,613.00,87.00,147.00,525.00,1056.00,689.00,880.00,,,,,,,,,,,,0,1,0,,-3680,15800,1664,28,179,-87
11.535,11.48,0.91,1.42,-0.08,8.75,-2.99,0.95,0.65,0.78,0.61,306.00,613.00,81.00,123.00,509.00,1061.00,661.00,899.00,,,,,,,,,,,,0,1,0,,-3784,15584,1608,-111,137,-172
11.577,11.54,0.91,0.10,0.73,0.99,0.32,0.91,0.92,1.38,0.52,300.00,632.00,78.00,153.00,502.00,1055.00,657.00,880.00,,,,,,,,,,,,0,1,0,,-3660,15660,1548,-27,137,-131
11.659,11.59,1.00,0.67,0.66,-1.13,4.68,2.53,0.12,2.31,-0.21,298.00,619.00,64.00,148.00,509.00,1011.00,672.00,865.00,,,,,,,,,,,,0,1,0,,-3788,15516,1656,-215,188,-89
11.701,11.65,1.01,1.42,0.23,6.49,-2.00,1.36,0.48,1.54,0.07,301.00,608.00,80.00,131.00,510.00,1049.00,671.00,885.00,,,,,,,,,,,,0,1,0,,-3820,15720,1576,-143,171,-144
11.783,11.70,1.00,0.62,0.31,2.75,-0.27,0.76,1.01,0.80,0.91,304.00,626.00,78.00,145.00,501.00,1059.00,650.00,891.00,,,,,,,,,,,,0,1,0,,-3648,15644,1632,15,151,-86
11.804,11.76,1.02,-0.29,1.43,-0.23,4.38,1.42,0.45,2.28,-0.34,291.00,630.00,64.00,144.00,510.00,1047.00,677.00,869.00,,,,,,,,,,,,0,1,0,,-3740,15652,1556,-7,96,-179
11.845,11.81,1.05,0.73,0.28,2.54,0.03,1.52,-0.15,1.64,-0.29,304.00,624.00,77.00,145.00,526.00,1060.00,683.00,890.00,,,,,,,,,,,,0,1,0,,-3652,15552,1600,-11,127,-147
11.906,11.87,1.02,0.83,-0.47,4.75,-2.96,0.56,0.71,0.52,0.42,316.00,634.00,87.00,144.00,511.00,1076.00,671.00,913.00,,,,,,,,,,,,0,1,0,,-3724,15596,1592,-24,93,-74
11.946,11.92,1.01,-0.41,0.66,-0.47,0.81,0.83,0.62,1.29,0.18,304.00,646.00,78.00,160.00,511.00,1067.00,670.00,891.00,,,,,,,,,,,,0,1,0,,-3688,15580,1664,18,188,-85
12.008,11.98,1.04,0.10,0.49,-0.14,3.23,1.55,-0.23,2.25,-0.82,304.00,636.00,68.00,148.00,528.00,1061.00,695.00,881.00,,,,,,,,,,,,0,1,0,,-3756,15724,1456,-13,202,-296
12.068,12.03,1.04,1.99,-0.98,4.25,-1.70,1.11,0.56,0.95,0.44,318.00,614.00,82.00,142.00,510.00,1057.00,665.00,897.00,,,,,,,,,,,,0,1,0,,-3792,15628,1572,-46,106,-17
12.151,12.09,1.04,0.40,0.82,3.19,-0.66,1.03,1.06,1.40,0.56,297.00,623.00,79.00,144.00,497.00,1046.00,655.00,878.00,,,,,,,,,,,,0,1,0,,-3636,15664,1704,9,128,-90
12.172,12.14,1.07,0.03,1.96,-0.45,4.46,1.64,0.49,2.53,0.16,281.00,613.00,64.00,145.00,507.00,1037.00,656.00,849.00,,,,,,,,,,,,0,1,0,,-3740,15760,1552,-132,278,-139
12.254,12.20,1.10,1.20,0.49,5.37,-0.92,1.61,0.35,1.75,-0.02,298.00,609.00,77.00,133.00,511.00,1042.00,672.00,880.00,,,,,,,,,,,,0,1,0,,-3732,15772,1404,39,278,-85
12.274,12.25,1.10,0.73,0.40,2.98,-0.35,1.09,1.08,1.17,0.78,302.00,622.00,78.00,144.00,496.00,1043.00,650.00,881.00,,,,,,,,,,,,0,1,0,,-3624,15616,1632,-74,166,-110
12.336,12.31,1.12,0.62,0.62,-1.09,4.39,1.45,0.59,2.18,-0.12,299.00,621.00,65.00,149.00,506.00,1042.00,670.00,867.00,,,,,,,,,,,,0,1,0,,-3664,15668,1624,-36,121,-116
12.398,12.36,1.16,0.72,0.71,3.19,-0.66,2.05,-0.40,2.66,-0.90,297.00,617.00,79.00,144.00,528.00,1045.00,693.00,869.00,,,,,,,,,,,,0,1,0,,-3704,15752,1612,22,126,-149
12.459,12.42,1.15,0.89,0.04,2.82,-1.88,0.92,0.77,0.68,0.75,307.00,624.00,85.00,151.00,506.00,1059.00,657.00,899.00,,,,,,,,,,,,0,1,0,,-3648,15728,1472,-41,89,-155
12.501,12.47,1.16,-0.42,0.97,-0.72,2.12,1.32,0.60,1.48,0.20,299.00,641.00,73.00,156.00,507.00,1047.00,667.00,884.00,,,,,,,,,,,,0,1,0,,-3608,15560,1408,45,107,-206
12.563,12.53,1.19,0.67,0.29,2.13,0.91,1.80,-0.24,2.29,-0.69,304.00,625.00,74.00,144.00,526.00,1051.00,690.00,877.00,,,,,,,,,,,,0,1,0,,-3596,15708,1660,-84,104,-230
12.645,12.58,1.19,1.51,-0.93,7.57,-5.54,1.14,0.51,1.18,0.14,320.00,625.00,95.00,138.00,511.00,1057.00,673.00,896.00,,,,,,,,,,,,0,1,0,,-3700,15668,1432,-25,121,-140
12.665,12.64,1.16,-0.10,0.56,1.23,1.46,0.57,1.22,0.95,0.69,304.00,640.00,73.00,147.00,497.00,1061.00,656.00,891.00,,,,,,,,,,,,0,1,0,,-3680,15668,1456,36,199,-107
12.726,12.69,1.17,-0.56,1.64,0.30,3.08,1.45,0.41,2.23,-0.49,289.00,633.00,68.00,146.00,511.00,1047.00,683.00,874.00,,,,,,,,,,,,0,1,0,,-3592,15708,1348,-158,172,-282
12.788,12.75,1.19,1.74,0.12,3.11,2.14,1.58,0.37,1.66,0.14,301.00,602.00,68.00,134.00,511.00,1043.00,667.00,879.00,,,,,,,,,,,,0,1,0,,-3648,15584,1532,-213,-24,-64
12.889,12.80,1.19,0.35,0.96,4.37,-2.41,1.22,0.92,1.49,0.39,295.00,622.00,85.00,144.00,499.00,1042.00,660.00,879.00,,,,,,,,,,,,0,1,0,,-3620,15732,1748,-86,82,-112
12.91,12.86,1.21,0.29,0.91,-0.70,1.86,1.42,0.71,2.29,-0.10,296.00,624.00,74.00,157.00,503.00,1040.00,668.00,863.00,,,,,,,,,,,,0,1,0,,-3704,15696,1544,-79,142,-253
12.952,12.91,1.23,1.04,0.48,2.77,-0.04,1.77,0.30,2.69,-0.78,299.00,613.00,77.00,144.00,511.00,1037.00,688.00,865.00,,,,,,,,,,,,0,1,0,,-3836,15564,1500,-87,192,-44
13.014,12.97,1.24,1.46,-0.51,4.44,-1.99,1.36,0.62,1.06,0.48,313.00,619.00,83.00,142.00,506.00,1045.00,662.00,892.00,,,,,,,,,,,,0,1,0,,-3728,15680,1716,-111,313,-35
13.077,13.02,1.24,0.09,0.92,1.43,0.41,1.25,0.95,1.75,0.39,297.00,629.00,77.00,150.00,498.00,1040.00,657.00,870.00,,,,,,,,,,,,0,1,0,,-3704,15768,1580,-21,370,8
13.139,13.08,1.26,0.23,1.19,-0.20,4.09,1.61,0.43,2.43,-0.31,292.00,621.00,65.00,145.00,509.00,1040.00,674.00,863.00,,,,,,,,,,,,0,1,0,,-3604,15668,1424,29,241,-61
13.159,13.13,1.27,0.99,0.19,4.09,1.54,1.48,0.62,1.71,-0.09,304.00,619.00,69.00,131.00,505.00,1040.00,675.00,883.00,,,,,,,,,,,,0,1,0,,-3620,15612,1556,8,329,-31
13.24,13.19,1.26,0.16,0.47,2.96,-0.58,1.10,1.04,1.12,0.60,304.00,635.00,79.00,145.00,497.00,1044.00,657.00,887.00,,,,,,,,,,,,0,1,0,,-3580,15708,1348,-82,565,-68
13.281,13.24,1.27,-0.80,2.11,-2.21,5.05,1.48,0.65,2.33,-0.47,283.00,631.00,64.00,153.00,504.00,1039.00,681.00,870.00,,,,,,,,,,,,0,1,0,,-3632,15708,1296,0,211,-78
13.342,13.30,1.28,0.94,-0.04,3.76,0.36,1.36,0.44,1.44,-0.25,308.00,624.00,74.00,137.00,511.00,1050.00,684.00,896.00,,,,,,,,,,,,0,1,0,,-3668,15808,1496,-82,-21,-109
13.424,13.35,1.25,0.42,0.20,3.79,-1.55,0.80,0.70,0.64,0.32,307.00,633.00,82.00,144.00,509.00,1066.00,673.00,911.00,,,,,,,,,,,,0,1,0,,-3632,15760,1600,43,91,-194
13.464,13.41,1.24,-0.81,0.79,-1.51,1.88,1.02,0.63,1.20,0.10,304.00,654.00,75.00,162.00,509.00,1059.00,674.00,896.00,,,,,,,,,,,,0,1,0,,-3652,15688,1436,10,183,-139
13.527,13.46,1.28,0.21,0.39,11.72,-6.14,1.98,-0.44,2.13,-0.72,305.00,635.00,91.00,119.00,530.00,1049.00,693.00,883.00,,,,,,,,,,,,0,1,0,,-3588,15656,1308,-32,103,-257
13.548,13.52,1.27,1.52,-0.59,5.44,-3.20,1.08,0.68,0.96,0.38,314.00,619.00,87.00,141.00,507.00,1055.00,667.00,898.00,,,,,,,,,,,,0,1,0,,-3660,15664,1548,-166,-1,-124
13.609,13.57,1.26,0.35,0.71,1.43,0.17,1.19,0.86,1.40,0.48,299.00,626.00,78.00,151.00,501.00,1045.00,658.00,880.00,,,,,,,,,,,,0,1,0,,-3504,15612,1532,-98,81,-109
13.671,13.63,1.31,0.05,1.63,0.29,3.36,2.18,0.23,2.74,-0.33,286.00,618.00,67.00,145.00,509.00,1022.00,671.00,853.00,,,,,,,,,,,,0,1,0,,-3552,15764,1216,16,15,-222
13.733,13.68,1.32,1.85,-0.10,3.69,-0.35,1.58,0.37,1.66,-0.10,304.00,603.00,77.00,140.00,511.00,1043.00,676.00,885.00,,,,,,,,,,,,0,1,0,,-3580,15696,1444,-129,-93,-246
13.796,13.74,1.31,0.67,0.36,3.16,-0.88,0.97,1.12,1.04,0.80,303.00,624.00,80.00,145.00,496.00,1047.00,651.00,885.00,,,,,,,,,,,,0,1,0,,-3644,15660,1516,-173,89,-252
13.837,13.79,1.30,-0.36,1.64,-2.85,5.26,1.29,0.94,2.01,-0.11,288.00,628.00,64.00,156.00,498.00,1039.00,672.00,873.00,,,,,,,,,,,,0,1,0,,-3724,15720,1568,-77,280,-119
13.899,13.85,1.34,0.67,0.29,1.68,1.82,2.02,-0.18,2.08,-0.60,304.00,625.00,71.00,143.00,522.00,1040.00,689.00,882.00,,,,,,,,,,,,0,1,0,,-3592,15624,1472,-134,255,-164
13.982,13.90,1.31,0.99,-0.53,3.79,-1.55,0.80,0.63,0.62,0.30,316.00,631.00,82.00,144.00,511.00,1068.00,674.00,912.00,,,,,,,,,,,,0,1,0,,-3616,15756,1488,72,84,-162
14.003,13.96,1.30,-0.35,0.52,-1.11,1.75,1.11,0.52,1.56,-0.04,306.00,647.00,75.00,160.00,511.00,1058.00,675.00,887.00,,,,,,,,,,,,0,1,0,,-3520,15624,1512,-74,60,-147
14.044,14.01,1.33,-0.06,0.85,1.43,0.17,1.76,-0.30,3.69,-3.19,299.00,634.00,78.00,151.00,528.00,1054.00,770.00,887.00,,,,,,,,,,,,0,1,0,,-3668,15580,1468,-115,167,-214
14.105,14.07,1.30,0.63,-0.35,3.39,-0.96,0.86,0.61,0.92,0.06,315.00,637.00,80.00,144.00,511.00,1066.00,679.00,907.00,,,,,,,,,,,,0,1,0,,-3652,15704,1424,-83,97,-139
14.147,14.12,1.27,-0.56,0.71,0.36,0.77,0.61,0.98,0.55,0.66,304.00,649.00,77.00,155.00,503.00,1066.00,662.00,906.00,,,,,,,,,,,,0,1,0,,-3512,15560,1556,-94,35,-188
14.209,14.18,1.26,-0.89,1.38,-2.11,4.17,1.20,0.49,1.77,-0.44,295.00,646.00,67.00,156.00,511.00,1055.00,687.00,889.00,,,,,,,,,,,,0,1,0,,-3736,15876,1528,-48,163,-252
14.271,14.23,1.26,0.73,0.28,2.56,0.27,1.23,0.48,1.34,-0.05,304.00,624.00,76.00,144.00,511.00,1054.00,678.00,895.00,,,,,,,,,,,,0,1,0,,-3648,15564,1588,-88,132,-173
14.353,14.29,1.23,0.62,0.31,3.99,-1.84,0.66,1.15,0.78,0.77,304.00,626.00,83.00,144.00,498.00,1059.00,655.00,895.00,,,,,,,,,,,,0,1,0,,-3692,15528,1652,-139,59,-117
14.373,14.34,1.23,0.52,0.47,-0.28,1.47,1.26,0.73,1.75,-0.02,302.00,626.00,75.00,156.00,504.00,1046.00,672.00,880.00,,,,,,,,,,,,0,1,0,,-3748,15764,1492,-17,191,-151
14.435,14.40,1.27,0.73,0.28,2.54,0.03,1.89,-0.17,2.21,-0.88,304.00,624.00,77.00,145.00,523.00,1045.00,698.00,884.00,,,,,,,,,,,,0,1,0,,-3700,15724,1468,-101,202,-91
14.477,14.45,1.25,0.73,-0.15,4.75,-2.96,0.89,0.67,0.76,0.23,311.00,631.00,87.00,144.00,509.00,1063.00,675.00,909.00,,,,,,,,,,,,0,1,0,,-3692,15612,1544,-191,69,-206
14.558,14.51,1.24,-0.46,0.67,0.35,0.07,1.11,0.71,0.82,1.13,304.00,647.00,80.00,158.00,506.00,1053.00,642.00,885.00,,,,,,,,,,,,0,1,0,,-3632,15764,1608,-86,156,-64
14.599,14.56,1.25,-0.53,1.07,-0.35,3.03,1.48,0.40,2.10,-0.55,298.00,642.00,69.00,150.00,511.00,1046.00,687.00,880.00,,,,,,,,,,,,0,1,0,,-3648,15776,1720,-37,232,-174
14.641,14.62,1.25,0.36,0.40,3.59,-1.25,1.14,0.51,1.14,-0.17,304.00,631.00,81.00,144.00,511.00,1057.00,685.00,905.00,,,,,,,,,,,,0,1,0,,-3472,15480,1416,-71,55,-201
14.723,14.67,1.21,-0.41,0.72,2.27,-0.58,0.51,1.09,0.97,0.32,303.00,645.00,80.00,149.00,501.00,1067.00,669.00,899.00,,,,,,,,,,,,0,1,0,,-3716,15764,1408,-1,-95,-205
14.763,14.73,1.21,-0.68,1.12,-1.17,2.78,1.11,0.52,1.94,-0.44,298.00,645.00,71.00,156.00,511.00,1058.00,685.00,883.00,,,,,,,,,,,,0,1,0,,-3760,15588,1560,-210,-125,-282
14.804,14.78,1.21,0.68,0.05,6.19,-3.24,1.21,0.06,0.92,-0.10,308.00,629.00,86.00,137.00,523.00,1067.00,685.00,911.00,,,,,,,,,,,,0,1,0,,-3716,15636,1568,-130,-66,-235
14.866,14.84,1.19,-0.33,-0.02,2.43,-1.31,0.90,0.16,0.47,-0.00,315.00,656.00,83.00,151.00,523.00,1077.00,687.00,925.00,,,,,,,,,,,,0,1,0,,-3732,15576,1636,-133,86,-193
14.929,14.89,1.16,-0.99,0.55,-1.26,0.61,0.59,0.70,0.93,-0.16,309.00,663.00,80.00,166.00,511.00,1075.00,687.00,912.00,,,,,,,,,,,,0,1,0,,-3688,15768,1544,-98,211,-240
14.971,14.95,1.17,0.12,-0.06,0.55,-0.46,1.33,-0.05,-2.83,0.68,313.00,645.00,82.00,159.00,525.00,1065.00,703.00,1035.00,,,,,,,,,,,,0,1,0,,-3724,15644,1776,-70,211,-146
15.073,15.00,1.14,0.94,-0.68,4.15,-2.33,0.59,0.77,0.89,-0.09,319.00,635.00,85.00,145.00,509.00,1073.00,685.00,912.00,,,,,,,,,,,,0,1,0,,-3776,15660,1696,-38,133,-104
15.093,15.06,1.11,-0.66,0.80,-1.69,1.46,0.63,1.12,1.05,0.29,303.00,650.00,77.00,165.00,499.00,1061.00,669.00,897.00,,,,,,,,,,,,0,1,0,,-3712,15708,1580,-18,262,-48
15.153,15.11,1.12,-0.11,0.68,-0.96,2.71,1.14,0.51,1.89,-0.45,302.00,638.00,71.00,155.00,511.00,1057.00,686.00,885.00,,,,,,,,,,,,0,1,0,,-3652,15736,1500,-126,193,-103
15.214,15.17,1.11,0.83,0.06,2.27,-0.58,0.96,0.57,1.14,-0.17,307.00,625.00,80.00,149.00,511.00,1063.00,685.00,905.00,,,,,,,,,,,,0,1,0,,-3684,15632,1460,-137,14,-193
15.256,15.22,1.08,-0.31,0.81,4.79,-4.80,0.54,1.04,0.51,0.84,301.00,641.00,96.00,151.00,502.00,1067.00,656.00,903.00,,,,,,,,,,,,0,1,0,,-3720,15680,1524,-82,76,-61
15.318,15.28,1.08,-1.14,1.97,1.16,-0.89,1.05,0.62,1.94,-0.44,287.00,642.00,83.00,157.00,509.00,1058.00,685.00,883.00,,,,,,,,,,,,0,1,0,,-3728,15832,1732,-108,257,-158
15.38,15.33,1.06,-0.05,0.54,2.89,-1.25,0.65,0.68,1.00,-0.26,304.00,639.00,82.00,148.00,511.00,1073.00,690.00,912.00,,,,,,,,,,,,0,1,0,,-3692,15592,1268,25,108,-167
15.461,15.39,1.04,-0.40,0.47,6.59,-6.70,0.72,0.22,0.38,0.14,307.00,649.00,103.00,148.00,523.00,1083.00,683.00,925.00,,,,,,,,,,,,0,1,0,,-3756,15528,1500,59,41,-178
15.481,15.44,1.02,-1.53,0.73,-2.04,0.87,0.65,0.68,-2.01,0.86,309.00,674.00,80.00,170.00,511.00,1073.00,686.00,997.00,,,,,,,,,,,,0,1,0,,-3700,15608,1508,-168,162,-114
15.524,15.50,1.03,-0.55,0.59,0.56,-0.00,1.27,-0.28,1.76,-1.17,306.00,651.00,80.00,157.00,532.00,1074.00,715.00,907.00,,,,,,,,,,,,0,1,0,,-3584,15660,1532,-199,178,-81
15.585,15.55,1.00,0.42,-0.97,4.54,-3.92,0.42,0.33,0.39,-0.00,327.00,653.00,92.00,149.00,523.00,1093.00,688.00,928.00,,,,,,,,,,,,0,1,0,,-3648,15672,1556,-135,204,-113
15.648,15.61,0.96,-1.28,0.59,-0.26,0.27,0.22,0.82,0.36,0.28,310.00,670.00,80.00,161.00,511.00,1087.00,678.00,922.00,,,,,,,,,,,,0,1,0,,-3620,15748,1400,-32,210,-241
15.71,15.66,0.95,-0.83,1.11,-1.32,2.07,0.77,0.64,1.67,-0.38,299.00,649.00,74.00,160.00,511.00,1069.00,686.00,891.00,,,,,,,,,,,,0,1,0,,-3732,15576,1656,-84,101,-125
15.771,15.72,0.94,0.89,-0.02,4.08,-1.19,0.68,0.67,1.09,-0.18,308.00,625.00,80.00,141.00,511.00,1072.00,686.00,907.00,,,,,,,,,,,,0,1,0,,-3628,15488,1572,-72,125,-123
15.852,15.77,0.91,0.52,0.35,3.39,-0.96,0.29,1.24,0.67,0.64,304.00,628.00,80.00,144.00,499.00,1072.00,661.00,902.00,,,,,,,,,,,,0,1,0,,-3704,15660,1520,25,221,-154
15.873,15.83,0.90,-0.80,1.47,-1.81,3.26,0.80,0.66,1.22,-0.18,293.00,642.00,70.00,158.00,510.00,1067.00,684.00,902.00,,,,,,,,,,,,0,1,0,,-3676,15652,1476,-100,185,-116
15.914,15.88,0.91,-0.10,0.49,0.36,1.01,1.06,0.11,1.45,-0.55,305.00,641.00,76.00,154.00,523.00,1072.00,695.00,903.00,,,,,,,,,,,,0,1,0,,-3604,15596,1536,-44,150,-168
15.976,15.94,0.88,0.27,-0.17,3.26,-2.03,0.31,0.86,0.49,0.04,314.00,643.00,85.00,149.00,509.00,1082.00,685.00,923.00,,,,,,,,,,,,0,1,0,,-3672,15732,1416,-123,184,-53
16.036,15.99,0.86,-1.07,1.00,-2.24,0.94,0.52,0.87,1.29,-0.14,302.00,657.00,80.00,171.00,507.00,1073.00,682.00,899.00,,,,,,,,,,,,0,1,0,,-3656,15748,1396,-101,154,-182
16.097,16.05,0.87,-0.30,0.44,0.15,1.33,1.00,-0.01,1.51,-0.80,307.00,647.00,75.00,154.00,527.00,1078.00,704.00,907.00,,,,,,,,,,,,0,1,0,,-3684,15780,1376,-2,59,-204
16.138,16.10,0.85,-0.08,-0.40,3.73,-1.97,0.47,0.74,0.48,-0.06,320.00,656.00,84.00,146.00,511.00,1079.00,689.00,926.00,,,,,,,,,,,,0,1,0,,-3800,15548,1572,-100,1,-217
16.178,16.16,0.81,-1.26,0.94,-0.47,0.34,0.07,1.06,0.43,0.42,304.00,663.00,80.00,162.00,506.00,1087.00,672.00,916.00,,,,,,,,,,,,0,1,0,,-3756,15624,1704,-102,188,-97
16.24,16.21,0.82,-1.53,1.40,-3.27,4.01,1.03,-0.05,1.28,-0.38,298.00,662.00,69.00,164.00,528.00,1078.00,691.00,905.00,,,,,,,,,,,,0,1,0,,-3700,15748,1632,-107,291,-67
16.301,16.27,0.81,-0.23,-0.06,3.56,-1.47,0.69,0.16,0.53,-0.13,315.00,654.00,82.00,145.00,525.00,1086.00,691.00,926.00,,,,,,,,,,,,0,1,0,,-3616,15860,1352,-72,183,-216
16.363,16.32,0.77,-0.59,0.36,2.60,-1.81,0.02,1.25,0.44,0.44,310.00,656.00,85.00,152.00,501.00,1083.00,671.00,915.00,,,,,,,,,,,,0,1,0,,-3596,15580,1560,-37,60,-162
16.404,16.38,0.77,-0.77,1.03,-0.47,0.57,0.68,0.67,1.12,-0.06,300.00,649.00,79.00,161.00,511.00,1072.00,681.00,903.00,,,,,,,,,,,,0,1,0,,-3712,15548,1536,-140,219,-236
16.485,16.43,0.79,-0.20,0.59,1.19,-0.22,1.24,-0.13,1.54,-0.60,304.00,642.00,80.00,154.00,528.00,1071.00,696.00,901.00,,,,,,,,,,,,0,1,0,,-3672,15820,1476,-23,49,-69
16.547,16.49,0.77,0.63,-0.69,4.36,-3.66,0.38,0.77,0.27,0.17,321.00,643.00,91.00,149.00,511.00,1082.00,683.00,928.00,,,,,,,,,,,,0,1,0,,-3688,15796,1732,41,78,-74
16.568,16.54,0.76,-1.26,0.94,-1.86,1.04,0.46,0.96,0.71,0.38,304.00,663.00,79.00,168.00,505.00,1073.00,670.00,907.00,,,,,,,,,,,,0,1,0,,-3672,15584,1620,-97,233,-208
16.63,16.60,0.79,-0.61,0.73,0.57,0.23,1.39,-0.18,1.73,-0.59,304.00,650.00,79.00,156.00,528.00,1066.00,693.00,894.00,,,,,,,,,,,,0,1,0,,-3628,15628,1540,-199,294,-16
16.69,16.65,0.78,-0.14,0.09,2.49,-0.65,0.68,0.67,0.70,0.03,312.00,649.00,80.00,148.00,511.00,1072.00,683.00,916.00,,,,,,,,,,,,0,1,0,,-3660,15776,1480,-87,255,-104
16.732,16.71,0.76,-0.96,0.84,0.15,0.13,0.37,0.95,0.57,0.45,304.00,657.00,80.00,159.00,506.00,1077.00,669.00,910.00,,,,,,,,,,,,0,1,0,,-3680,15648,1392,-119,37,-157
16.794,16.76,0.78,-1.33,1.34,-2.81,4.96,1.02,0.19,1.55,-0.37,298.00,658.00,65.00,157.00,521.00,1071.00,687.00,895.00,,,,,,,,,,,,0,1,0,,-3676,15668,1596,-41,-22,-212
16.856,16.82,0.79,-0.29,0.32,0.57,1.18,1.00,0.06,1.05,-0.41,309.00,649.00,75.00,152.00,525.00,1076.00,695.00,914.00,,,,,,,,,,,,0,1,0,,-3692,15608,1648,-81,83,-85
16.919,16.87,0.78,-0.28,-0.10,1.92,-2.01,0.57,0.20,0.01,0.15,316.00,656.00,87.00,157.00,525.00,1090.00,687.00,938.00,,,,,,,,,,,,0,1,0,,-3600,15588,1548,-134,218,-146
16.98,16.93,0.75,-1.33,0.55,-1.82,-0.32,0.22,0.82,1.04,-0.35,311.00,672.00,85.00,174.00,511.00,1087.00,693.00,913.00,,,,,,,,,,,,0,1,0,,-3632,15736,1624,-112,118,-287
17.021,16.98,0.79,-0.15,0.51,1.39,-0.51,1.55,-0.23,1.73,-0.88,305.00,642.00,81.00,154.00,528.00,1061.00,704.00,901.00,,,,,,,,,,,,0,1,0,,-3756,15612,1556,-132,-54,-130
17.082,17.04,0.78,0.68,-0.60,2.68,-2.89,0.56,0.74,0.42,0.39,319.00,640.00,90.00,156.00,510.00,1075.00,673.00,917.00,,,,,,,,,,,,0,1,0,,-3636,15544,1780,13,146,-140
17.124,17.09,0.77,-1.12,1.08,0.14,-0.32,0.64,0.97,1.17,0.28,301.00,657.00,82.00,161.00,503.00,1065.00,668.00,893.00,,,,,,,,,,,,0,1,0,,-3676,15576,1660,-60,135,-218
17.185,17.15,0.81,-0.63,1.04,0.99,0.08,1.64,-0.16,1.72,-0.45,299.00,645.00,79.00,154.00,525.00,1055.00,688.00,891.00,,,,,,,,,,,,0,1,0,,-3792,15712,1424,-20,97,-168
17.289,17.20,0.81,0.47,0.24,3.39,-0.96,0.77,0.64,1.01,-0.02,306.00,631.00,80.00,144.00,511.00,1069.00,681.00,906.00,,,,,,,,,,,,0,1,0,,-3776,15588,1636,-47,175,-69
17.31,17.26,0.89,-0.46,0.67,1.39,-0.51,2.31,-1.74,0.37,0.80,304.00,647.00,81.00,154.00,565.00,1072.00,659.00,909.00,,,,,,,,,,,,0,1,0,,-3640,15680,1424,-94,261,-79
17.35,17.31,0.89,-1.62,1.94,-3.38,4.87,0.95,0.76,1.78,-0.42,290.00,655.00,66.00,161.00,506.00,1058.00,686.00,888.00,,,,,,,,,,,,0,1,0,,-3676,15644,1520,17,176,-130
17.392,17.37,0.91,-0.30,0.50,2.27,-0.58,1.21,0.10,1.07,-0.37,306.00,646.00,80.00,149.00,522.00,1066.00,693.00,912.00,,,,,,,,,,,,0,1,0,,-3772,15696,1580,12,-2,-169
17.453,17.42,0.88,-0.28,-0.10,1.87,-2.42,0.35,0.78,0.21,0.38,316.00,656.00,89.00,159.00,511.00,1083.00,676.00,925.00,,,,,,,,,,,,0,1,0,,-3772,15544,1612,-16,178,-124
17.515,17.48,0.86,-1.74,0.98,-3.38,1.55,0.46,0.96,1.07,-0.23,306.00,675.00,79.00,176.00,505.00,1073.00,688.00,909.00,,,,,,,,,,,,0,1,0,,-3672,15568,1536,-133,274,-80
17.556,17.53,0.88,-0.80,0.61,0.35,0.07,1.39,-0.35,1.54,-1.05,307.00,657.00,80.00,158.00,533.00,1071.00,713.00,912.00,,,,,,,,,,,,0,1,0,,-3684,15784,1468,-202,164,-206
17.658,17.59,0.87,0.58,-0.68,2.34,-2.15,0.53,0.72,0.74,0.04,321.00,644.00,87.00,155.00,511.00,1077.00,682.00,914.00,,,,,,,,,,,,0,1,0,,-3748,15584,1596,-62,1,-150
17.678,17.64,0.85,-0.76,0.78,-0.67,0.41,0.57,1.14,1.18,0.30,304.00,653.00,80.00,163.00,499.00,1063.00,667.00,892.00,,,,,,,,,,,,0,1,0,,-3720,15572,1540,-63,21,-137
17.721,17.70,0.89,-0.48,1.18,-1.37,2.85,1.58,0.40,2.08,-0.30,296.00,639.00,71.00,157.00,510.00,1042.00,678.00,875.00,,,,,,,,,,,,0,1,0,,-3776,15772,1688,25,130,-54
17.783,17.75,0.90,0.67,0.29,3.64,-0.81,1.23,0.48,1.26,-0.11,304.00,625.00,79.00,142.00,511.00,1054.00,681.00,899.00,,,,,,,,,,,,0,1,0,,-3696,15540,1576,-91,207,-137
17.843,17.81,0.90,-0.25,0.61,3.01,-2.16,0.79,0.88,0.51,0.84,304.00,643.00,86.00,151.00,504.00,1061.00,656.00,903.00,,,,,,,,,,,,0,1,0,,-3760,15612,1624,-93,189,-242
17.885,17.86,0.92,-1.18,1.85,-1.19,3.05,1.26,0.76,1.83,-0.27,289.00,645.00,70.00,155.00,503.00,1045.00,680.00,883.00,,,,,,,,,,,,0,1,0,,-3588,15672,1504,-97,112,-70
17.947,17.92,1.00,0.16,0.29,1.19,-0.22,2.66,-1.69,1.55,-0.37,307.00,638.00,80.00,154.00,560.00,1056.00,687.00,895.00,,,,,,,,,,,,0,1,0,,-3648,15788,1436,-107,153,-179
18.029,17.97,0.98,0.22,-0.33,3.01,-2.16,0.61,0.87,0.62,0.30,317.00,647.00,86.00,151.00,506.00,1069.00,674.00,912.00,,,,,,,,,,,,0,1,0,,-3620,15556,1520,64,86,-196
18.049,18.03,0.98,-1.26,0.94,-2.03,0.41,0.95,0.65,1.14,0.07,304.00,663.00,82.00,172.00,509.00,1061.00,676.00,899.00,,,,,,,,,,,,0,1,0,,-3732,15608,1552,20,28,-214
18.111,18.08,1.02,-0.91,0.83,-1.31,1.82,1.64,-0.26,2.12,-1.03,304.00,656.00,75.00,161.00,528.00,1058.00,705.00,891.00,,,,,,,,,,,,0,1,0,,-3788,15560,1676,13,183,-87
18.172,18.14,1.00,0.58,-0.79,4.85,-3.62,0.68,0.67,0.68,0.17,323.00,646.00,90.00,146.00,511.00,1072.00,678.00,913.00,,,,,,,,,,,,0,1,0,,-3620,15704,1404,-74,302,-156
18.234,18.19,0.97,-0.45,0.49,1.75,-1.53,0.50,1.28,0.86,0.61,307.00,650.00,85.00,156.00,496.00,1062.00,660.00,896.00,,,,,,,,,,,,0,1,0,,-3720,15572,1552,-129,88,-246
18.297,18.25,1.01,-0.59,1.27,-3.88,5.61,1.64,0.42,2.46,-0.48,295.00,640.00,64.00,161.00,509.00,1039.00,680.00,866.00,,,,,,,,,,,,0,1,0,,-3576,15668,1640,-57,-20,-138
18.421,18.30,1.02,0.83,0.24,3.19,-0.66,1.32,0.60,1.61,-0.11,304.00,622.00,79.00,144.00,507.00,1047.00,677.00,887.00,,,,,,,,,,,,0,1,0,,-3608,15572,1288,-108,124,-164
18.442,18.36,1.02,0.57,0.27,1.84,-0.43,0.90,1.33,1.35,0.55,305.00,628.00,80.00,151.00,491.00,1044.00,656.00,880.00,,,,,,,,,,,,0,1,0,,-3756,15696,1440,-118,23,-102
18.462,18.41,1.04,-0.43,1.10,0.36,0.77,1.42,0.71,1.65,0.12,297.00,639.00,77.00,155.00,503.00,1040.00,668.00,880.00,,,,,,,,,,,,0,1,0,,-3688,15724,1684,-167,86,-247
18.504,18.47,1.09,0.21,0.39,0.79,1.11,2.14,-0.25,2.24,-0.76,305.00,635.00,75.00,151.00,523.00,1037.00,693.00,880.00,,,,,,,,,,,,0,1,0,,-3676,15712,1644,-110,258,-57
18.546,18.52,1.09,0.63,-0.64,6.12,-5.24,1.11,0.67,0.49,0.54,320.00,642.00,96.00,145.00,507.00,1054.00,667.00,911.00,,,,,,,,,,,,0,1,0,,-3628,15656,1564,-117,221,-118
18.607,18.58,1.09,-0.46,0.67,-0.26,0.27,1.00,1.07,1.62,0.07,304.00,647.00,80.00,161.00,497.00,1047.00,670.00,882.00,,,,,,,,,,,,0,1,0,,-3656,15740,1412,-5,119,-165
18.668,18.63,1.14,-0.25,0.61,-1.17,2.78,2.17,-0.40,2.40,-0.94,304.00,643.00,71.00,156.00,527.00,1040.00,698.00,879.00,,,,,,,,,,,,0,1,0,,-3580,15668,1408,61,17,-176
18.79,18.69,1.15,0.16,0.23,3.54,-1.69,1.33,0.45,1.28,-0.00,308.00,639.00,83.00,146.00,511.00,1051.00,677.00,896.00,,,,,,,,,,,,0,1,0,,-3684,15660,1464,-107,75,-166
18.81,18.74,1.14,-0.71,0.70,0.55,-0.23,0.97,1.01,0.95,0.52,305.00,653.00,81.00,158.00,499.00,1050.00,662.00,895.00,,,,,,,,,,,,0,1,0,,-3596,15568,1552,-112,132,-83
18.852,18.80,1.17,-1.09,1.38,-3.34,4.58,1.67,0.33,2.29,-0.61,296.00,651.00,67.00,162.00,511.00,1040.00,687.00,875.00,,,,,,,,,,,,0,1,0,,-3688,15728,1796,-210,221,-267
18.913,18.85,1.19,0.94,0.08,3.39,-0.96,1.64,0.34,1.78,-0.12,306.00,622.00,80.00,144.00,511.00,1041.00,675.00,881.00,,,,,,,,,,,,0,1,0,,-3828,15504,1616,-8,66,-46
18.934,18.91,1.21,0.47,0.36,2.92,-1.03,1.54,0.71,1.37,0.41,304.00,629.00,81.00,147.00,502.00,1035.00,661.00,883.00,,,,,,,,,,,,0,1,0,,-3664,15536,1668,76,67,-28
18.997,18.96,1.23,-0.32,1.00,-1.26,0.61,1.64,0.71,1.90,0.01,298.00,638.00,80.00,166.00,501.00,1031.00,669.00,874.00,,,,,,,,,,,,0,1,0,,-3592,15764,1568,-135,206,-206
19.06,19.02,1.28,0.41,0.50,2.10,0.18,2.28,0.13,2.65,-0.76,302.00,628.00,77.00,147.00,511.00,1021.00,688.00,866.00,,,,,,,,,,,,0,1,0,,-3712,15628,1416,-17,158,-145
19.121,19.07,1.29,-0.03,-0.12,4.71,-4.18,1.45,0.59,1.32,0.23,315.00,650.00,93.00,149.00,506.00,1042.00,668.00,889.00,,,,,,,,,,,,0,1,0,,-3656,15532,1576,-140,102,-172
19.161,19.13,1.32,-0.82,0.98,-1.50,1.64,1.79,0.81,2.09,0.03,301.00,651.00,76.00,163.00,497.00,1022.00,666.00,867.00,,,,,,,,,,,,0,1,0,,-3592,15584,1368,-190,142,-111
19.202,19.18,1.36,0.05,0.63,3.20,-2.44,2.21,0.30,2.66,-0.61,302.00,635.00,87.00,151.00,507.00,1019.00,682.00,862.00,,,,,,,,,,,,0,1,0,,-3632,15732,1640,-132,38,-139
19.265,19.24,1.38,0.73,0.22,2.77,-0.04,1.73,0.60,1.71,-0.09,305.00,625.00,77.00,144.00,503.00,1030.00,675.00,883.00,,,,,,,,,,,,0,1,0,,-3804,15776,1568,-141,73,-220
19.327,19.29,1.37,-0.46,0.67,2.24,-1.02,1.19,1.08,1.19,0.49,304.00,647.00,82.00,151.00,495.00,1039.00,660.00,887.00,,,,,,,,,,,,0,1,0,,-3748,15536,1608,-101,87,-227
19.388,19.35,1.41,-1.12,1.70,-1.97,2.79,2.18,0.20,3.14,-1.35,291.00,646.00,72.00,161.00,510.00,1023.00,704.00,863.00,,,,,,,,,,,,0,1,0,,-3736,15588,1592,-144,100,-111
19.428,19.40,1.42,0.84,-0.24,3.62,-1.03,1.67,0.33,1.94,-0.52,312.00,630.00,80.00,143.00,511.00,1040.00,688.00,885.00,,,,,,,,,,,,0,1,0,,-3604,15636,1616,-188,198,-105
19.489,19.46,1.41,-0.24,0.18,0.92,-1.25,1.20,0.67,1.38,-0.20,311.00,650.00,85.00,160.00,506.00,1050.00,683.00,897.00,,,,,,,,,,,,0,1,0,,-3808,15880,1496,-68,249,-268
19.551,19.51,1.45,-0.42,0.84,2.83,-5.44,2.12,0.29,2.58,-0.44,301.00,643.00,103.00,166.00,508.00,1023.00,677.00,861.00,,,,,,,,,,,,0,1,0,,-3624,15628,1684,-129,55,-139
19.613,19.57,1.51,0.57,0.33,0.78,0.39,2.78,-0.54,2.94,-1.02,304.00,627.00,78.00,154.00,525.00,1019.00,694.00,862.00,,,,,,,,,,,,0,1,0,,-3620,15584,1868,-36,116,-118
19.696,19.62,1.51,1.15,-0.52,3.96,-3.32,1.44,0.85,1.66,-0.02,315.00,627.00,90.00,150.00,499.00,1035.00,673.00,883.00,,,,,,,,,,,,0,1,0,,-3608,15712,1564,-18,238,-181
19.737,19.68,1.53,-0.74,1.26,-0.87,0.25,1.86,0.82,2.00,0.19,296.00,644.00,81.00,165.00,496.00,1019.00,661.00,866.00,,,,,,,,,,,,0,1,0,,-3676,15596,1468,28,117,-159
19.758,19.73,1.58,0.09,0.92,-3.14,4.51,2.57,0.18,3.01,-0.50,297.00,629.00,67.00,161.00,507.00,1008.00,674.00,848.00,,,,,,,,,,,,0,1,0,,-3724,15548,1564,-26,140,-128
19.86,19.79,1.61,0.99,0.19,3.39,-0.96,2.24,0.25,2.12,-0.15,304.00,619.00,80.00,144.00,508.00,1019.00,672.00,870.00,,,,,,,,,,,,0,1,0,,-3692,15696,1692,-134,276,-104
19.88,19.84,1.59,0.11,0.36,0.98,-0.15,1.19,1.05,1.43,0.53,306.00,638.00,80.00,155.00,496.00,1040.00,656.00,878.00,,,,,,,,,,,,0,1,0,,-3720,15708,1528,-8,227,-163
19.92,19.90,1.64,-0.75,1.52,-0.91,1.93,2.47,0.21,3.02,-0.62,292.00,640.00,74.00,158.00,507.00,1011.00,678.00,850.00,,,,,,,,,,,,0,1,0,,-3616,15700,1428,45,61,-159
20.043,19.95,1.66,0.37,0.22,2.75,-0.27,2.21,0.15,2.92,-1.33,307.00,634.00,78.00,145.00,511.00,1023.00,706.00,870.00,,,,,,,,,,,,0,1,0,,-3728,15540,1456,-149,37,-218
20.063,20.01,1.66,0.58,-0.45,3.60,-4.00,1.51,0.46,0.36,1.23,317.00,640.00,94.00,155.00,509.00,1043.00,644.00,899.00,,,,,,,,,,,,0,1,0,,-3708,15628,1648,-260,76,-101
20.084,20.06,1.65,-0.91,0.83,2.26,-0.80,1.48,0.76,2.01,-0.41,304.00,656.00,81.00,150.00,501.00,1036.00,683.00,880.00,,,,,,,,,,,,0,1,0,,-3628,15720,1788,-98,222,-88
20.147,20.12,1.69,-0.50,0.51,0.77,-0.08,2.39,-0.51,2.49,-1.16,307.00,651.00,80.00,156.00,528.00,1034.00,705.00,881.00,,,,,,,,,,,,0,1,0,,-3640,15672,1720,164,267,-103
20.23,20.17,1.65,0.78,-1.03,4.84,-4.62,1.01,0.66,1.18,-0.11,326.00,645.00,95.00,150.00,508.00,1058.00,682.00,902.00,,,,,,,,,,,,0,1,0,,-3660,15752,1464,95,172,-277
20.251,20.23,1.64,0.00,0.52,-0.87,0.48,1.44,0.89,1.84,0.22,304.00,638.00,80.00,164.00,498.00,1034.00,662.00,871.00,,,,,,,,,,,,0,1,0,,-3748,15552,1476,68,15,-130
20.332,20.28,1.68,-0.08,1.23,0.78,0.39,2.41,0.41,3.01,-0.50,293.00,628.00,78.00,154.00,502.00,1008.00,674.00,848.00,,,,,,,,,,,,0,1,0,,-3712,15480,1680,-122,31,-127
20.393,20.34,1.72,0.94,0.27,2.94,-0.80,2.40,0.16,2.54,-0.51,303.00,619.00,80.00,146.00,509.00,1015.00,680.00,864.00,,,,,,,,,,,,0,1,0,,-3856,15708,1572,-88,254,-130
20.435,20.39,1.72,0.30,0.66,1.79,-1.10,1.73,0.94,2.12,0.24,300.00,628.00,83.00,154.00,494.00,1021.00,658.00,861.00,,,,,,,,,,,,0,1,0,,-3704,15608,1508,-100,210,-121
20.497,20.45,1.74,0.58,-0.03,-2.22,3.40,2.28,0.53,3.14,-0.66,310.00,633.00,70.00,160.00,500.00,1010.00,678.00,847.00,,,,,,,,,,,,0,1,0,,-3708,15636,1648,-60,155,-183
20.598,20.50,1.80,0.62,0.25,4.08,-1.19,2.78,-0.47,2.77,-0.80,305.00,627.00,80.00,141.00,523.00,1017.00,688.00,863.00,,,,,,,,,,,,0,1,0,,-3820,15692,1480,-39,203,-56
20.619,20.56,1.80,0.63,-0.41,2.55,-2.22,1.86,0.27,1.89,-0.24,316.00,638.00,87.00,154.00,511.00,1034.00,678.00,880.00,,,,,,,,,,,,0,1,0,,-3628,15720,1408,72,170,-127
20.66,20.61,1.81,-0.93,1.14,-2.62,1.06,2.08,0.34,2.32,-0.27,299.00,651.00,80.00,173.00,507.00,1023.00,674.00,866.00,,,,,,,,,,,,0,1,0,,-3608,15604,1328,-53,54,-180
20.721,20.67,1.86,-0.10,0.56,-2.05,3.60,2.74,-0.60,3.02,-1.26,304.00,640.00,69.00,158.00,527.00,1022.00,702.00,865.00,,,,,,,,,,,,0,1,0,,-3644,15616,1524,-53,37,-200
20.763,20.72,1.86,0.99,-0.76,3.41,-2.51,1.80,0.29,1.76,-0.30,320.00,635.00,87.00,150.00,511.00,1036.00,682.00,886.00,,,,,,,,,,,,0,1,0,,-3664,15648,1456,-99,164,-176
20.826,20.78,1.84,-0.41,0.66,-0.47,0.11,1.58,0.55,1.58,0.23,304.00,646.00,81.00,163.00,506.00,1038.00,665.00,880.00,,,,,,,,,,,,0,1,0,,-3732,15612,1484,-274,70,-174
20.886,20.83,1.84,-0.86,1.62,-2.15,2.60,1.86,0.27,2.84,-0.83,291.00,641.00,73.00,163.00,511.00,1034.00,688.00,861.00,,,,,,,,,,,,0,1,0,,-3672,15816,1500,24,164,-131
20.947,20.89,1.85,0.11,0.30,3.36,-1.18,1.92,-0.14,1.72,-0.45,307.00,639.00,81.00,145.00,522.00,1043.00,688.00,891.00,,,,,,,,,,,,0,1,0,,-3644,15716,1504,-77,180,-193
21.008,20.94,1.81,0.01,0.22,-0.67,0.18,1.16,0.98,1.59,0.08,309.00,643.00,81.00,164.00,498.00,1043.00,670.00,883.00,,,,,,,,,,,,0,1,0,,-3664,15636,1480,-114,46,-274
21.049,21.00,1.83,-0.19,1.33,-0.87,0.71,2.08,0.49,2.53,-0.37,292.00,629.00,79.00,163.00,503.00,1019.00,675.00,861.00,,,,,,,,,,,,0,1,0,,-3748,15600,1624,-100,-12,-79
21.091,21.05,1.86,0.57,0.45,0.35,0.07,2.53,0.04,2.73,-1.06,302.00,625.00,80.00,158.00,511.00,1013.00,698.00,870.00,,,,,,,,,,,,0,1,0,,-3588,15668,1796,-76,216,-117
21.131,21.11,1.79,1.20,-0.54,5.16,-4.33,0.33,1.08,1.71,-0.01,315.00,626.00,93.00,147.00,503.00,1075.00,672.00,881.00,,,,,,,,,,,,0,1,0,,-3656,15696,1608,-97,241,-192
21.193,21.16,1.79,-0.83,1.11,-2.24,0.94,1.92,0.80,2.20,0.07,299.00,649.00,80.00,171.00,496.00,1017.00,663.00,862.00,,,,,,,,,,,,0,1,0,,-3648,15680,1612,5,122,-155
21.255,21.22,1.81,0.41,0.69,1.19,-0.22,2.11,0.66,3.36,-1.24,299.00,625.00,80.00,154.00,498.00,1013.00,697.00,853.00,,,,,,,,,,,,0,1,0,,-3680,15584,1672,-108,168,-103
21.357,21.27,1.83,0.73,0.28,1.81,-0.88,2.24,0.18,2.04,-0.21,304.00,624.00,82.00,153.00,510.00,1021.00,675.00,874.00,,,,,,,,,,,,0,1,0,,-3636,15668,1616,-69,197,-116
21.399,21.33,1.83,0.16,0.47,0.77,-0.08,1.73,0.94,2.14,0.12,304.00,635.00,80.00,156.00,494.00,1021.00,662.00,863.00,,,,,,,,,,,,0,1,0,,-3636,15688,1336,2,144,-188
21.419,21.38,1.85,-0.79,1.98,-2.32,4.24,2.41,0.23,2.87,-0.57,285.00,633.00,67.00,157.00,507.00,1013.00,678.00,854.00,,,,,,,,,,,,0,1,0,,-3732,15656,1552,-1,34,-194
21.461,21.44,1.87,0.89,0.04,3.39,-0.96,2.21,0.15,2.19,-0.63,307.00,624.00,80.00,144.00,511.00,1023.00,689.00,879.00,,,,,,,,,,,,0,1,0,,-3716,15624,1668,19,136,-166
21.523,21.49,1.84,-0.20,0.59,2.65,-3.09,1.32,0.82,1.37,0.41,304.00,642.00,91.00,157.00,501.00,1041.00,661.00,883.00,,,,,,,,,,,,0,1,0,,-3612,15544,1612,-175,142,-145
21.607,21.55,1.83,-0.56,0.71,-0.87,0.48,1.64,0.56,2.21,-0.59,304.00,649.00,80.00,164.00,505.00,1035.00,687.00,877.00,,,,,,,,,,,,0,1,0,,-3764,15728,1664,-83,134,-156
21.627,21.60,1.84,-0.35,0.58,0.35,0.07,2.01,-0.39,2.47,-1.18,305.00,646.00,80.00,158.00,528.00,1046.00,706.00,882.00,,,,,,,,,,,,0,1,0,,-3696,15580,1696,-110,99,-146
21.688,21.66,1.81,0.37,-0.55,3.32,-3.11,1.20,0.49,0.90,-0.15,320.00,647.00,90.00,153.00,511.00,1055.00,687.00,913.00,,,,,,,,,,,,0,1,0,,-3620,15712,1488,49,215,-184
21.75,21.71,1.80,-0.95,0.72,-2.24,0.94,1.58,0.55,2.14,-0.35,306.00,659.00,80.00,171.00,506.00,1038.00,679.00,874.00,,,,,,,,,,,,0,1,0,,-3764,15608,1632,-102,102,-240
21.811,21.77,1.82,-0.30,1.49,-1.12,2.00,2.21,0.15,3.14,-1.01,290.00,629.00,74.00,159.00,511.00,1023.00,691.00,855.00,,,,,,,,,,,,0,1,0,,-3776,15604,1580,-123,61,-111
21.853,21.82,1.82,0.18,1.27,3.16,-0.88,1.92,0.58,2.23,-0.49,291.00,621.00,80.00,145.00,502.00,1023.00,683.00,874.00,,,,,,,,,,,,0,1,0,,-3728,15780,1548,29,240,-160
21.916,21.88,1.83,0.46,0.67,1.84,-0.43,1.89,0.81,2.11,0.30,299.00,624.00,80.00,151.00,496.00,1018.00,656.00,860.00,,,,,,,,,,,,0,1,0,,-3820,15588,1576,-111,160,-206
21.979,21.93,1.87,-0.03,1.34,-3.14,4.51,2.60,0.24,3.16,-0.69,291.00,625.00,67.00,161.00,505.00,1005.00,679.00,847.00,,,,,,,,,,,,0,1,0,,-3748,15720,1468,-95,84,-165
22.08,21.99,1.90,1.10,0.27,2.13,0.91,2.50,0.05,2.61,-0.61,302.00,615.00,74.00,144.00,511.00,1014.00,683.00,864.00,,,,,,,,,,,,0,1,0,,-3724,15660,1532,-121,175,-114
22.1,22.04,1.89,0.51,0.53,0.28,-3.84,1.83,0.72,2.19,-0.48,301.00,625.00,99.00,176.00,499.00,1023.00,683.00,875.00,,,,,,,,,,,,0,1,0,,-3752,15668,1448,-131,135,-143
22.141,22.10,1.89,-0.15,0.57,-1.08,1.01,1.86,0.67,2.51,-0.55,304.00,641.00,78.00,163.00,500.00,1023.00,682.00,866.00,,,,,,,,,,,,0,1,0,,-3760,15644,1548,9,172,-129
22.183,22.15,1.93,0.57,0.27,1.23,0.96,2.71,-0.59,2.87,-1.26,305.00,628.00,75.00,149.00,527.00,1023.00,704.00,870.00,,,,,,,,,,,,0,1,0,,-3740,15576,1532,11,129,-127
22.244,22.21,1.91,0.68,-0.48,3.89,-2.46,1.55,0.45,1.46,-0.36,317.00,638.00,86.00,147.00,509.00,1042.00,688.00,898.00,,,,,,,,,,,,0,1,0,,-3608,15712,1444,-71,227,-118
22.306,22.26,1.89,-0.97,1.03,-1.07,0.54,1.48,0.73,1.73,-0.05,301.00,654.00,80.00,165.00,502.00,1037.00,673.00,881.00,,,,,,,,,,,,0,1,0,,-3656,15820,1660,-1,189,-89
22.388,22.32,1.90,-0.48,1.05,-2.85,5.26,2.12,0.29,2.28,-0.77,298.00,641.00,64.00,156.00,508.00,1023.00,693.00,879.00,,,,,,,,,,,,0,1,0,,-3644,15568,1476,-132,96,-151
22.428,22.37,1.89,0.47,0.00,4.08,-2.74,1.54,0.52,1.87,-0.50,310.00,635.00,87.00,147.00,507.00,1040.00,688.00,887.00,,,,,,,,,,,,0,1,0,,-3704,15568,1436,-86,76,-176
22.448,22.43,1.85,-0.19,0.28,2.00,-1.17,1.13,0.92,0.97,0.24,309.00,647.00,83.00,153.00,500.00,1046.00,672.00,901.00,,,,,,,,,,,,0,1,0,,-3764,15652,1584,-195,47,-107
22.51,22.48,1.84,-1.46,1.76,-1.84,3.53,1.61,0.35,2.17,-0.66,292.00,654.00,69.00,157.00,511.00,1042.00,690.00,880.00,,,,,,,,,,,,0,1,0,,-3672,15864,1496,-180,221,-168
22.571,22.54,1.83,0.09,0.86,3.16,-0.88,1.67,0.33,2.16,-0.60,298.00,630.00,80.00,145.00,511.00,1040.00,688.00,879.00,,,,,,,,,,,,0,1,0,,-3660,15648,1716,-233,185,-220
22.612,22.59,1.82,-0.66,0.74,3.45,-2.31,1.67,0.37,1.78,-0.28,304.00,651.00,86.00,149.00,510.00,1039.00,681.00,885.00,,,,,,,,,,,,0,1,0,,-3776,15736,1612,-88,93,-133
22.694,22.65,1.84,-0.70,1.44,0.35,0.07,2.15,0.32,2.39,-0.60,293.00,640.00,80.00,158.00,507.00,1021.00,685.00,871.00,,,,,,,,,,,,0,1,0,,-3692,15708,1704,42,258,-130
22.735,22.70,1.88,0.62,0.43,1.43,0.17,2.62,-0.38,3.13,-1.43,302.00,624.00,78.00,151.00,522.00,1021.00,707.00,865.00,,,,,,,,,,,,0,1,0,,-3684,15548,1528,35,139,-174
22.797,22.76,1.86,1.04,-0.13,4.30,-2.81,1.57,0.58,1.55,-0.37,309.00,623.00,87.00,146.00,505.00,1037.00,687.00,895.00,,,,,,,,,,,,0,1,0,,-3776,15600,1612,23,86,-215
22.899,22.81,1.86,-0.37,1.01,-1.26,0.61,1.89,0.62,1.86,0.10,298.00,639.00,80.00,166.00,501.00,1023.00,666.00,873.00,,,,,,,,,,,,0,1,0,,-3648,15548,1556,-125,189,-93
22.92,22.87,1.92,0.41,0.69,0.57,1.68,3.00,-0.65,2.87,-0.78,299.00,625.00,73.00,150.00,526.00,1013.00,686.00,859.00,,,,,,,,,,,,0,1,0,,-3708,15736,1576,-127,241,-149
22.961,22.92,1.93,1.20,0.12,3.44,-0.51,2.08,0.34,2.10,-0.55,304.00,615.00,78.00,142.00,507.00,1023.00,687.00,880.00,,,,,,,,,,,,0,1,0,,-3744,15740,1528,-46,185,-252
23.001,22.98,1.90,-0.00,0.64,2.72,-0.73,1.28,1.01,1.59,0.08,302.00,636.00,80.00,147.00,496.00,1037.00,670.00,883.00,,,,,,,,,,,,0,1,0,,-3608,15616,1412,40,22,-168
23.061,23.03,1.92,-1.21,2.25,0.55,2.46,2.31,0.12,2.81,-0.87,283.00,639.00,70.00,147.00,511.00,1020.00,690.00,863.00,,,,,,,,,,,,0,1,0,,-3808,15652,1580,-13,141,-158
23.166,23.09,1.91,0.68,0.17,2.58,0.75,1.73,0.35,1.78,-0.58,306.00,627.00,74.00,142.00,510.00,1037.00,692.00,892.00,,,,,,,,,,,,0,1,0,,-3700,15624,1516,-117,169,-97
23.186,23.14,1.89,0.11,0.06,2.26,-0.80,1.55,0.38,0.92,-0.10,311.00,643.00,81.00,150.00,511.00,1044.00,685.00,911.00,,,,,,,,,,,,0,1,0,,-3696,15612,1536,-196,141,-148
23.228,23.20,1.87,-1.02,0.98,-0.47,0.34,1.45,0.59,1.94,-0.52,302.00,656.00,80.00,162.00,506.00,1042.00,688.00,885.00,,,,,,,,,,,,0,1,0,,-3680,15584,1648,-107,83,-141
23.288,23.25,1.88,0.11,0.06,1.67,1.06,2.11,-0.42,2.14,-1.28,311.00,643.00,74.00,146.00,528.00,1043.00,714.00,896.00,,,,,,,,,,,,0,1,0,,-3744,15748,1768,-45,134,-101
23.351,23.31,1.83,0.37,-0.78,2.55,-2.22,0.99,0.56,0.91,-0.20,324.00,651.00,87.00,154.00,511.00,1062.00,689.00,914.00,,,,,,,,,,,,0,1,0,,-3632,15796,1668,-28,232,-117
23.392,23.36,1.80,-0.65,0.56,-2.53,2.47,1.16,0.87,1.49,-0.24,307.00,654.00,74.00,166.00,501.00,1046.00,683.00,894.00,,,,,,,,,,,,0,1,0,,-3692,15512,1584,-37,142,-220
23.454,23.42,1.83,0.03,1.00,-0.07,1.65,2.34,0.11,4.89,-1.44,296.00,629.00,74.00,154.00,511.00,1019.00,685.00,807.00,,,,,,,,,,,,0,1,0,,-3748,15656,1500,27,69,-130
23.558,23.47,1.83,0.99,0.19,3.46,-0.27,1.96,0.24,1.87,-0.34,304.00,619.00,77.00,141.00,511.00,1031.00,682.00,883.00,,,,,,,,,,,,0,1,0,,-3792,15584,1560,35,199,-152
23.579,23.53,1.81,0.52,0.41,2.51,-0.43,1.31,1.00,1.48,0.37,303.00,627.00,79.00,147.00,496.00,1036.00,661.00,880.00,,,,,,,,,,,,0,1,0,,-3656,15592,1360,-74,158,-160
23.62,23.58,1.82,-0.28,1.23,-0.07,1.65,2.12,0.44,2.88,-0.84,294.00,633.00,74.00,154.00,504.00,1019.00,688.00,860.00,,,,,,,,,,,,0,1,0,,-3736,15660,1620,-81,100,-144
23.702,23.64,1.84,0.67,0.36,1.22,0.48,2.24,0.14,2.34,-0.90,303.00,624.00,77.00,151.00,511.00,1022.00,697.00,880.00,,,,,,,,,,,,0,1,0,,-3756,15588,1436,-157,170,-159
23.724,23.69,1.82,0.63,0.13,3.99,-1.84,1.42,0.71,1.21,-0.12,307.00,629.00,83.00,144.00,503.00,1040.00,682.00,901.00,,,,,,,,,,,,0,1,0,,-3676,15716,1520,-68,189,-140
23.784,23.75,1.81,-0.26,0.73,-2.92,2.61,1.61,0.65,2.09,-0.57,302.00,641.00,74.00,168.00,503.00,1034.00,688.00,881.00,,,,,,,,,,,,0,1,0,,-3724,15656,1484,-33,65,-200
23.825,23.80,1.82,1.04,0.05,1.23,1.46,2.05,-0.19,2.63,-1.28,306.00,620.00,73.00,147.00,522.00,1039.00,708.00,879.00,,,,,,,,,,,,0,1,0,,-3832,15564,1444,32,4,-193
23.927,23.86,1.79,0.99,-0.87,3.59,-1.25,1.20,0.82,1.10,-0.16,322.00,637.00,81.00,144.00,502.00,1046.00,685.00,906.00,,,,,,,,,,,,0,1,0,,-3752,15484,1632,-114,104,-141
23.949,23.91,1.76,-0.31,0.69,0.78,0.39,1.19,0.90,1.43,-0.03,303.00,643.00,78.00,154.00,500.00,1044.00,676.00,891.00,,,,,,,,,,,,0,1,0,,-3736,15632,1536,-218,202,-123
24.01,23.97,1.76,-0.26,0.73,-1.47,3.95,1.70,0.32,2.33,-0.84,302.00,641.00,67.00,153.00,511.00,1039.00,695.00,879.00,,,,,,,,,,,,0,1,0,,-3672,15688,1728,-104,165,-106
24.071,24.02,1.74,0.53,-0.25,6.18,-5.07,1.39,0.43,1.15,-0.39,314.00,638.00,95.00,144.00,511.00,1049.00,693.00,910.00,,,,,,,,,,,,0,1,0,,-3732,15672,1672,-32,102,-106
24.133,24.08,1.70,-0.86,0.75,2.05,-0.51,0.95,0.68,0.70,0.36,305.00,656.00,80.00,150.00,508.00,1060.00,671.00,908.00,,,,,,,,,,,,0,1,0,,-3604,15624,1524,-49,200,-131
24.174,24.13,1.71,-2.34,1.49,-1.31,4.46,1.95,-0.30,1.65,-0.72,301.00,682.00,65.00,150.00,526.00,1046.00,699.00,900.00,,,,,,,,,,,,0,1,0,,-3812,15644,1508,-58,183,-276
24.278,24.19,1.68,-0.15,0.51,0.15,0.13,1.11,0.52,2.02,-0.90,305.00,642.00,80.00,159.00,511.00,1058.00,701.00,891.00,,,,,,,,,,,,0,1,0,,-3664,15440,1460,-103,40,-108
24.299,24.24,1.65,1.04,-0.49,3.06,-1.75,1.07,0.83,1.19,-0.08,315.00,629.00,84.00,149.00,503.00,1051.00,681.00,901.00,,,,,,,,,,,,0,1,0,,-3828,15604,1636,-54,136,-128
24.341,24.30,1.63,-0.94,1.39,0.36,0.30,1.29,0.90,1.96,-0.34,295.00,647.00,79.00,157.00,499.00,1040.00,681.00,880.00,,,,,,,,,,,,0,1,0,,-3704,15744,1548,-134,289,-131
24.382,24.35,1.69,0.36,0.46,0.54,2.73,2.74,-0.56,2.62,-1.23,303.00,630.00,69.00,146.00,526.00,1021.00,706.00,878.00,,,,,,,,,,,,0,1,0,,-3588,15652,1528,-62,158,-102
24.443,24.41,1.67,1.56,-0.95,4.94,-3.24,1.29,0.68,1.41,-0.16,320.00,624.00,88.00,144.00,505.00,1046.00,681.00,895.00,,,,,,,,,,,,0,1,0,,-3676,15524,1640,-59,110,-187
24.505,24.46,1.66,-0.11,0.68,1.23,1.72,1.38,0.76,1.67,0.08,302.00,638.00,72.00,146.00,502.00,1040.00,669.00,880.00,,,,,,,,,,,,0,1,0,,-3676,15800,1652,-130,130,-105
24.546,24.52,1.68,-0.17,1.01,-7.22,6.16,2.05,0.39,2.49,-0.73,297.00,634.00,66.00,181.00,506.00,1023.00,689.00,871.00,,,,,,,,,,,,0,1,0,,-3692,15740,1632,25,116,-204
24.649,24.57,1.68,0.57,0.45,2.59,1.00,1.83,0.28,1.11,0.25,302.00,625.00,73.00,141.00,511.00,1035.00,670.00,896.00,,,,,,,,,,,,0,1,0,,-3636,15612,1476,-16,21,-217
24.671,24.63,1.66,-0.51,0.63,2.07,-0.28,1.23,0.85,0.97,0.40,305.00,649.00,79.00,149.00,501.00,1044.00,666.00,897.00,,,,,,,,,,,,0,1,0,,-3684,15588,1572,-31,34,-184
24.712,24.68,1.66,-1.31,1.71,-2.64,5.19,1.67,0.33,1.59,-0.59,292.00,651.00,64.00,155.00,511.00,1040.00,695.00,899.00,,,,,,,,,,,,0,1,0,,-3872,15568,1472,-155,212,-118
24.773,24.74,1.67,0.07,-0.04,1.63,-0.13,1.89,-0.38,1.71,-0.90,313.00,646.00,79.00,151.00,529.00,1051.00,705.00,902.00,,,,,,,,,,,,0,1,0,,-3808,15680,1624,-218,133,-86
24.814,24.79,1.64,0.07,-0.62,3.93,-3.52,0.92,0.62,0.28,0.03,323.00,656.00,91.00,151.00,510.00,1063.00,688.00,931.00,,,,,,,,,,,,0,1,0,,-3692,15712,1644,-87,138,-68
24.876,24.85,1.60,-1.49,0.90,-2.65,1.54,0.98,0.67,1.23,-0.31,306.00,670.00,78.00,171.00,508.00,1059.00,689.00,905.00,,,,,,,,,,,,0,1,0,,-3664,15548,1564,-118,208,-125
24.937,24.90,1.62,-0.54,0.28,-2.46,3.74,1.86,-0.33,1.90,-1.30,311.00,656.00,69.00,160.00,528.00,1051.00,718.00,905.00,,,,,,,,,,,,0,1,0,,-3728,15816,1492,-13,233,-282
25.021,24.96,1.60,0.68,-0.48,4.15,-2.33,1.30,0.50,1.34,-0.35,317.00,638.00,85.00,145.00,510.00,1051.00,689.00,902.00,,,,,,,,,,,,0,1,0,,-3772,15456,1620,-54,59,-93
25.06,25.01,1.58,-0.05,0.66,1.63,-0.13,1.19,1.05,1.22,0.13,302.00,637.00,79.00,151.00,496.00,1040.00,673.00,895.00,,,,,,,,,,,,0,1,0,,-3744,15580,1556,-42,53,-172
25.101,25.07,1.59,-0.82,1.73,-0.16,3.51,1.83,0.43,2.39,-0.67,289.00,638.00,67.00,147.00,507.00,1031.00,688.00,873.00,,,,,,,,,,,,0,1,0,,-3648,15656,1608,-21,200,-160
25.142,25.12,1.60,0.57,0.51,1.91,1.49,1.67,0.33,1.59,-0.51,301.00,624.00,72.00,143.00,511.00,1040.00,692.00,897.00,,,,,,,,,,,,0,1,0,,-3776,15672,1512,-80,122,-95
25.204,25.18,1.57,-0.41,0.72,9.22,-3.37,1.16,0.91,1.12,0.19,303.00,645.00,82.00,122.00,500.00,1045.00,672.00,897.00,,,,,,,,,,,,0,1,0,,-3860,15528,1652,-68,97,-165
25.266,25.23,1.58,-1.00,1.48,-1.37,2.85,1.67,0.37,1.80,-0.40,294.00,647.00,71.00,157.00,510.00,1039.00,685.00,887.00,,,,,,,,,,,,0,1,0,,-3772,15680,1700,-214,76,-63
25.328,25.29,1.60,-0.10,0.56,1.44,0.65,2.02,-0.18,1.77,-0.81,304.00,640.00,76.00,149.00,522.00,1040.00,701.00,898.00,,,,,,,,,,,,0,1,0,,-3676,15792,1700,-12,177,-189
25.368,25.34,1.58,-0.08,-0.05,4.62,-3.55,1.17,0.61,0.52,0.09,314.00,650.00,90.00,147.00,508.00,1053.00,683.00,921.00,,,,,,,,,,,,0,1,0,,-3708,15548,1476,-47,59,-268
25.45,25.40,1.55,-0.91,0.77,-0.87,0.48,1.07,0.72,1.32,-0.23,305.00,657.00,80.00,164.00,506.00,1054.00,685.00,900.00,,,,,,,,,,,,0,1,0,,-3704,15612,1476,-63,-36,-223
25.512,25.45,1.58,-0.51,0.69,0.79,1.11,2.02,-0.32,2.03,-1.16,304.00,648.00,75.00,151.00,526.00,1044.00,711.00,897.00,,,,,,,,,,,,0,1,0,,-3748,15648,1636,-30,158,-147
25.533,25.51,1.56,0.32,-0.48,3.63,-2.59,1.17,0.50,0.97,-0.25,319.00,647.00,87.00,149.00,511.00,1056.00,690.00,913.00,,,,,,,,,,,,0,1,0,,-3660,15644,1576,-188,141,-102
25.596,25.56,1.51,-1.21,0.93,1.19,-0.22,0.70,0.95,0.90,-0.07,304.00,662.00,80.00,154.00,503.00,1063.00,684.00,911.00,,,,,,,,,,,,0,1,0,,-3648,15736,1608,-32,177,-107
25.657,25.62,1.50,-1.12,1.08,-0.72,2.12,1.33,0.45,1.88,-1.06,301.00,657.00,73.00,156.00,511.00,1051.00,709.00,900.00,,,,,,,,,,,,0,1,0,,-3764,15684,1432,-30,185,-157
25.74,25.67,1.49,-0.35,0.46,3.44,-0.51,1.14,0.51,1.12,-0.44,307.00,648.00,78.00,142.00,511.00,1057.00,695.00,912.00,,,,,,,,,,,,0,1,0,,-3652,15464,1624,-56,116,-158
25.76,25.73,1.46,-0.14,0.33,2.27,-0.58,0.98,0.90,0.75,0.47,308.00,645.00,80.00,149.00,502.00,1053.00,666.00,903.00,,,,,,,,,,,,0,1,0,,-3724,15688,1512,-140,146,-148
25.823,25.78,1.46,-0.64,1.36,-2.63,3.53,1.55,0.41,1.60,-0.36,294.00,640.00,70.00,162.00,510.00,1043.00,686.00,893.00,,,,,,,,,,,,0,1,0,,-3832,15628,1592,-134,200,-218
25.864,25.84,1.50,0.83,0.24,3.39,-0.96,2.08,-0.30,1.92,-0.99,304.00,622.00,80.00,144.00,525.00,1041.00,706.00,897.00,,,,,,,,,,,,0,1,0,,-3764,15668,1460,-84,113,-113
25.927,25.89,1.47,0.37,-0.26,3.41,-2.51,1.08,0.53,0.74,-0.04,315.00,642.00,87.00,150.00,511.00,1059.00,685.00,916.00,,,,,,,,,,,,0,1,0,,-3696,15516,1488,-123,54,-216
25.99,25.95,1.48,-1.29,1.38,-0.47,0.34,1.61,0.43,1.50,-0.30,297.00,656.00,80.00,162.00,509.00,1040.00,685.00,895.00,,,,,,,,,,,,0,1,0,,-3632,15660,1684,-134,184,-127
26.03,26.00,1.51,-0.15,0.57,-0.82,3.73,2.02,-0.18,2.21,-1.09,304.00,641.00,67.00,150.00,522.00,1040.00,706.00,889.00,,,,,,,,,,,,0,1,0,,-3876,15672,1588,-163,116,-175
26.132,26.06,1.49,0.22,-0.03,3.62,-1.03,1.20,0.49,1.28,-0.30,312.00,642.00,80.00,143.00,511.00,1055.00,688.00,903.00,,,,,,,,,,,,0,1,0,,-3836,15672,1612,-150,209,-160
26.153,26.11,1.46,-0.66,0.74,0.79,1.36,0.85,1.05,0.71,0.30,304.00,651.00,74.00,150.00,499.00,1054.00,673.00,909.00,,,,,,,,,,,,0,1,0,,-3660,15728,1604,12,144,-195
26.194,26.17,1.46,-1.52,1.90,-2.81,4.96,1.48,0.40,1.85,-0.68,290.00,653.00,65.00,157.00,511.00,1046.00,695.00,892.00,,,,,,,,,,,,0,1,0,,-3776,15604,1464,-171,64,-190
26.256,26.22,1.44,0.06,0.32,3.39,-0.96,1.08,0.53,1.13,-0.49,307.00,640.00,80.00,144.00,511.00,1059.00,697.00,913.00,,,,,,,,,,,,0,1,0,,-3768,15676,1668,-45,41,-165
26.318,26.28,1.40,-1.05,0.63,1.17,-0.67,0.52,1.01,0.28,0.20,308.00,663.00,82.00,156.00,503.00,1069.00,682.00,927.00,,,,,,,,,,,,0,1,0,,-3744,15392,1440,-110,-8,-155
26.38,26.33,1.38,-1.40,1.55,-0.26,0.27,1.11,0.52,1.18,-0.56,295.00,656.00,80.00,161.00,511.00,1058.00,699.00,913.00,,,,,,,,,,,,0,1,0,,-3768,15884,1652,-143,-27,-204
26.484,26.39,1.40,0.05,0.44,1.85,-0.21,1.80,-0.24,1.63,-0.82,305.00,638.00,79.00,150.00,526.00,1051.00,703.00,903.00,,,,,,,,,,,,0,1,0,,-3708,15576,1756,-225,163,-152
26.504,26.44,1.38,0.47,-0.30,5.38,-4.41,1.01,0.77,0.85,-0.08,315.00,640.00,93.00,146.00,505.00,1055.00,685.00,913.00,,,,,,,,,,,,0,1,0,,-3788,15556,1556,-67,143,-174
26.546,26.50,1.38,-0.78,1.15,-0.47,0.34,1.25,0.91,1.65,-0.35,298.00,647.00,80.00,162.00,499.00,1041.00,685.00,891.00,,,,,,,,,,,,0,1,0,,-3756,15644,1580,-14,218,-112
26.608,26.55,1.40,0.46,0.43,-1.04,3.81,1.86,0.27,2.48,-1.23,303.00,628.00,67.00,151.00,511.00,1034.00,708.00,883.00,,,,,,,,,,,,0,1,0,,-3796,15504,1612,-38,251,-82
26.629,26.61,1.41,0.89,-0.26,3.46,-0.27,1.48,0.40,1.19,-0.24,312.00,629.00,77.00,141.00,511.00,1046.00,687.00,905.00,,,,,,,,,,,,0,1,0,,-3672,15568,1760,-60,174,-166
26.692,26.66,1.39,-0.27,0.92,2.27,-0.58,1.19,1.05,1.00,0.28,299.00,638.00,80.00,149.00,496.00,1040.00,670.00,899.00,,,,,,,,,,,,0,1,0,,-3784,15680,1708,-123,209,-62
26.754,26.72,1.43,-1.04,2.00,-0.82,3.73,2.02,0.43,2.17,-0.66,286.00,639.00,67.00,150.00,505.00,1023.00,690.00,880.00,,,,,,,,,,,,0,1,0,,-3760,15676,1752,8,179,-144
26.838,26.77,1.43,0.52,0.35,4.55,-1.35,1.61,0.35,1.48,-0.56,304.00,628.00,80.00,139.00,511.00,1042.00,695.00,902.00,,,,,,,,,,,,0,1,0,,-3724,15652,1424,123,165,-128
26.858,26.83,1.41,-0.66,0.74,2.96,-0.58,0.91,1.10,0.70,0.19,304.00,651.00,79.00,145.00,497.00,1050.00,677.00,912.00,,,,,,,,,,,,0,1,0,,-3780,15596,1388,87,82,-199
26.922,26.88,1.40,-1.08,1.19,-0.88,1.19,1.20,0.64,1.63,-0.53,299.00,654.00,77.00,161.00,507.00,1051.00,692.00,896.00,,,,,,,,,,,,0,1,0,,-3776,15620,1600,-88,68,-54
26.981,26.94,1.42,-0.50,0.57,2.08,-0.05,1.80,-0.21,1.43,-0.86,306.00,650.00,78.00,148.00,525.00,1050.00,707.00,911.00,,,,,,,,,,,,0,1,0,,-3772,15632,1504,-146,198,-117
27.023,26.99,1.38,0.02,-0.72,2.89,-2.96,0.74,0.65,0.05,-0.02,325.00,659.00,90.00,155.00,511.00,1070.00,693.00,941.00,,,,,,,,,,,,0,1,0,,-3668,15800,1460,-154,187,-203
27.085,27.05,1.34,-0.91,0.83,-1.91,2.02,0.54,1.04,1.65,-0.43,304.00,656.00,75.00,164.00,502.00,1067.00,688.00,893.00,,,,,,,,,,,,0,1,0,,-3760,15472,1676,18,20,-196
27.127,27.10,1.37,0.24,0.93,-0.78,3.18,1.86,0.27,2.51,-1.12,296.00,625.00,69.00,152.00,511.00,1034.00,703.00,879.00,,,,,,,,,,,,0,1,0,,-3824,15736,1756,-8,64,-136
27.229,27.16,1.38,0.89,0.04,3.62,-1.03,1.67,0.37,1.38,-0.20,307.00,624.00,80.00,143.00,510.00,1039.00,683.00,897.00,,,,,,,,,,,,0,1,0,,-3644,15616,1516,-44,238,-187
27.25,27.21,1.37,-0.13,1.25,2.94,-0.80,1.18,1.16,1.43,0.44,293.00,629.00,80.00,146.00,493.00,1037.00,659.00,880.00,,,,,,,,,,,,0,1,0,,-3692,15436,1624,20,189,-70
27.291,27.27,1.43,0.08,1.18,-0.33,2.76,2.50,0.24,2.66,-0.90,293.00,625.00,70.00,151.00,506.00,1009.00,693.00,869.00,,,,,,,,,,,,0,1,0,,-3704,15684,1540,-120,155,-170
27.373,27.32,1.44,0.94,0.27,4.28,-1.49,1.70,0.50,3.95,-3.98,303.00,619.00,81.00,141.00,506.00,1034.00,800.00,897.00,,,,,,,,,,,,0,1,0,,-3744,15632,1600,-105,234,-126
27.434,27.38,1.43,0.41,0.38,3.36,-1.18,1.13,1.07,0.84,0.56,304.00,630.00,81.00,145.00,496.00,1042.00,662.00,898.00,,,,,,,,,,,,0,1,0,,-3732,15728,1352,-39,148,-121
27.475,27.43,1.43,-0.60,1.40,1.66,0.57,1.41,0.93,1.84,-0.46,293.00,638.00,76.00,148.00,497.00,1034.00,687.00,887.00,,,,,,,,,,,,0,1,0,,-3712,15716,1532,10,118,-166
27.577,27.49,1.46,0.10,0.61,2.96,-0.58,2.08,-0.27,1.81,-0.88,302.00,634.00,79.00,145.00,524.00,1040.00,703.00,898.00,,,,,,,,,,,,0,1,0,,-3748,15548,1464,-41,123,-204
27.597,27.54,1.44,0.32,-0.13,4.98,-3.04,1.07,0.72,0.58,-0.04,313.00,641.00,87.00,143.00,506.00,1054.00,687.00,922.00,,,,,,,,,,,,0,1,0,,-3848,15616,1512,-89,103,-152
27.638,27.60,1.43,-1.18,1.22,-1.71,1.95,1.29,0.75,1.23,-0.23,299.00,656.00,75.00,163.00,503.00,1044.00,686.00,903.00,,,,,,,,,,,,0,1,0,,-3804,15584,1572,-129,122,-91
27.721,27.65,1.47,-0.69,1.37,-0.16,3.51,2.20,-0.45,2.05,-1.14,294.00,641.00,67.00,147.00,528.00,1040.00,710.00,896.00,,,,,,,,,,,,0,1,0,,-3732,15748,1464,-141,269,-134
27.742,27.71,1.47,2.97,-3.81,4.05,-1.41,1.54,0.52,1.34,-0.27,364.00,637.00,81.00,142.00,507.00,1040.00,686.00,900.00,,,,,,,,,,,,0,1,0,,-3772,15668,1792,-6,182,-162
27.783,27.76,1.48,0.19,0.82,1.89,0.74,1.56,1.11,1.70,0.05,298.00,628.00,75.00,146.00,491.00,1023.00,670.00,880.00,,,,,,,,,,,,0,1,0,,-3636,15672,1564,-68,90,-99
27.865,27.82,1.52,-0.38,1.90,-0.23,4.38,2.31,0.48,2.78,-0.70,284.00,624.00,64.00,144.00,501.00,1010.00,684.00,860.00,,,,,,,,,,,,0,1,0,,-3664,15720,1688,53,205,-90
27.97,27.87,1.56,1.94,-0.73,5.44,-0.45,2.37,0.21,1.99,-0.51,314.00,611.00,75.00,131.00,508.00,1015.00,687.00,883.00,,,,,,,,,,,,0,1,0,,-3612,15564,1516,-74,139,-140
28.01,27.93,1.56,0.35,0.90,3.39,-0.96,1.47,0.88,1.35,0.55,296.00,623.00,80.00,144.00,498.00,1033.00,656.00,880.00,,,,,,,,,,,,0,1,0,,-3852,15700,1544,-36,143,-176
28.03,27.98,1.59,-0.15,1.57,-1.56,4.83,2.12,0.44,2.16,-0.60,288.00,624.00,64.00,150.00,504.00,1019.00,688.00,879.00,,,,,,,,,,,,0,1,0,,-3624,15536,1560,-127,173,-129
28.071,28.04,1.62,0.45,0.99,1.91,1.23,2.21,0.19,2.19,-0.98,294.00,619.00,73.00,144.00,510.00,1022.00,702.00,887.00,,,,,,,,,,,,0,1,0,,-3780,15752,1632,-34,122,-173
28.132,28.09,1.61,0.83,-0.06,6.01,-4.81,1.48,0.51,0.78,0.11,309.00,627.00,94.00,144.00,508.00,1043.00,679.00,911.00,,,,,,,,,,,,0,1,0,,-3788,15664,1516,70,94,-174
28.173,28.15,1.56,-0.88,1.19,-1.12,2.00,0.69,1.82,1.63,-0.31,298.00,649.00,74.00,159.00,480.00,1039.00,684.00,891.00,,,,,,,,,,,,0,1,0,,-3784,15684,1528,20,91,-169
28.237,28.20,1.58,-0.26,0.73,0.76,2.66,1.86,0.27,2.38,-1.18,302.00,641.00,69.00,145.00,511.00,1034.00,707.00,885.00,,,,,,,,,,,,0,1,0,,-3756,15672,1508,-27,194,-149
28.317,28.26,1.58,0.94,-0.22,6.33,-3.71,1.58,0.47,1.32,-0.32,311.00,627.00,88.00,138.00,508.00,1040.00,688.00,902.00,,,,,,,,,,,,0,1,0,,-3812,15692,1324,-45,184,-64
28.337,28.31,1.55,-0.82,0.98,1.67,1.06,1.03,1.02,1.37,-0.14,301.00,651.00,74.00,146.00,498.00,1047.00,681.00,896.00,,,,,,,,,,,,0,1,0,,-3744,15528,1512,9,202,-109
28.399,28.37,1.56,-1.22,1.80,-1.16,4.98,1.70,0.32,2.29,-0.83,290.00,647.00,63.00,147.00,511.00,1039.00,695.00,880.00,,,,,,,,,,,,0,1,0,,-3704,15700,1344,-56,189,-256
28.461,28.42,1.57,1.36,0.25,5.44,-0.45,1.83,0.28,1.92,-0.70,301.00,609.00,75.00,131.00,511.00,1035.00,695.00,890.00,,,,,,,,,,,,0,1,0,,-3732,15596,1408,-95,88,-127
28.502,28.48,1.58,0.35,0.83,4.05,-1.41,1.70,0.91,0.98,0.59,297.00,624.00,81.00,142.00,495.00,1023.00,659.00,892.00,,,,,,,,,,,,0,1,0,,-3728,15576,1636,-73,104,-101
28.565,28.53,1.61,-0.17,1.90,-0.11,2.69,2.18,0.34,2.13,-0.59,283.00,619.00,70.00,150.00,506.00,1019.00,688.00,880.00,,,,,,,,,,,,0,1,0,,-3692,15664,1468,-33,185,-161
28.689,28.59,1.64,0.83,0.55,1.22,2.24,2.18,0.20,2.61,-1.17,299.00,617.00,70.00,144.00,510.00,1023.00,704.00,877.00,,,,,,,,,,,,0,1,0,,-3600,15688,1656,-34,210,-92
28.71,28.64,1.62,0.89,0.04,5.72,-3.08,1.35,0.81,0.95,0.11,307.00,624.00,86.00,139.00,501.00,1040.00,677.00,905.00,,,,,,,,,,,,0,1,0,,-3728,15600,1508,-17,172,-133
28.73,28.70,1.64,-0.33,1.06,-1.36,2.59,1.89,0.77,2.00,-0.35,297.00,637.00,72.00,158.00,497.00,1019.00,681.00,879.00,,,,,,,,,,,,0,1,0,,-3732,15656,1480,-40,176,-105
28.792,28.75,1.69,0.24,1.00,0.99,2.58,2.72,-0.45,2.49,-1.08,295.00,624.00,69.00,144.00,523.00,1019.00,702.00,879.00,,,,,,,,,,,,0,1,0,,-3780,15748,1436,16,110,-169
28.832,28.81,1.69,1.30,-0.52,3.59,-1.25,1.67,0.52,1.55,-0.45,314.00,623.00,81.00,144.00,506.00,1035.00,690.00,897.00,,,,,,,,,,,,0,1,0,,-3756,15740,1488,69,107,-168
28.893,28.86,1.67,-0.11,0.87,2.27,-0.58,1.35,0.92,1.67,-0.38,299.00,635.00,80.00,149.00,498.00,1037.00,686.00,891.00,,,,,,,,,,,,0,1,0,,-3800,15692,1532,34,80,-180
28.953,28.92,1.67,-0.57,1.78,0.04,3.72,1.70,0.50,2.30,-0.81,287.00,631.00,66.00,145.00,506.00,1034.00,694.00,879.00,,,,,,,,,,,,0,1,0,,-3760,15652,1440,-44,119,-101
29.076,28.97,1.67,0.78,0.20,3.93,-0.43,1.64,0.38,1.42,-0.51,305.00,624.00,77.00,139.00,510.00,1040.00,694.00,903.00,,,,,,,,,,,,0,1,0,,-3660,15544,1460,-26,227,-125
29.096,29.03,1.63,-0.10,0.56,3.36,-1.18,0.87,1.38,0.60,0.33,304.00,640.00,81.00,145.00,490.00,1044.00,673.00,912.00,,,,,,,,,,,,0,1,0,,-3824,15620,1324,-125,161,-279
29.138,29.08,1.66,-0.32,1.82,-0.65,4.24,2.12,0.37,2.28,-0.64,285.00,624.00,65.00,147.00,506.00,1021.00,688.00,876.00,,,,,,,,,,,,0,1,0,,-3732,15612,1444,-51,38,-115
29.158,29.14,1.69,0.61,0.74,3.50,0.20,2.24,0.14,2.15,-0.62,297.00,619.00,75.00,139.00,511.00,1022.00,689.00,880.00,,,,,,,,,,,,0,1,0,,-3720,15528,1676,-68,146,-99
29.221,29.19,1.67,1.26,0.04,5.76,-3.93,1.42,0.71,1.30,-0.04,305.00,615.00,90.00,142.00,503.00,1040.00,678.00,896.00,,,,,,,,,,,,0,1,0,,-3812,15756,1348,-121,243,-149
29.283,29.25,1.68,0.03,1.07,-0.48,1.29,1.82,0.87,2.08,-0.44,295.00,628.00,76.00,158.00,495.00,1019.00,683.00,878.00,,,,,,,,,,,,0,1,0,,-3748,15756,1396,-61,191,-119
29.345,29.30,1.73,0.34,1.02,0.96,3.41,2.78,-0.47,2.88,-1.45,294.00,621.00,66.00,141.00,523.00,1017.00,711.00,874.00,,,,,,,,,,,,0,1,0,,-3728,15692,1440,-104,176,-129
29.407,29.36,1.72,1.15,-0.05,6.86,-3.67,1.48,0.73,1.35,-0.33,307.00,619.00,87.00,135.00,502.00,1037.00,688.00,901.00,,,,,,,,,,,,0,1,0,,-3708,15716,1416,-47,163,-113
29.449,29.41,1.73,0.19,1.08,2.98,-0.35,1.83,0.28,1.44,0.05,294.00,624.00,78.00,144.00,511.00,1035.00,673.00,889.00,,,,,,,,,,,,0,1,0,,-3732,15732,1364,8,168,-149
29.491,29.47,1.76,0.07,1.30,4.15,-2.33,2.37,0.39,2.44,-0.80,291.00,623.00,85.00,145.00,503.00,1010.00,692.00,874.00,,,,,,,,,,,,0,1,0,,-3688,15656,1280,12,64,-140
29.552,29.52,1.76,0.94,0.33,4.94,-0.29,1.83,0.28,1.50,-0.38,302.00,618.00,75.00,133.00,511.00,1035.00,688.00,897.00,,,,,,,,,,,,0,1,0,,-3628,15652,1480,11,57,-157
29.613,29.58,1.74,-0.17,0.95,3.16,-0.88,1.32,0.85,0.90,0.43,298.00,635.00,80.00,145.00,500.00,1040.00,666.00,899.00,,,,,,,,,,,,0,1,0,,-3820,15624,1412,-88,190,-109
29.676,29.63,1.74,-0.50,1.50,-1.87,3.81,1.64,0.49,2.21,-0.75,291.00,634.00,68.00,156.00,507.00,1037.00,693.00,881.00,,,,,,,,,,,,0,1,0,,-3656,15660,1340,-56,252,-103
29.718,29.69,1.75,0.00,0.52,1.45,1.90,1.99,-0.13,1.87,-0.79,304.00,638.00,71.00,144.00,521.00,1040.00,699.00,894.00,,,,,,,,,,,,0,1,0,,-3736,15764,1332,-57,202,-251
29.78,29.74,1.74,0.83,0.24,3.99,-1.84,1.58,0.51,1.13,0.05,304.00,622.00,83.00,144.00,507.00,1039.00,677.00,900.00,,,,,,,,,,,,0,1,0,,-3756,15648,1376,-81,38,-143
29.842,29.80,1.74,-0.35,1.57,-0.27,1.22,1.73,0.86,2.11,-0.47,289.00,629.00,76.00,157.00,496.00,1023.00,684.00,878.00,,,,,,,,,,,,0,1,0,,-3704,15516,1552,-22,90,-135
29.902,29.85,1.80,0.54,1.34,1.91,1.23,2.91,-0.58,5.19,-2.02,288.00,611.00,73.00,144.00,525.00,1015.00,703.00,810.00,,,,,,,,,,,,0,1,0,,-3664,15700,1196,-98,158,-194
29.944,29.91,1.79,1.26,0.10,6.97,-3.28,1.73,0.49,1.34,-0.05,304.00,614.00,85.00,133.00,506.00,1033.00,678.00,895.00,,,,,,,,,,,,0,1,0,,-3588,15712,1240,-57,188,-158
30.005,29.96,1.79,-0.08,1.29,7.04,-1.95,1.76,0.82,1.85,-0.14,292.00,627.00,79.00,128.00,497.00,1023.00,675.00,879.00,,,,,,,,,,,,0,1,0,,-3688,15592,1464,-106,105,-184
30.047,30.02,1.83,0.22,1.45,0.76,2.66,2.47,0.07,2.77,-0.86,288.00,617.00,69.00,145.00,511.00,1015.00,690.00,864.00,,,,,,,,,,,,1,1,0,,-3712,15688,1424,-128,154,-121
30.152,30.07,1.84,1.09,0.58,inf,inf,2.08,0.34,1.93,-0.47,297.00,610.00,0.00,129.00,507.00,1023.00,686.00,884.00,,,,,,,,,,,,1,1,0,,-3760,15820,1436,-45,149,-195
30.172,30.13,1.83,0.46,0.67,3.39,-0.96,1.70,0.91,1.01,0.39,299.00,624.00,80.00,144.00,495.00,1023.00,666.00,896.00,,,,,,,,,,,,1,1,0,,-3720,15676,1368,-20,49,-152
30.212,30.18,1.85,-0.20,1.59,0.02,4.01,2.21,0.44,2.65,-0.76,288.00,625.00,65.00,144.00,503.00,1015.00,688.00,866.00,,,,,,,,,,,,1,1,0,,-3780,15600,1420,-39,107,-165
30.272,30.24,1.85,0.99,0.19,3.19,-0.66,1.86,0.27,-1.83,0.45,304.00,619.00,79.00,144.00,511.00,1034.00,699.00,1001.00,,,,,,,,,,,,1,1,0,,-3816,15776,1540,-100,213,-69
30.313,30.29,1.83,-0.05,0.54,4.25,-1.70,1.39,0.57,0.91,-0.12,304.00,639.00,82.00,142.00,507.00,1045.00,686.00,912.00,,,,,,,,,,,,1,1,0,,-3748,15672,1440,-40,259,-82
30.395,30.35,1.82,-0.48,1.05,-1.11,1.75,1.70,0.47,1.90,-0.51,298.00,641.00,75.00,160.00,507.00,1035.00,688.00,886.00,,,,,,,,,,,,1,1,0,,-3816,15692,1488,-101,152,-216
30.437,30.40,1.87,0.55,1.14,2.60,1.25,2.81,-0.51,2.71,-1.23,291.00,614.00,72.00,140.00,524.00,1017.00,705.00,875.00,,,,,,,,,,,,1,1,0,,-3828,15712,1264,-76,112,-77
30.518,30.46,1.86,1.73,-0.48,6.34,-2.63,1.64,0.56,1.43,-0.19,311.00,612.00,83.00,134.00,505.00,1035.00,682.00,895.00,,,,,,,,,,,,1,1,0,,-3752,15724,1304,-79,202,-56
30.58,30.51,1.86,-0.51,1.56,-0.74,2.64,1.86,0.86,2.13,-0.21,290.00,633.00,71.00,154.00,495.00,1018.00,674.00,871.00,,,,,,,,,,,,1,1,0,,-3660,15580,1248,-12,167,-85
30.601,30.57,1.88,0.39,1.26,0.74,3.21,2.28,0.42,4.67,-1.39,290.00,616.00,67.00,143.00,503.00,1013.00,686.00,813.00,,,,,,,,,,,,1,1,0,,-3720,15640,1372,-58,161,-133
30.664,30.62,1.89,1.42,0.11,6.41,-1.03,2.12,0.29,2.06,-0.48,303.00,610.00,76.00,128.00,508.00,1023.00,685.00,880.00,,,,,,,,,,,,1,1,0,,-3644,15628,1448,-59,218,-97
30.725,30.68,1.88,0.13,1.16,2.82,0.68,1.73,0.86,1.58,0.23,293.00,624.00,74.00,141.00,496.00,1023.00,665.00,880.00,,,,,,,,,,,,1,1,0,,-3572,15668,1392,-50,191,-92
30.787,30.73,1.92,-0.78,2.50,-0.82,3.73,2.60,0.17,2.92,-0.85,277.00,624.00,67.00,150.00,507.00,1007.00,688.00,859.00,,,,,,,,,,,,1,1,0,,-3696,15596,1272,187,153,-162
30.828,30.79,1.94,0.98,0.75,3.31,1.01,2.31,0.12,2.00,-0.65,295.00,610.00,72.00,137.00,511.00,1020.00,692.00,886.00,,,,,,,,,,,,1,1,0,,-3836,15640,1356,276,-16,-151
30.889,30.84,1.92,0.62,0.43,3.79,-1.55,1.61,0.54,1.53,-0.33,302.00,624.00,82.00,144.00,506.00,1037.00,686.00,895.00,,,,,,,,,,,,1,1,0,,-3688,15756,1388,460,-52,-174
30.931,30.90,1.92,-0.53,1.19,-11.31,16.33,1.83,0.28,2.11,-0.61,296.00,640.00,41.00,162.00,511.00,1035.00,689.00,881.00,,,,,,,,,,,,1,1,0,,-3712,15680,1248,322,66,-261
30.993,30.95,1.94,0.57,0.39,0.99,2.58,2.42,-0.52,2.06,-1.12,303.00,626.00,69.00,144.00,528.00,1033.00,709.00,895.00,,,,,,,,,,,,1,1,0,,-3784,15764,1200,90,83,-128
31.056,31.01,1.92,1.31,-0.28,3.82,-1.33,1.54,0.48,1.28,-0.30,310.00,619.00,81.00,143.00,508.00,1041.00,688.00,903.00,,,,,,,,,,,,1,1,0,,-3772,15660,1176,-22,59,-261
31.097,31.06,1.92,-0.31,1.75,-0.06,0.44,1.76,0.85,2.45,-0.51,286.00,625.00,79.00,159.00,496.00,1022.00,681.00,867.00,,,,,,,,,,,,1,1,0,,-3684,15432,1048,83,105,-199
31.16,31.12,1.95,0.31,1.67,-0.45,4.46,2.60,0.02,2.86,-0.86,284.00,611.00,64.00,145.00,511.00,1011.00,689.00,861.00,,,,,,,,,,,,1,1,0,,-3748,15804,1084,21,112,-180
31.264,31.17,1.98,1.04,0.73,4.51,0.36,2.53,0.04,2.12,-0.45,295.00,609.00,73.00,133.00,511.00,1013.00,683.00,877.00,,,,,,,,,,,,1,1,0,,-3644,15648,1216,-112,39,-271
31.285,31.23,1.98,0.45,0.99,3.16,-0.88,1.95,0.75,1.53,0.30,294.00,619.00,80.00,145.00,497.00,1017.00,663.00,880.00,,,,,,,,,,,,1,1,0,,-3712,15628,1072,-171,10,-185
31.327,31.28,2.00,-0.36,2.43,-0.23,4.38,2.47,0.39,2.95,-0.73,276.00,615.00,64.00,144.00,502.00,1006.00,683.00,855.00,,,,,,,,,,,,1,1,0,,-3752,15700,1216,234,232,-103
31.369,31.34,2.00,2.07,0.01,2.36,3.80,2.02,0.77,2.31,-0.65,301.00,596.00,63.00,132.00,496.00,1014.00,688.00,875.00,,,,,,,,,,,,1,1,0,,-3736,15740,1056,-203,273,-109
31.429,31.39,2.01,0.24,1.00,3.85,-1.11,2.12,0.37,1.75,-0.33,295.00,624.00,80.00,142.00,506.00,1021.00,683.00,887.00,,,,,,,,,,,,1,1,0,,-3684,15656,972,57,147,-98
31.491,31.45,1.98,-0.35,1.44,2.10,0.18,1.54,0.74,2.17,-0.66,291.00,631.00,77.00,147.00,501.00,1034.00,690.00,880.00,,,,,,,,,,,,1,1,0,,-3700,15608,992,-158,55,-177
31.531,31.50,2.02,0.47,0.30,2.13,0.91,2.74,-0.63,2.61,-1.31,305.00,630.00,74.00,144.00,528.00,1023.00,709.00,880.00,,,,,,,,,,,,1,1,0,,-3672,15756,1216,4,95,-119
31.615,31.56,2.00,0.83,-0.42,-1.06,-0.58,1.58,0.37,1.03,-0.22,315.00,633.00,85.00,170.00,511.00,1043.00,688.00,910.00,,,,,,,,,,,,1,1,0,,-3792,15704,1024,-111,117,-162
31.635,31.61,1.98,-1.24,1.37,-1.54,2.39,1.67,0.66,2.13,-0.51,297.00,655.00,73.00,160.00,502.00,1031.00,685.00,878.00,,,,,,,,,,,,1,1,0,,-3644,15792,1084,-205,112,-348
31.718,31.67,2.03,0.49,1.23,0.75,2.93,3.01,-0.54,3.33,-1.28,290.00,614.00,68.00,144.00,523.00,1010.00,699.00,855.00,,,,,,,,,,,,1,1,0,,-3784,15480,1296,-285,121,-205
31.759,31.72,2.06,1.52,0.01,4.08,-1.19,2.44,0.37,2.07,-0.38,304.00,609.00,80.00,141.00,503.00,1008.00,681.00,877.00,,,,,,,,,,,,1,1,0,,-3780,15824,1192,-200,147,-171
31.821,31.78,2.05,0.55,0.95,2.54,0.03,2.02,0.77,2.09,0.03,294.00,617.00,77.00,145.00,496.00,1014.00,666.00,867.00,,,,,,,,,,,,1,1,0,,-3852,15644,1212,-206,154,-180
31.863,31.83,2.08,0.11,1.61,-0.23,4.38,2.57,0.18,3.34,-0.99,286.00,617.00,64.00,144.00,507.00,1008.00,688.00,848.00,,,,,,,,,,,,1,1,0,,-3784,15736,1064,-204,192,-142
31.925,31.89,2.10,1.47,0.21,5.79,-1.53,2.50,0.05,2.28,-0.64,301.00,607.00,79.00,133.00,511.00,1014.00,688.00,876.00,,,,,,,,,,,,1,1,0,,-3756,15612,1324,-14,194,-150
31.985,31.94,2.08,0.57,0.51,1.90,0.98,1.73,0.86,1.67,0.08,301.00,624.00,74.00,145.00,496.00,1023.00,669.00,880.00,,,,,,,,,,,,1,1,0,,-3696,15620,1084,-198,138,-124
32.047,32.00,2.07,-0.04,1.40,2.73,-0.50,1.79,0.77,2.35,-0.66,290.00,624.00,79.00,146.00,498.00,1023.00,688.00,874.00,,,,,,,,,,,,1,1,0,,-3812,15736,1240,-94,272,-99
32.11,32.05,2.11,0.83,0.24,3.00,-0.12,2.87,-0.64,2.53,-1.30,304.00,622.00,77.00,143.00,527.00,1018.00,710.00,883.00,,,,,,,,,,,,1,1,0,,-3692,15776,1088,-174,168,-139
32.151,32.11,2.08,1.25,-0.56,4.56,-2.69,1.61,0.35,1.24,-0.37,315.00,625.00,86.00,144.00,511.00,1042.00,691.00,906.00,,,,,,,,,,,,1,1,0,,-3764,15804,1320,-134,114,-74
32.213,32.16,2.05,-0.36,0.76,-0.49,1.79,1.51,0.57,2.01,-0.63,302.00,643.00,74.00,156.00,506.00,1040.00,691.00,885.00,,,,,,,,,,,,1,1,0,,-3688,15644,1308,-97,160,-186
32.276,32.22,2.09,0.29,0.91,1.01,1.04,2.80,-0.69,3.28,-1.74,296.00,624.00,75.00,150.00,529.00,1022.00,717.00,867.00,,,,,,,,,,,,1,1,0,,-3672,15568,1116,-277,21,-253
32.359,32.27,2.09,-0.34,0.34,7.78,-3.34,2.02,0.51,2.17,-0.66,309.00,650.00,84.00,129.00,503.00,1021.00,690.00,880.00,,,,,,,,,,,,1,1,0,,-3812,15704,1180,163,30,-192
32.379,32.33,2.09,0.45,1.05,2.49,-0.65,2.05,0.57,2.45,-0.43,293.00,618.00,80.00,148.00,501.00,1018.00,678.00,865.00,,,,,,,,,,,,1,1,0,,-3560,15440,1144,246,75,-274
32.421,32.38,2.12,0.09,1.88,0.29,3.36,2.76,0.04,3.34,-0.99,282.00,613.00,67.00,145.00,509.00,1004.00,688.00,848.00,,,,,,,,,,,,1,1,0,,-3636,15560,972,245,1,-208
32.482,32.44,2.15,1.31,0.70,4.88,-0.75,2.63,0.01,2.35,-0.66,294.00,603.00,77.00,135.00,511.00,1010.00,688.00,874.00,,,,,,,,,,,,1,1,0,,-3924,15764,984,468,-258,-14
32.523,32.49,2.15,0.71,0.96,2.49,-0.65,2.15,0.65,2.06,0.06,293.00,613.00,80.00,148.00,498.00,1012.00,665.00,867.00,,,,,,,,,,,,1,1,0,,-3860,15484,1088,88,-343,115
32.586,32.55,2.16,0.09,1.88,1.22,2.24,2.44,0.26,3.17,-0.96,282.00,613.00,70.00,144.00,506.00,1011.00,689.00,853.00,,,,,,,,,,,,1,1,0,,-3768,16164,1284,363,91,-110
32.627,32.60,2.18,1.09,0.52,2.54,0.03,2.50,0.05,2.85,-1.10,298.00,611.00,77.00,145.00,511.00,1014.00,698.00,867.00,,,,,,,,,,,,1,1,0,,-3704,15340,1056,410,130,-169
32.732,32.66,2.13,1.20,0.12,5.21,-3.12,1.17,0.54,1.73,-0.43,304.00,615.00,87.00,142.00,510.00,1055.00,687.00,890.00,,,,,,,,,,,,1,1,0,,-3820,15736,872,330,108,25
32.753,32.71,2.13,-0.42,1.03,2.99,-4.76,2.21,0.37,2.27,-0.72,298.00,640.00,99.00,162.00,505.00,1017.00,691.00,878.00,,,,,,,,,,,,1,1,0,,-3656,15488,880,54,66,-26
32.794,32.77,2.17,0.35,0.71,2.13,0.91,2.94,-0.56,2.84,-1.64,299.00,626.00,74.00,144.00,524.00,1013.00,719.00,880.00,,,,,,,,,,,,1,1,0,,-3676,15720,936,-333,127,-103
32.856,32.82,2.16,1.88,-0.89,6.87,-4.51,1.96,0.53,1.65,-0.35,317.00,615.00,91.00,138.00,503.00,1023.00,685.00,891.00,,,,,,,,,,,,1,1,0,,-3628,15584,1100,-610,304,-109
32.916,32.88,2.17,0.60,1.25,2.11,0.42,2.41,0.56,2.65,-0.25,289.00,611.00,76.00,146.00,498.00,1004.00,669.00,854.00,,,,,,,,,,,,1,1,0,,-3668,15612,1120,-779,269,53
32.957,32.93,2.20,0.92,1.08,0.02,4.01,2.80,0.25,3.84,-1.17,290.00,606.00,65.00,144.00,503.00,997.00,688.00,835.00,,,,,,,,,,,,1,1,0,,-3496,15768,1148,-687,226,75
33.103,32.99,2.24,1.91,0.62,5.75,-1.75,2.86,0.15,2.68,-0.50,292.00,590.00,80.00,134.00,505.00,997.00,678.00,859.00,,,,,,,,,,,,1,1,0,,-3560,15760,1088,-300,-2,24
33.124,33.04,2.24,1.14,1.01,2.72,-0.73,2.24,0.77,2.26,-0.14,290.00,602.00,80.00,147.00,494.00,1005.00,670.00,865.00,,,,,,,,,,,,1,1,0,,-3552,15824,1496,-345,-160,-38
33.144,33.10,2.27,0.57,1.78,4.89,1.81,2.93,0.27,3.49,-0.99,281.00,603.00,67.00,126.00,501.00,991.00,686.00,843.00,,,,,,,,,,,,1,1,0,,-3716,15684,1540,-747,81,-150
33.227,33.15,2.30,0.49,2.21,-0.15,5.86,2.76,0.00,2.84,-0.91,275.00,598.00,59.00,138.00,510.00,1005.00,691.00,863.00,,,,,,,,,,,,1,1,0,,-3624,15872,1468,-269,242,-195
33.248,33.21,2.30,0.93,0.76,3.39,-0.96,2.41,0.23,1.93,-0.39,295.00,611.00,80.00,144.00,507.00,1013.00,683.00,882.00,,,,,,,,,,,,1,1,1,,-3632,15544,1320,-235,46,-264
33.309,33.26,2.31,-0.59,1.27,-1.50,1.64,2.54,0.22,2.80,-0.81,295.00,640.00,76.00,163.00,506.00,1008.00,688.00,862.00,,,,,,,,,,,,1,1,1,,-3584,15696,1404,70,10,-156
33.371,33.32,2.38,0.62,0.50,2.10,0.18,3.56,-1.29,3.18,-1.63,301.00,623.00,77.00,147.00,539.00,1008.00,714.00,868.00,,,,,,,,,,,,1,1,1,,-3684,15624,1448,-55,8,-125
33.454,33.37,2.34,1.67,-0.87,5.81,-3.74,1.73,0.42,1.54,-0.52,318.00,620.00,89.00,141.00,508.00,1035.00,693.00,899.00,,,,,,,,,,,,1,1,1,,-3544,15776,1484,-139,252,-82
33.474,33.43,2.33,-0.22,0.90,1.43,0.41,2.15,0.69,2.55,-0.49,299.00,637.00,77.00,150.00,497.00,1011.00,679.00,863.00,,,,,,,,,,,,1,1,1,,-3600,15612,1332,-227,198,-210
33.536,33.48,2.38,0.80,1.51,1.19,3.33,3.16,0.12,3.38,-0.93,284.00,602.00,66.00,140.00,503.00,986.00,685.00,845.00,,,,,,,,,,,,1,1,1,,-3564,15656,1460,-233,137,-16
33.577,33.54,2.39,1.80,0.53,5.06,0.69,2.67,0.40,2.99,-0.74,294.00,594.00,71.00,129.00,500.00,998.00,683.00,854.00,,,,,,,,,,,,1,1,1,,-3584,15928,1480,-101,257,-139
33.638,33.59,2.40,0.53,1.47,3.74,0.12,2.60,0.64,2.50,0.03,286.00,609.00,75.00,138.00,494.00,994.00,661.00,853.00,,,,,,,,,,,,1,1,1,,-3500,15524,1628,-189,230,-82
33.699,33.65,2.44,0.24,2.02,4.97,4.13,3.13,0.35,3.79,-1.17,279.00,607.00,59.00,118.00,497.00,981.00,689.00,837.00,,,,,,,,,,,,1,1,1,,-3636,15744,1336,-84,193,-271
33.762,33.70,2.47,1.80,0.60,4.59,1.37,3.00,0.18,3.32,-1.02,293.00,593.00,69.00,129.00,503.00,991.00,689.00,849.00,,,,,,,,,,,,1,1,1,,-3608,15608,1332,-272,177,-93
33.823,33.76,2.47,0.87,1.10,3.19,-0.66,2.51,0.60,2.44,-0.45,290.00,607.00,79.00,144.00,496.00,999.00,679.00,866.00,,,,,,,,,,,,1,1,1,,-3480,15716,1464,105,226,-63
33.843,33.81,2.48,0.56,0.70,2.27,-0.58,2.70,0.35,3.32,-0.96,298.00,621.00,80.00,149.00,501.00,998.00,687.00,848.00,,,,,,,,,,,,1,1,1,,-3520,15764,1444,385,230,-194
33.906,33.87,2.54,0.44,1.18,2.82,0.68,3.79,-0.81,3.28,-1.42,291.00,616.00,74.00,141.00,523.00,986.00,705.00,860.00,,,,,,,,,,,,1,1,1,,-3716,16148,1548,367,117,-47
33.947,33.92,2.53,1.41,-0.26,6.38,-3.51,2.34,0.40,1.73,-0.29,309.00,616.00,87.00,137.00,503.00,1011.00,682.00,887.00,,,,,,,,,,,,1,1,1,,-3560,15588,1532,189,151,-263
34.01,33.98,2.52,-0.34,1.25,0.57,1.43,2.28,0.64,2.66,-0.61,294.00,634.00,74.00,151.00,497.00,1007.00,682.00,862.00,,,,,,,,,,,,1,1,1,,-3524,15736,1244,-193,137,-401
34.071,34.03,2.55,1.03,1.11,-3.70,4.43,3.12,-0.15,3.59,-1.45,289.00,603.00,68.00,165.00,511.00,995.00,702.00,850.00,,,,,,,,,,,,1,1,1,,-3552,15636,1592,-539,185,-339
34.113,34.09,2.57,2.30,0.87,5.06,-1.29,2.93,0.20,2.91,-0.80,286.00,577.00,79.00,136.00,503.00,993.00,686.00,858.00,,,,,,,,,,,,1,1,1,,-3756,15664,1436,-130,243,-26
34.195,34.14,2.57,1.22,1.83,17.15,-4.15,2.47,0.95,2.70,-0.18,277.00,587.00,74.00,91.00,487.00,991.00,666.00,851.00,,,,,,,,,,,,1,1,1,,-3676,15768,1376,86,99,-47
34.237,34.20,2.60,0.98,2.18,0.23,4.23,3.30,0.26,3.92,-1.19,273.00,587.00,64.00,142.00,498.00,977.00,688.00,833.00,,,,,,,,,,,,1,1,1,,-3612,15616,1140,6,159,-135
34.278,34.25,2.63,2.36,1.05,5.08,0.94,3.20,0.33,3.15,-0.93,283.00,573.00,70.00,128.00,497.00,979.00,688.00,853.00,,,,,,,,,,,,1,1,1,,-3732,15704,1604,366,190,-135
34.359,34.31,2.64,1.18,1.58,8.55,-2.69,2.70,0.72,4.42,-0.92,281.00,592.00,80.00,123.00,491.00,988.00,672.00,811.00,,,,,,,,,,,,1,1,1,,-3484,15516,1292,-317,269,-128
34.42,34.36,2.65,1.06,1.75,0.27,3.64,3.00,0.36,3.13,-0.68,279.00,592.00,66.00,144.00,498.00,986.00,679.00,848.00,,,,,,,,,,,,1,1,1,,-3592,15772,1028,-142,244,-52
34.44,34.42,2.69,1.40,1.24,2.86,1.69,3.32,-0.15,3.31,-1.44,285.00,592.00,70.00,137.00,509.00,987.00,705.00,859.00,,,,,,,,,,,,1,1,1,,-3584,15632,1280,-534,113,-17
34.503,34.47,2.67,1.80,0.10,4.05,-1.41,2.41,0.60,1.94,-0.52,301.00,601.00,81.00,142.00,497.00,1003.00,688.00,885.00,,,,,,,,,,,,1,1,1,,-3636,15716,1424,51,208,-144
34.585,34.53,2.67,0.28,1.23,-0.07,1.40,2.57,0.66,2.64,-0.71,291.00,619.00,75.00,155.00,494.00,995.00,686.00,865.00,,,,,,,,,,,,1,1,1,,-3644,15788,1480,-170,134,-137
34.606,34.58,2.71,3.75,0.45,1.90,3.10,3.53,-0.75,3.49,-1.91,285.00,551.00,66.00,137.00,524.00,995.00,721.00,864.00,,,,,,,,,,,,1,1,1,,-3676,15744,1348,-58,119,-111
34.668,34.64,2.67,1.84,-0.58,4.75,-1.64,1.85,1.24,2.05,-0.56,312.00,611.00,81.00,139.00,485.00,1008.00,688.00,882.00,,,,,,,,,,,,1,1,1,,-3492,15896,1172,-219,269,-100
34.73,34.69,2.66,0.59,1.38,3.41,-0.73,2.51,0.75,2.46,-0.35,287.00,609.00,79.00,143.00,492.00,995.00,675.00,863.00,,,,,,,,,,,,1,1,1,,-3488,15816,1352,-292,79,-216
34.771,34.75,2.69,0.83,1.96,0.99,2.58,3.26,0.20,3.56,-1.09,277.00,594.00,69.00,144.00,500.00,980.00,689.00,843.00,,,,,,,,,,,,1,1,1,,-3688,15560,1624,-300,-6,-116
34.834,34.80,2.72,1.57,1.25,5.87,-1.08,3.26,-0.05,2.74,-0.77,284.00,588.00,77.00,131.00,507.00,987.00,687.00,863.00,,,,,,,,,,,,1,1,2,,-3544,15736,1476,-28,171,-154
34.936,34.86,2.72,1.30,1.21,4.55,-1.35,2.70,0.76,2.24,-0.11,286.00,595.00,80.00,139.00,490.00,987.00,669.00,865.00,,,,,,,,,,,,1,1,2,,-3560,15708,1544,-85,261,-138
34.957,34.91,2.73,0.05,2.42,-0.45,4.46,2.93,0.46,3.17,-0.75,274.00,605.00,64.00,145.00,496.00,986.00,681.00,848.00,,,,,,,,,,,,1,1,2,,-3656,15820,1408,-254,208,-208
34.998,34.97,2.75,1.19,0.93,2.57,0.51,3.23,0.03,3.42,-1.29,291.00,602.00,75.00,143.00,505.00,986.00,698.00,852.00,,,,,,,,,,,,1,1,2,,-3636,15744,1512,-63,101,-193
35.061,35.02,2.73,1.63,-0.03,4.83,-2.56,2.34,0.66,1.98,-0.54,304.00,607.00,85.00,142.00,496.00,1004.00,688.00,884.00,,,,,,,,,,,,1,1,2,,-3676,15736,1384,-65,58,-292
35.102,35.08,2.73,-0.15,1.57,-1.99,3.06,2.67,0.51,2.92,-0.85,288.00,624.00,71.00,160.00,497.00,995.00,688.00,859.00,,,,,,,,,,,,1,1,2,,-3628,15664,1412,-3,60,-200
35.164,35.13,2.75,0.71,0.96,-0.67,0.88,3.19,-0.18,3.23,-1.62,293.00,613.00,78.00,161.00,511.00,993.00,713.00,866.00,,,,,,,,,,,,1,1,2,,-3700,15676,1484,-227,19,-160
35.226,35.19,2.81,1.57,-0.31,4.98,-1.72,3.92,-1.81,1.76,-0.60,309.00,613.00,81.00,138.00,551.00,1008.00,693.00,893.00,,,,,,,,,,,,1,1,2,,-3660,15564,1352,-56,100,-167
35.307,35.24,2.78,0.20,0.76,1.63,-0.13,2.21,0.63,2.10,-0.55,299.00,629.00,79.00,151.00,498.00,1010.00,687.00,880.00,,,,,,,,,,,,1,1,2,,-3704,15588,1516,-163,141,-140
35.328,35.30,2.79,-0.04,1.53,0.04,3.72,3.06,-0.06,3.21,-1.25,288.00,622.00,66.00,145.00,509.00,995.00,699.00,858.00,,,,,,,,,,,,1,1,2,,-3644,15580,1516,-101,124,-250
35.412,35.35,2.80,1.58,0.67,5.51,0.02,2.87,0.30,2.58,-0.74,293.00,597.00,73.00,129.00,501.00,993.00,688.00,868.00,,,,,,,,,,,,1,1,2,,-3608,15708,1556,-236,91,-123
35.433,35.41,2.79,1.63,0.78,2.05,-0.51,2.64,0.56,2.26,-0.06,291.00,594.00,80.00,150.00,496.00,995.00,667.00,863.00,,,,,,,,,,,,1,1,2,,-3608,15712,1352,36,178,-151
35.495,35.46,2.81,-0.23,2.65,-0.68,4.53,3.10,0.22,3.32,-0.96,272.00,608.00,64.00,146.00,501.00,986.00,687.00,848.00,,,,,,,,,,,,1,1,2,,-3624,15548,1480,-119,173,-142
35.559,35.52,2.83,0.97,1.19,3.67,-0.58,3.29,-0.14,2.93,-1.04,288.00,603.00,78.00,141.00,509.00,988.00,695.00,863.00,,,,,,,,,,,,1,1,2,,-3572,15656,1452,-83,130,-178
35.6,35.57,2.81,1.47,0.15,4.28,-1.49,2.41,0.64,2.21,-0.59,302.00,608.00,81.00,141.00,496.00,1002.00,687.00,877.00,,,,,,,,,,,,1,1,2,,-3640,15720,1520,-85,119,-116
35.724,35.63,2.80,-0.09,1.49,1.43,0.41,2.57,0.58,2.86,-0.86,289.00,624.00,77.00,150.00,496.00,997.00,689.00,861.00,,,,,,,,,,,,1,1,2,,-3668,15644,1472,-62,144,-137
35.745,35.68,2.82,0.81,1.12,1.01,1.79,3.22,-0.19,3.16,-1.65,290.00,608.00,72.00,147.00,511.00,992.00,715.00,869.00,,,,,,,,,,,,1,1,2,,-3540,15776,1408,-36,182,-160
35.765,35.74,2.79,1.20,0.12,6.97,-3.28,2.24,0.58,1.76,-0.46,304.00,615.00,85.00,133.00,499.00,1010.00,688.00,890.00,,,,,,,,,,,,1,1,2,,-3684,15776,1384,-70,154,-195
35.827,35.79,2.76,0.20,0.76,1.19,-0.22,2.24,0.62,-0.48,3.48,299.00,629.00,80.00,154.00,498.00,1009.00,579.00,875.00,,,,,,,,,,,,1,1,2,,-3704,15844,1308,590,157,-238
35.889,35.85,2.77,0.62,0.43,2.98,-0.35,2.83,0.31,3.43,-1.86,302.00,624.00,78.00,144.00,501.00,994.00,720.00,865.00,,,,,,,,,,,,1,1,2,,-3644,15696,1364,518,22,15
35.951,35.90,2.75,0.67,0.42,4.06,1.02,2.54,0.22,2.11,-0.61,302.00,623.00,71.00,133.00,506.00,1008.00,689.00,881.00,,,,,,,,,,,,1,1,2,,-3676,15800,1332,328,120,-325
36.033,35.96,2.73,0.12,1.29,2.51,-0.43,2.24,0.88,2.19,-0.03,291.00,622.00,79.00,147.00,491.00,1002.00,667.00,865.00,,,,,,,,,,,,1,1,2,,-3656,15932,1488,-163,-121,-162
36.054,36.01,2.76,0.23,2.16,-0.63,3.95,3.47,0.13,3.69,-1.11,277.00,605.00,66.00,148.00,500.00,974.00,688.00,839.00,,,,,,,,,,,,1,1,2,,-3592,15584,1420,32,-4,-109
36.096,36.07,2.89,1.74,0.74,5.22,-0.13,5.21,-2.74,3.13,-0.95,291.00,592.00,74.00,131.00,566.00,982.00,689.00,854.00,,,,,,,,,,,,1,1,2,,-3656,15688,1216,228,245,-152
36.158,36.12,2.88,0.77,0.94,5.37,-0.92,2.83,0.42,2.32,-0.41,293.00,612.00,77.00,133.00,498.00,991.00,679.00,869.00,,,,,,,,,,,,1,1,2,,-3656,15840,1140,5,216,-136
36.219,36.18,2.89,0.02,1.39,0.79,0.63,2.93,0.46,3.07,-0.90,290.00,623.00,77.00,153.00,496.00,986.00,688.00,855.00,,,,,,,,,,,,1,1,2,,-3776,15624,880,-267,116,-142
36.262,36.23,2.93,1.36,0.62,3.28,0.52,3.65,-0.33,3.44,-1.45,295.00,603.00,74.00,139.00,511.00,979.00,704.00,855.00,,,,,,,,,,,,1,1,2,,-3648,15524,1148,-523,100,-186
36.322,36.29,2.92,1.74,-0.24,6.49,-3.12,2.74,0.49,2.08,-0.44,307.00,608.00,85.00,135.00,497.00,993.00,683.00,878.00,,,,,,,,,,,,1,1,2,,-3548,15720,1288,-197,194,-82
36.405,36.34,2.91,-0.03,1.27,1.00,2.05,2.90,0.47,2.61,-0.61,292.00,626.00,71.00,146.00,496.00,987.00,683.00,864.00,,,,,,,,,,,,1,1,2,,-3688,15832,1288,-493,137,-53
36.426,36.40,2.94,0.33,1.41,1.21,2.78,3.45,-0.19,3.46,-1.43,288.00,615.00,68.00,142.00,509.00,983.00,703.00,854.00,,,,,,,,,,,,1,1,2,,-3536,15684,1348,-292,136,-152
36.487,36.45,2.93,1.09,0.46,5.19,-0.37,2.73,0.27,2.31,-0.73,299.00,612.00,75.00,132.00,503.00,999.00,691.00,877.00,,,,,,,,,,,,1,1,2,,-3724,15700,1328,-393,94,-65
36.529,36.51,2.89,0.30,0.73,3.44,-0.51,2.11,1.04,2.01,-0.25,299.00,627.00,78.00,142.00,488.00,1003.00,677.00,876.00,,,,,,,,,,,,1,1,2,,-3744,15692,1256,-262,59,-60
36.591,36.56,2.91,-0.20,1.59,0.02,4.01,3.23,0.28,3.10,-1.07,288.00,625.00,65.00,144.00,498.00,979.00,694.00,858.00,,,,,,,,,,,,1,1,3,,-3692,15724,1568,-306,104,-185
36.654,36.62,2.92,2.02,0.21,6.74,-2.08,3.13,0.28,3.02,-1.18,298.00,594.00,80.00,130.00,499.00,983.00,699.00,863.00,,,,,,,,,,,,1,1,3,,-3672,15716,1676,-217,145,-29
36.716,36.67,2.90,1.15,0.50,4.37,-0.82,2.64,0.75,2.59,-0.58,298.00,610.00,78.00,138.00,491.00,990.00,682.00,864.00,,,,,,,,,,,,1,1,3,,-3496,15628,1416,-109,265,-26
36.778,36.73,2.89,0.82,1.05,1.22,2.24,2.67,1.23,3.22,-0.96,291.00,609.00,70.00,144.00,478.00,976.00,688.00,851.00,,,,,,,,,,,,1,1,3,,-3584,15664,1444,-122,264,-122
36.819,36.78,2.93,0.91,1.28,2.63,2.85,3.65,-0.33,3.53,-1.72,287.00,603.00,66.00,134.00,511.00,979.00,713.00,858.00,,,,,,,,,,,,1,1,3,,-3496,15664,1352,-49,197,-134
36.88,36.84,2.91,1.36,0.37,5.75,-1.75,2.57,0.51,2.03,-0.53,299.00,607.00,80.00,134.00,498.00,999.00,687.00,882.00,,,,,,,,,,,,1,1,3,,-3484,15656,1548,-80,141,-181
36.942,36.89,2.93,-0.06,1.73,1.45,1.39,3.17,0.45,2.88,-0.70,285.00,619.00,73.00,146.00,494.00,977.00,683.00,857.00,,,,,,,,,,,,1,1,3,,-3564,15656,1560,-123,117,-158
37.004,36.95,2.95,0.65,1.17,2.14,3.30,3.45,-0.26,3.25,-1.39,290.00,611.00,65.00,135.00,511.00,985.00,704.00,860.00,,,,,,,,,,,,1,1,3,,-3528,15744,1360,-100,175,-168
37.066,37.00,2.95,1.58,0.11,6.63,-1.34,2.93,0.27,2.36,-0.64,302.00,606.00,77.00,128.00,501.00,991.00,687.00,873.00,,,,,,,,,,,,1,1,3,,-3600,15560,1416,-132,155,-147
37.128,37.06,2.93,1.15,0.20,2.61,1.51,2.54,0.59,1.95,-0.20,303.00,615.00,71.00,139.00,496.00,998.00,676.00,877.00,,,,,,,,,,,,1,1,3,,-3592,15664,1460,-86,99,-46
37.149,37.11,2.93,-0.32,1.82,2.37,3.51,3.00,0.33,3.30,-1.25,285.00,624.00,64.00,133.00,499.00,987.00,698.00,855.00,,,,,,,,,,,,1,1,3,,-3612,15668,1492,37,162,-136
37.191,37.17,2.93,1.69,0.01,6.54,-0.32,2.86,-0.07,2.28,-0.98,303.00,605.00,73.00,125.00,511.00,1003.00,701.00,884.00,,,,,,,,,,,,1,1,3,,-3580,15888,1440,-43,207,-342
37.252,37.22,2.91,0.82,0.93,4.28,0.69,2.60,0.61,2.26,-0.36,293.00,611.00,72.00,133.00,495.00,995.00,678.00,870.00,,,,,,,,,,,,1,1,3,,-3540,15508,1504,-91,92,-165
37.313,37.28,2.92,0.86,1.36,2.15,1.93,3.03,0.35,2.83,-0.85,286.00,603.00,70.00,140.00,498.00,985.00,689.00,862.00,,,,,,,,,,,,1,1,3,,-3604,15676,1504,-62,99,-146
37.376,37.33,2.93,1.52,0.88,5.00,0.19,3.23,0.03,3.17,-1.44,290.00,595.00,73.00,131.00,505.00,986.00,707.00,864.00,,,,,,,,,,,,1,1,3,,-3596,15692,1452,-130,153,-237
37.415,37.39,2.93,2.06,-0.29,14.74,-13.31,2.80,0.25,1.87,-0.50,306.00,601.00,127.00,128.00,503.00,997.00,688.00,887.00,,,,,,,,,,,,1,1,3,,-3664,15824,1292,-222,155,-201
37.497,37.44,2.94,0.44,1.12,1.22,2.50,3.10,0.26,2.74,-0.77,292.00,617.00,69.00,143.00,500.00,985.00,687.00,863.00,,,,,,,,,,,,1,1,3,,-3644,15648,1676,-111,141,-159
37.518,37.50,2.96,1.25,0.91,2.87,2.22,3.49,-0.20,3.47,-1.75,291.00,601.00,68.00,135.00,509.00,982.00,715.00,861.00,,,,,,,,,,,,1,1,3,,-3676,15776,1664,-66,170,-151
37.599,37.55,2.95,1.96,-0.14,7.76,-2.43,2.77,0.29,1.96,-0.56,304.00,601.00,80.00,126.00,502.00,997.00,689.00,885.00,,,,,,,,,,,,1,1,3,,-3692,15800,1544,31,191,-155
37.642,37.61,2.93,-0.52,2.41,3.95,-0.20,2.54,0.59,2.08,-0.52,277.00,619.00,76.00,138.00,496.00,998.00,686.00,880.00,,,,,,,,,,,,1,1,3,,-3576,15712,1308,-26,126,-187
37.702,37.66,2.94,0.33,1.41,2.37,3.51,3.00,0.18,2.92,-1.20,288.00,615.00,64.00,133.00,503.00,991.00,701.00,867.00,,,,,,,,,,,,1,1,3,,-3572,15668,1316,14,62,-164
37.744,37.72,2.93,1.79,-0.02,8.30,-0.14,2.73,0.05,2.01,-1.00,303.00,603.00,70.00,116.00,509.00,1005.00,705.00,894.00,,,,,,,,,,,,1,1,3,,-3608,15580,1420,-71,126,-200
37.807,37.77,2.87,0.13,1.09,5.75,-1.75,1.86,0.75,1.65,-0.43,294.00,625.00,80.00,134.00,498.00,1021.00,688.00,893.00,,,,,,,,,,,,1,1,3,,-3704,15684,1480,-50,137,-278
37.87,37.83,2.87,0.30,1.87,8.79,0.78,2.73,0.23,2.58,-0.87,281.00,608.00,66.00,111.00,504.00,1000.00,693.00,871.00,,,,,,,,,,,,1,1,3,,-3732,15632,1724,-54,164,-106
37.931,37.88,2.88,1.30,0.95,3.12,2.41,3.12,-0.15,2.80,-1.10,290.00,599.00,67.00,133.00,511.00,995.00,699.00,869.00,,,,,,,,,,,,1,1,3,,-3692,15572,1496,-44,195,-81
37.994,37.94,2.85,1.58,-0.01,8.16,-3.02,2.28,0.61,1.77,-0.52,304.00,608.00,82.00,126.00,498.00,1008.00,690.00,891.00,,,,,,,,,,,,1,1,3,,-3628,15660,1412,-68,178,-177
38.033,37.99,2.83,-0.43,1.99,0.53,3.01,2.57,0.58,2.26,-0.66,283.00,624.00,68.00,145.00,496.00,997.00,689.00,877.00,,,,,,,,,,,,1,1,3,,-3640,15620,1372,-95,58,-222
38.095,38.05,2.85,0.86,1.23,4.80,0.77,3.15,-0.13,3.17,-1.70,288.00,605.00,71.00,130.00,510.00,993.00,717.00,870.00,,,,,,,,,,,,1,1,3,,-3716,15644,1540,-100,77,-154
38.156,38.10,2.84,2.28,-0.37,14.04,-4.54,2.73,-0.02,1.90,-0.80,306.00,597.00,80.00,104.00,511.00,1007.00,699.00,893.00,,,,,,,,,,,,1,1,3,,-3648,15736,1580,-149,139,-126
38.3,38.16,2.82,0.33,1.41,4.16,-0.51,2.41,0.52,1.79,-0.47,288.00,615.00,77.00,138.00,499.00,1005.00,688.00,889.00,,,,,,,,,,,,1,1,3,,-3684,15748,1480,-51,181,-125
38.32,38.21,2.82,0.03,1.96,2.62,3.13,2.83,0.16,2.71,-1.23,281.00,613.00,65.00,133.00,505.00,998.00,705.00,875.00,,,,,,,,,,,,1,1,3,,-3644,15676,1588,-50,137,-136
38.342,38.27,2.81,1.63,0.53,7.15,-0.02,2.53,0.04,1.90,-0.96,295.00,598.00,71.00,121.00,511.00,1013.00,705.00,897.00,,,,,,,,,,,,1,1,3,,-3600,15628,1388,-10,95,-109
38.382,38.32,2.77,0.24,1.06,5.99,-1.83,1.95,0.64,1.46,-0.36,294.00,623.00,80.00,133.00,500.00,1020.00,688.00,898.00,,,,,,,,,,,,1,1,3,,-3632,15788,1516,-17,236,-103
38.424,38.38,2.75,-0.15,2.29,1.40,3.83,2.50,0.38,2.96,-1.27,277.00,612.00,64.00,137.00,502.00,1005.00,703.00,867.00,,,,,,,,,,,,1,1,3,,-3764,15736,1488,-132,155,-218
38.506,38.43,2.76,1.58,0.86,9.22,-0.19,2.99,-0.11,2.53,-1.09,290.00,594.00,69.00,112.00,511.00,999.00,702.00,878.00,,,,,,,,,,,,1,1,3,,-3632,15600,1524,-25,170,-140
38.527,38.49,2.75,1.80,0.60,7.25,-2.25,2.44,0.40,1.76,-0.46,293.00,593.00,80.00,128.00,502.00,1007.00,688.00,890.00,,,,,,,,,,,,1,1,3,,-3600,15572,1424,-32,144,-132
38.609,38.54,2.76,0.41,1.84,1.18,3.62,2.96,0.19,2.57,-0.82,281.00,606.00,65.00,139.00,503.00,992.00,691.00,870.00,,,,,,,,,,,,1,1,3,,-3716,15716,1532,179,82,-86
38.629,38.60,2.79,1.29,1.28,5.15,1.73,3.32,-0.22,3.22,-1.64,285.00,594.00,67.00,125.00,511.00,989.00,714.00,867.00,,,,,,,,,,,,1,1,3,,-3688,15496,1388,-179,32,-229
38.691,38.65,2.77,2.29,-0.07,9.83,-3.35,2.50,0.34,1.56,-0.34,301.00,592.00,81.00,119.00,503.00,1006.00,686.00,894.00,,,,,,,,,,,,1,1,3,,-3652,15764,1544,-405,36,-76
38.731,38.71,2.76,1.52,0.94,5.87,-1.08,2.47,0.69,2.19,-0.63,289.00,594.00,77.00,131.00,494.00,998.00,689.00,879.00,,,,,,,,,,,,1,1,3,,-3456,15392,1436,91,75,-210
38.793,38.76,2.79,1.01,1.50,3.85,1.89,3.42,-0.15,2.88,-1.32,283.00,597.00,68.00,131.00,508.00,983.00,706.00,871.00,,,,,,,,,,,,1,1,3,,-3620,15796,1228,-92,196,-213
38.854,38.82,2.79,2.36,0.47,7.00,0.83,2.76,0.04,1.92,-0.70,292.00,582.00,68.00,119.00,509.00,1004.00,695.00,890.00,,,,,,,,,,,,1,1,3,,-3636,15492,1260,-101,-18,-189
38.895,38.87,2.76,1.20,0.74,6.20,-0.71,2.21,0.63,1.76,-0.46,294.00,605.00,75.00,128.00,498.00,1010.00,688.00,890.00,,,,,,,,,,,,1,1,3,,-3584,15696,1376,72,-23,-115
38.977,38.93,2.77,0.41,1.84,1.40,3.83,2.99,-0.07,2.58,-1.22,281.00,606.00,64.00,137.00,510.00,998.00,706.00,879.00,,,,,,,,,,,,1,1,3,,-3728,15564,1440,-231,203,-263
39.04,38.98,2.78,2.08,0.89,7.74,0.04,2.93,0.09,2.49,-1.08,287.00,582.00,70.00,118.00,506.00,996.00,702.00,879.00,,,,,,,,,,,,1,1,3,,-3772,15612,1612,-321,101,-104
39.082,39.04,2.79,2.02,0.65,7.19,-1.29,2.93,0.17,2.13,-0.59,291.00,587.00,76.00,125.00,504.00,994.00,688.00,880.00,,,,,,,,,,,,1,1,3,,-3624,15596,1824,-83,246,-117
39.144,39.09,2.80,1.63,0.97,5.06,0.69,3.13,0.39,3.09,-1.02,288.00,591.00,71.00,129.00,496.00,980.00,692.00,857.00,,,,,,,,,,,,1,1,3,,-3588,15668,1492,-113,398,-125
39.204,39.15,2.85,1.96,1.05,5.08,0.94,3.72,-0.35,3.43,-1.79,285.00,582.00,70.00,128.00,511.00,977.00,717.00,863.00,,,,,,,,,,,,1,1,3,,-3576,15752,1372,-188,207,-175
39.245,39.20,2.92,2.57,-0.16,8.08,-2.30,4.17,-1.63,2.05,-0.64,301.00,587.00,79.00,124.00,543.00,993.00,691.00,884.00,,,,,,,,,,,,1,1,3,,-3592,15676,1356,-225,30,-139
39.328,39.26,2.92,1.13,1.20,4.55,0.86,3.00,0.47,2.59,-0.72,287.00,599.00,71.00,131.00,495.00,983.00,687.00,867.00,,,,,,,,,,,,1,1,3,,-3616,15724,1544,-46,66,-131
39.349,39.31,2.95,1.51,1.40,5.20,2.56,3.47,0.13,3.02,-1.18,282.00,587.00,64.00,122.00,500.00,974.00,699.00,863.00,,,,,,,,,,,,1,1,3,,-3604,15628,1580,-41,188,-156
39.39,39.37,2.95,2.36,0.54,9.42,-1.79,2.96,0.19,2.65,-1.05,291.00,581.00,75.00,116.00,503.00,992.00,699.00,873.00,,,,,,,,,,,,1,1,4,,-3788,15688,1568,23,201,-220
39.453,39.42,2.93,1.46,1.03,11.29,-2.91,2.51,0.79,2.02,-0.47,288.00,594.00,77.00,111.00,491.00,994.00,685.00,881.00,,,,,,,,,,,,1,1,4,,-3776,15616,1624,-30,141,-87
39.555,39.48,2.95,0.59,2.38,3.62,2.80,3.39,0.05,3.07,-1.38,272.00,593.00,65.00,129.00,503.00,979.00,706.00,866.00,,,,,,,,,,,,1,1,4,,-3652,15624,1264,-8,134,-150
39.575,39.53,2.96,2.46,-0.00,9.57,-2.33,3.25,-0.20,2.61,-1.25,299.00,587.00,77.00,117.00,511.00,991.00,707.00,879.00,,,,,,,,,,,,1,1,4,,-3836,15792,1488,-18,133,-275
39.615,39.59,2.97,1.80,0.85,10.34,-2.83,3.16,0.12,2.28,-0.64,289.00,589.00,78.00,115.00,503.00,986.00,688.00,876.00,,,,,,,,,,,,1,1,4,,-3740,15504,1644,-171,135,-133
39.718,39.64,2.94,1.57,1.32,3.57,1.19,2.26,1.72,2.94,-0.97,283.00,587.00,71.00,135.00,469.00,979.00,692.00,861.00,,,,,,,,,,,,1,1,4,,-3652,15612,1660,-47,225,-76
39.76,39.70,2.99,2.13,1.13,5.47,2.46,4.05,-0.47,3.70,-1.70,283.00,577.00,64.00,121.00,511.00,967.00,710.00,852.00,,,,,,,,,,,,1,1,4,,-3704,15680,1496,-121,287,-196
39.802,39.75,2.99,2.75,0.28,10.79,-2.50,2.96,0.26,2.14,-0.64,293.00,576.00,76.00,112.00,501.00,990.00,690.00,881.00,,,,,,,,,,,,1,1,4,,-3724,15636,1420,-39,325,-240
39.863,39.81,2.99,1.06,1.75,3.61,2.24,2.97,0.78,2.73,-0.79,279.00,592.00,67.00,131.00,487.00,976.00,688.00,864.00,,,,,,,,,,,,1,1,4,,-3688,15468,1480,-163,137,-109
39.905,39.86,3.02,1.96,1.25,5.24,3.73,3.57,0.10,3.55,-1.57,282.00,579.00,60.00,118.00,500.00,971.00,707.00,854.00,,,,,,,,,,,,1,1,4,,-3712,15732,1624,-85,115,-79
39.965,39.92,3.04,2.41,0.77,10.13,-1.53,3.36,0.13,2.60,-0.91,287.00,576.00,73.00,112.00,501.00,978.00,694.00,871.00,,,,,,,,,,,,1,1,4,,-3672,15620,1676,-148,130,-151
40.027,39.97,3.03,1.57,0.99,6.82,1.72,2.97,0.41,2.50,-0.71,288.00,592.00,65.00,117.00,497.00,986.00,688.00,870.00,,,,,,,,,,,,1,1,4,,-3692,15780,1400,-77,164,-204
40.069,40.03,3.06,1.29,1.41,3.11,4.15,3.62,-0.18,3.33,-1.42,283.00,592.00,61.00,127.00,507.00,976.00,704.00,858.00,,,,,,,,,,,,1,1,4,,-3760,15592,1612,-141,87,-136
40.131,40.08,3.08,2.30,0.68,7.13,1.90,3.32,-0.22,2.52,-1.17,289.00,580.00,64.00,115.00,511.00,989.00,705.00,880.00,,,,,,,,,,,,1,1,4,,-3728,15788,1612,-96,205,-135
40.172,40.14,3.07,1.91,0.43,6.42,0.76,2.93,0.24,2.23,-0.70,295.00,593.00,69.00,122.00,502.00,992.00,691.00,879.00,,,,,,,,,,,,1,1,4,,-3688,15708,1612,-158,211,-205
40.232,40.19,3.09,1.62,1.50,4.13,2.35,3.53,0.04,2.84,-0.91,280.00,583.00,66.00,128.00,502.00,974.00,691.00,863.00,,,,,,,,,,,,1,1,4,,-3724,15804,1472,-125,77,-56
40.273,40.25,3.14,2.02,1.30,7.27,0.74,4.12,-0.49,3.54,-1.77,281.00,577.00,68.00,118.00,511.00,965.00,715.00,859.00,,,,,,,,,,,,1,1,4,,-3644,15744,1620,-89,134,-177
