Time_Host,Time_Arduino,easingdata,CH1_Oxy,CH1_Deoxy,CH2_Oxy,CH2_Deoxy,CH3_Oxy,CH3_Deoxy,CH4_Oxy,CH4_Deoxy,CH1_PD730,CH1_PD850,CH2_PD730,CH2_PD850,CH3_PD730,CH3_PD850,CH4_PD730,CH4_PD850,Answers,airplane_playstate,trail_times,frameRate,Airplane X,Airplane Y,Correct,Wrong,Slow,AnswerRate,CorrectRate,VFTstates,VFTchoose,VFTCount,Culfstates,ax,ay,az,gx,gy,gz
0.003,5.27,-2.21,-2.77,0.50,-4.13,3.12,0.22,-5.15,-1.45,-0.77,585.00,1317.00,300.00,661.00,1065.00,1943.00,1217.00,4095.00,,,,,,,,,,,,0,0,0,,604,15556,3828,281,169,296
1.216,0.04,0.00,0.00,0.00,0.00,0.00,0.00,0.00,0.00,0.00,683.00,1391.00,491.00,831.00,1013.00,2318.00,1482.00,4095.00,,,,,,,,,,,,0,0,0,,-1152,14872,5660,-488,-608,-96
1.237,0.10,0.00,0.00,0.00,0.00,0.00,0.00,0.00,0.00,0.00,611.00,1424.00,426.00,955.00,976.00,2239.00,1525.00,4095.00,,,,,,,,,,,,0,0,0,,-1056,14956,5504,-532,-172,-201
1.258,0.15,0.00,0.00,0.00,0.00,0.00,0.00,0.00,0.00,0.00,630.00,1373.00,384.00,859.00,1108.00,2192.00,1519.00,4095.00,,,,,,,,,,,,0,0,0,,-1024,14976,5524,-556,-277,-331
1.279,0.21,0.00,0.00,0.00,0.00,0.00,0.00,0.00,0.00,0.00,702.00,1355.00,532.00,833.00,976.00,2345.00,1501.00,4095.00,,,,,,,,,,,,0,0,0,,-908,14912,5608,-466,-376,-380
1.3,0.26,0.00,0.00,0.00,0.00,0.00,0.00,0.00,0.00,0.00,625.00,1467.00,391.00,978.00,987.00,2194.00,1485.00,4095.00,,,,,,,,,,,,0,0,0,,-1032,14960,6016,-354,-299,-422
1.32,1.05,0.00,0.00,0.00,0.00,0.00,0.00,0.00,0.00,0.00,606.00,1357.00,368.00,849.00,1122.00,2155.00,1527.00,4095.00,,,,,,,,,,,,0,0,0,,-1192,14988,5644,13,1523,22
1.34,1.11,0.00,0.00,0.00,0.00,0.00,0.00,0.00,0.00,0.00,720.00,1321.00,560.00,810.00,961.00,2359.00,1493.00,4095.00,,,,,,,,,,,,0,0,0,,-1236,15032,5588,160,1625,-125
1.402,1.16,0.00,0.00,0.00,0.00,0.00,0.00,0.00,0.00,0.00,614.00,1499.00,383.00,1011.00,959.00,2173.00,1478.00,4095.00,,,,,,,,,,,,0,0,0,,-1240,14920,5048,114,1521,-17
1.482,1.22,0.00,0.00,0.00,0.00,0.00,0.00,0.00,0.00,0.00,572.00,1347.00,385.00,807.00,1123.00,2181.00,1476.00,4095.00,,,,,,,,,,,,0,0,0,,-1332,14884,5132,-42,971,-241
1.515,1.27,0.00,0.00,0.00,0.00,0.00,0.00,0.00,0.00,0.00,767.00,1274.00,554.00,818.00,953.00,2302.00,1491.00,4095.00,,,,,,,,,,,,0,0,0,,-1392,14788,5056,-49,394,-165
1.552,1.33,-0.01,-3.91,2.18,-5.12,3.79,-0.15,1.13,-0.84,1.24,623.00,1520.00,400.00,968.00,960.00,2192.00,1422.00,4095.00,,,,,,,,,,,,0,0,0,,-1304,14888,5176,84,-274,-34
1.614,1.38,0.08,-3.18,5.17,-1.82,3.29,1.77,-1.27,0.74,-1.10,523.00,1363.00,387.00,861.00,1056.00,2167.00,1568.00,4095.00,,,,,,,,,,,,0,0,0,,-1296,14944,5372,33,-575,-109
1.675,1.44,0.14,4.86,-3.87,1.78,-1.19,1.27,-0.88,-0.04,0.06,737.00,1264.00,462.00,842.00,1043.00,2187.00,1494.00,4095.00,,,,,,,,,,,,0,0,0,,-1344,14884,5392,138,-798,-65
1.717,1.49,0.09,0.46,-1.15,3.05,-2.93,-0.92,1.10,-0.80,1.17,689.00,1398.00,496.00,839.00,975.00,2261.00,1426.00,4095.00,,,,,,,,,,,,0,0,0,,-1208,14904,5328,150,-811,-133
1.839,1.55,0.09,-2.51,3.32,-4.33,3.53,0.07,1.41,-0.07,0.11,571.00,1395.00,400.00,945.00,942.00,2157.00,1491.00,4095.00,,,,,,,,,,,,0,0,0,,-1236,14968,5508,75,-498,-203
1.859,1.60,0.25,1.40,-0.13,-1.10,3.19,3.27,-2.58,-0.11,0.16,641.00,1311.00,384.00,839.00,1103.00,2115.00,1488.00,4095.00,,,,,,,,,,,,0,0,0,,-1180,14980,5396,56,-241,-413
1.9,1.66,0.14,3.31,-2.58,6.37,-6.19,-1.77,1.46,-0.47,0.69,707.00,1298.00,557.00,803.00,971.00,2316.00,1455.00,4095.00,,,,,,,,,,,,0,0,0,,-1264,14968,5028,-3,-306,-472
1.942,1.71,0.15,-2.12,1.61,-6.10,4.21,0.30,1.41,-0.74,1.09,622.00,1438.00,398.00,995.00,938.00,2137.00,1431.00,4095.00,,,,,,,,,,,,0,0,0,,-1336,14976,5248,20,-601,-567
2.003,1.77,0.30,-0.41,2.14,0.06,2.51,3.03,-3.00,0.24,-0.35,586.00,1325.00,390.00,816.00,1133.00,2159.00,1520.00,4095.00,,,,,,,,,,,,0,0,0,,-1332,14816,5220,1,-999,-557
2.064,1.82,0.18,5.34,-5.06,5.50,-6.32,-2.01,1.95,-0.57,0.84,779.00,1280.00,570.00,834.00,950.00,2308.00,1446.00,4095.00,,,,,,,,,,,,0,0,0,,-1336,14884,5252,114,-1120,-447
2.126,1.88,0.18,-2.81,1.64,-5.56,3.94,0.12,1.00,-1.16,1.72,629.00,1477.00,400.00,981.00,962.00,2176.00,1394.00,4095.00,,,,,,,,,,,,0,0,0,,-1320,14848,5468,-105,-861,-272
2.209,1.93,0.27,-2.55,4.33,-1.47,2.56,2.11,-1.99,0.40,-0.59,541.00,1360.00,400.00,866.00,1091.00,2179.00,1535.00,4095.00,,,,,,,,,,,,0,0,0,,-1308,15012,5584,-167,-362,-182
2.23,1.99,0.27,6.00,-5.35,3.19,-3.53,0.27,-0.38,-0.31,0.46,782.00,1257.00,511.00,848.00,1034.00,2245.00,1469.00,4095.00,,,,,,,,,,,,0,0,0,,-1332,14768,5276,-74,21,-96
2.27,2.04,0.22,-0.73,-0.72,1.26,-1.65,-0.72,0.42,-0.89,1.31,688.00,1449.00,478.00,870.00,1008.00,2285.00,1418.00,4095.00,,,,,,,,,,,,0,0,0,,-1312,15068,5228,-230,102,-224
2.331,2.10,0.21,-2.16,2.54,-3.47,1.90,-0.04,0.96,-0.15,0.22,592.00,1405.00,430.00,954.00,967.00,2192.00,1484.00,4095.00,,,,,,,,,,,,0,0,0,,-1224,14980,5356,-152,25,-16
2.391,2.15,0.33,2.55,-1.08,-0.83,2.44,2.68,-2.42,-0.25,0.37,661.00,1285.00,398.00,847.00,1105.00,2155.00,1475.00,4095.00,,,,,,,,,,,,0,0,0,,-1156,14840,5312,-37,-120,-169
2.431,2.21,0.24,2.72,-2.62,5.76,-5.75,-1.51,1.02,-0.75,1.11,716.00,1330.00,550.00,813.00,990.00,2320.00,1430.00,4095.00,,,,,,,,,,,,0,0,0,,-1176,15040,5264,-104,-178,-148
2.494,2.26,0.22,-1.46,1.01,-5.97,3.76,-0.12,1.53,-0.82,1.21,635.00,1424.00,407.00,1002.00,939.00,2166.00,1424.00,4095.00,,,,,,,,,,,,0,0,0,,-1092,14948,5244,-50,-472,-307
2.599,2.32,0.38,0.05,1.51,-0.46,2.78,3.30,-3.37,0.04,-0.05,601.00,1323.00,388.00,827.00,1150.00,2157.00,1501.00,4095.00,,,,,,,,,,,,0,0,0,,-1112,15208,5296,195,-704,-392
2.62,2.37,0.25,4.75,-4.62,5.91,-6.88,-2.24,2.01,-0.82,1.21,769.00,1295.00,583.00,833.00,951.00,2325.00,1424.00,4095.00,,,,,,,,,,,,0,0,0,,-1088,15064,5280,285,-789,-395
2.66,2.43,0.26,-3.07,2.02,-6.89,5.19,0.46,0.62,-1.21,1.79,619.00,1477.00,383.00,1000.00,976.00,2169.00,1390.00,4095.00,,,,,,,,,,,,0,0,0,,-1100,15200,5416,333,-588,-504
2.722,2.48,0.37,-1.45,3.39,-0.67,2.29,2.42,-2.42,0.24,-0.35,558.00,1335.00,400.00,845.00,1110.00,2177.00,1520.00,4095.00,,,,,,,,,,,,0,0,0,,-1128,14924,5324,294,-192,-467
2.785,2.54,0.31,6.38,-5.64,4.41,-5.03,-0.67,0.40,-0.60,0.89,789.00,1248.00,542.00,841.00,1008.00,2281.00,1443.00,4095.00,,,,,,,,,,,,0,0,0,,-1328,15116,5432,453,30,-288
2.827,2.59,0.27,-1.53,0.12,-1.47,0.35,-0.64,0.73,-1.41,2.08,667.00,1462.00,451.00,919.00,990.00,2259.00,1373.00,4095.00,,,,,,,,,,,,0,0,0,,-1464,15376,6152,1345,65,214
2.869,2.65,0.25,-2.06,2.07,-2.97,1.56,-0.13,0.54,-0.27,0.40,606.00,1417.00,434.00,944.00,991.00,2225.00,1473.00,4095.00,,,,,,,,,,,,0,0,0,,-1628,15688,7028,3765,18,820
2.93,2.70,0.35,2.61,-2.08,-0.73,1.68,2.35,-2.26,-0.68,1.01,697.00,1317.00,414.00,861.00,1102.00,2174.00,1436.00,4095.00,,,,,,,,,,,,0,0,0,,-1208,14968,5952,6120,-125,1919
2.991,2.76,0.25,1.43,-2.41,4.78,-4.49,-1.65,1.37,-1.49,2.20,725.00,1392.00,523.00,817.00,974.00,2311.00,1366.00,4095.00,,,,,,,,,,,,0,0,0,,-464,15236,3684,7718,-108,2583
3.053,2.81,0.21,-1.86,-0.04,-4.07,3.25,-0.50,2.20,-1.62,2.40,677.00,1488.00,404.00,942.00,912.00,2160.00,1355.00,4095.00,,,,,,,,,,,,0,0,0,,216,15756,2148,8374,-21,3150
3.113,2.87,0.36,-0.47,0.44,-1.37,6.65,3.16,-1.76,-1.37,2.03,643.00,1390.00,320.00,773.00,1057.00,2078.00,1376.00,4095.00,,,,,,,,,,,,0,0,0,,628,16548,964,7627,-770,2009
3.155,2.92,0.23,4.56,-7.38,8.14,-4.27,-2.20,3.43,-2.45,3.61,896.00,1405.00,486.00,711.00,880.00,2235.00,1288.00,4095.00,,,,,,,,,,,,0,0,0,,652,16388,-672,8436,-2573,851
3.217,2.98,0.19,-4.64,0.25,-5.34,8.57,-0.61,3.77,-3.27,4.83,701.00,1648.00,310.00,859.00,839.00,2079.00,1224.00,4095.00,,,,,,,,,,,,0,0,0,,596,15760,-1380,9794,-5196,452
3.319,3.03,0.34,0.79,-1.84,-5.76,17.46,3.13,-0.30,-1.95,2.88,711.00,1406.00,193.00,688.00,977.00,2000.00,1328.00,4095.00,,,,,,,,,,,,0,0,0,,692,16104,-1916,9520,-4909,212
3.34,3.09,0.24,5.39,-6.33,10.23,-0.95,-1.68,3.40,-2.88,4.25,834.00,1322.00,391.00,599.00,873.00,2191.00,1254.00,4095.00,,,,,,,,,,,,0,0,0,,488,16088,-3052,8348,-3539,-1794
3.38,3.14,0.12,-2.92,0.70,-3.84,9.82,-2.07,5.66,-4.03,5.95,663.00,1521.00,282.00,783.00,778.00,2094.00,1168.00,4095.00,,,,,,,,,,,,0,0,0,,-128,15796,-4324,8085,-2052,-3245
3.442,3.20,0.21,-3.74,5.22,-6.41,18.36,1.81,1.77,-1.16,3.99,527.00,1392.00,186.00,689.00,895.00,1994.00,1232.00,3851.00,,,,,,,,,,,,0,0,0,,-544,16256,-5820,6283,-1063,-3136
3.504,3.25,0.20,2.63,-1.55,5.06,5.80,-0.01,2.81,-3.24,5.18,677.00,1297.00,298.00,613.00,874.00,2083.00,1200.00,4051.00,,,,,,,,,,,,0,0,0,,-792,16244,-6132,2139,-1733,-2745
3.525,3.31,0.09,-0.39,0.21,1.41,7.59,-2.00,4.87,-4.00,5.91,650.00,1394.00,289.00,675.00,811.00,2133.00,1170.00,4095.00,,,,,,,,,,,,0,0,0,,-1360,14880,-5524,1553,-2630,-2783
3.586,3.36,0.02,-3.13,3.89,-4.35,14.15,-1.31,4.18,-3.59,5.30,560.00,1408.00,225.00,711.00,831.00,2114.00,1200.00,4095.00,,,,,,,,,,,,0,0,0,,-1816,14800,-5892,664,-2575,-1888
3.67,3.42,0.06,-1.30,2.56,-2.45,14.36,0.90,1.44,-2.97,4.38,582.00,1357.00,215.00,656.00,926.00,2085.00,1247.00,4095.00,,,,,,,,,,,,0,0,0,,-2068,15284,-5604,-47,-1715,-1156
3.691,3.47,-0.06,2.18,-1.40,7.31,3.11,-2.41,3.62,-3.61,5.32,677.00,1315.00,331.00,603.00,874.00,2242.00,1199.00,4095.00,,,,,,,,,,,,0,0,0,,-2132,15108,-5928,-996,-794,-916
3.752,3.53,-0.18,-4.19,3.22,-5.23,12.43,-2.40,4.96,-3.78,5.58,592.00,1495.00,251.00,771.00,813.00,2162.00,1186.00,4095.00,,,,,,,,,,,,0,0,0,,-1988,15196,-6024,-1369,-1000,-1236
3.814,3.58,-0.09,-3.02,4.84,-5.15,18.34,1.64,0.05,-2.35,3.46,531.00,1367.00,182.00,656.00,985.00,2102.00,1296.00,4095.00,,,,,,,,,,,,0,0,0,,-2476,15184,-5648,-2250,-874,-1192
3.855,3.64,-0.21,4.70,-4.14,10.09,0.52,-2.57,3.12,-3.35,4.94,750.00,1281.00,362.00,579.00,901.00,2287.00,1218.00,4095.00,,,,,,,,,,,,0,0,0,,-2816,15272,-5324,-3350,-415,-838
3.918,3.69,-0.34,-4.64,2.49,-4.63,10.88,-2.68,5.12,-4.16,6.13,621.00,1552.00,270.00,785.00,810.00,2177.00,1159.00,4095.00,,,,,,,,,,,,0,0,0,,-2932,15780,-4232,-3768,293,-387
3.98,3.75,-0.26,-4.73,6.59,-6.88,19.33,1.28,0.34,-2.26,3.33,498.00,1395.00,178.00,684.00,976.00,2115.00,1303.00,4095.00,,,,,,,,,,,,0,0,0,,-2800,15472,-4208,-4039,262,-306
4.041,3.80,-0.29,2.94,-3.05,6.38,3.20,-0.87,1.68,-2.97,4.38,730.00,1334.00,335.00,624.00,944.00,2222.00,1247.00,4095.00,,,,,,,,,,,,0,0,0,,-2636,15788,-3448,-4174,338,218
4.103,3.86,-0.39,-0.57,-0.72,1.71,6.50,-2.36,3.78,-3.66,5.40,686.00,1440.00,305.00,687.00,866.00,2228.00,1195.00,4095.00,,,,,,,,,,,,0,0,0,,-2608,15844,-3052,-5426,680,397
4.163,3.91,-0.41,-3.48,2.98,-4.45,13.78,-0.71,2.30,-2.87,4.23,592.00,1463.00,230.00,721.00,910.00,2171.00,1255.00,4095.00,,,,,,,,,,,,0,0,0,,-2484,15780,-2484,-8892,1435,662
4.205,3.97,-0.34,-1.23,0.27,-0.58,10.15,0.94,-0.23,-2.67,3.94,658.00,1439.00,261.00,682.00,1013.00,2177.00,1270.00,4095.00,,,,,,,,,,,,0,0,0,,-2496,15888,-560,-7704,2611,1064
4.247,4.02,-0.44,2.31,-5.38,7.13,0.28,-2.44,2.39,-3.11,4.59,838.00,1456.00,387.00,655.00,935.00,2320.00,1236.00,4095.00,,,,,,,,,,,,0,0,0,,-2064,16152,-352,-6935,2356,371
4.308,4.08,-0.50,-4.99,0.00,-4.80,8.87,-1.59,2.99,-3.37,4.96,715.00,1682.00,302.00,834.00,891.00,2207.00,1217.00,4095.00,,,,,,,,,,,,0,0,0,,-1888,16492,448,-4788,1679,319
4.411,4.13,-0.37,-0.20,-2.07,-0.43,9.06,2.03,-1.73,-1.86,2.75,733.00,1471.00,276.00,698.00,1077.00,2171.00,1335.00,4095.00,,,,,,,,,,,,0,0,0,,-1820,16260,536,-4140,638,-227
4.432,4.19,-0.49,3.38,-7.53,8.55,-2.98,-2.78,2.36,-2.56,3.78,923.00,1478.00,450.00,676.00,942.00,2353.00,1279.00,4095.00,,,,,,,,,,,,0,0,0,,-2000,16040,1508,-2756,199,-183
4.495,4.24,-0.56,-5.12,-0.13,-4.69,7.65,-1.86,2.65,-3.05,4.50,722.00,1697.00,322.00,858.00,912.00,2251.00,1241.00,4095.00,,,,,,,,,,,,0,0,0,,-1832,16284,1916,-2270,-249,-276
4.537,4.30,-0.48,-2.22,-0.38,-3.11,9.31,1.16,-1.16,-1.08,1.60,694.00,1523.00,286.00,771.00,1061.00,2213.00,1401.00,4095.00,,,,,,,,,,,,0,0,0,,-1980,16200,2168,-1320,-231,-553
4.578,4.35,-0.49,2.84,-6.19,5.37,-0.60,-0.82,0.44,-1.72,2.54,867.00,1457.00,419.00,719.00,1009.00,2293.00,1347.00,4095.00,,,,,,,,,,,,0,0,0,,-1920,15852,1976,-738,-205,-585
4.64,4.41,-0.58,-0.20,-4.20,1.90,1.29,-2.17,1.83,-2.12,3.13,823.00,1558.00,403.00,784.00,959.00,2330.00,1314.00,4095.00,,,,,,,,,,,,0,0,0,,-1964,15892,1988,-507,-371,-752
4.703,4.46,-0.60,-3.14,-0.49,-3.05,6.64,-1.00,1.61,-1.45,2.13,710.00,1584.00,330.00,826.00,950.00,2238.00,1370.00,4095.00,,,,,,,,,,,,0,0,0,,-2120,15888,1896,-231,-137,-636
4.787,4.52,-0.49,0.33,-2.64,0.32,5.18,1.49,-1.41,-1.39,2.04,749.00,1463.00,336.00,752.00,1069.00,2199.00,1375.00,4095.00,,,,,,,,,,,,0,0,0,,-2092,15816,1840,74,-262,-705
4.808,4.57,-0.59,2.43,-5.80,6.28,-2.10,-2.43,1.88,-1.78,2.63,855.00,1465.00,447.00,722.00,961.00,2351.00,1342.00,4095.00,,,,,,,,,,,,0,0,0,,-2284,15968,2036,479,-298,-525
4.85,4.63,-0.65,-3.44,-0.95,-4.71,6.87,-1.68,2.57,-1.86,2.75,732.00,1623.00,336.00,877.00,913.00,2240.00,1335.00,4095.00,,,,,,,,,,,,0,0,0,,-2560,15824,1924,323,96,-333
4.913,4.68,-0.53,-0.33,-1.56,-0.82,7.41,1.71,-1.93,-0.89,1.31,715.00,1459.00,304.00,741.00,1095.00,2210.00,1418.00,4095.00,,,,,,,,,,,,0,0,0,,-2520,15552,1460,-68,283,-142
4.975,4.74,-0.65,3.62,-7.26,7.55,-3.61,-2.88,2.32,-1.73,2.55,906.00,1454.00,474.00,715.00,946.00,2365.00,1346.00,4095.00,,,,,,,,,,,,0,0,0,,-2312,15856,1552,-458,295,141
5.037,4.79,-0.71,-4.37,-0.15,-4.83,6.91,-1.88,2.64,-2.35,3.46,713.00,1648.00,336.00,880.00,913.00,2254.00,1296.00,4095.00,,,,,,,,,,,,0,0,0,,-2132,15892,1564,-647,141,44
5.078,4.85,-0.60,-1.85,-0.18,-2.56,8.55,1.49,-1.58,-0.47,0.69,682.00,1493.00,295.00,770.00,1079.00,2209.00,1455.00,4095.00,,,,,,,,,,,,0,0,0,,-2252,16036,1688,-502,33,-62
5.162,4.90,-0.63,3.44,-6.67,6.12,-1.75,-1.32,0.64,-1.49,2.20,880.00,1441.00,440.00,720.00,1007.00,2326.00,1366.00,4095.00,,,,,,,,,,,,0,0,0,,-2260,15880,1496,-179,-526,-316
5.181,4.96,-0.71,-1.57,-2.96,0.51,2.13,-2.19,1.78,-1.95,2.88,789.00,1591.00,395.00,810.00,962.00,2335.00,1328.00,4095.00,,,,,,,,,,,,0,0,0,,-2272,15804,2104,-389,-822,-39
5.242,5.01,-0.73,-3.03,-0.89,-3.57,6.49,-1.12,1.44,-1.16,1.72,724.00,1594.00,336.00,847.00,961.00,2259.00,1394.00,4095.00,,,,,,,,,,,,0,0,0,,-2296,16008,2240,-12,-140,-49
5.303,5.07,-0.66,0.28,-2.75,0.73,4.82,0.69,-1.19,-1.26,1.85,754.00,1470.00,340.00,747.00,1072.00,2256.00,1386.00,4095.00,,,,,,,,,,,,0,0,0,,-2240,15852,2200,27,295,59
5.345,5.12,-0.76,2.00,-5.74,5.86,-2.24,-2.62,1.64,-1.55,2.29,859.00,1488.00,454.00,737.00,977.00,2384.00,1361.00,4095.00,,,,,,,,,,,,0,0,0,,-2196,15776,1924,116,614,59
5.408,5.18,-0.82,-3.76,-1.12,-4.32,6.04,-2.02,2.36,-1.67,2.47,743.00,1651.00,349.00,883.00,929.00,2283.00,1351.00,4095.00,,,,,,,,,,,,0,0,0,,-2024,16056,1496,-242,499,73
5.47,5.23,-0.73,-0.92,-1.82,0.10,5.25,1.05,-1.74,-0.94,1.39,733.00,1504.00,336.00,757.00,1097.00,2257.00,1413.00,4095.00,,,,,,,,,,,,0,0,0,,-2056,15904,1860,-491,163,42
5.511,5.29,-0.84,1.74,-6.24,4.91,-2.32,-3.02,2.31,-1.64,2.41,887.00,1524.00,464.00,767.00,949.00,2379.00,1354.00,4095.00,,,,,,,,,,,,0,0,0,,-2088,15888,1900,-249,142,-163
5.573,5.34,-0.89,-5.20,0.36,-5.68,7.25,-1.73,2.29,-2.22,3.28,704.00,1680.00,335.00,902.00,928.00,2262.00,1306.00,4095.00,,,,,,,,,,,,0,0,0,,-2152,15892,1732,-169,127,-190
5.635,5.40,-0.77,-1.54,-0.68,-1.82,7.21,1.49,-1.73,-0.63,0.92,697.00,1495.00,313.00,775.00,1088.00,2218.00,1441.00,4095.00,,,,,,,,,,,,0,0,0,,-2228,16008,1932,-70,110,-138
5.676,5.45,-0.83,3.62,-7.35,6.81,-3.08,-1.92,1.12,-1.55,2.29,910.00,1457.00,467.00,726.00,992.00,2351.00,1361.00,4095.00,,,,,,,,,,,,0,0,0,,-2124,15900,1828,-114,102,-128
5.737,5.51,-0.90,-2.17,-2.60,-1.09,3.00,-2.28,2.16,-2.28,3.37,782.00,1613.00,388.00,843.00,944.00,2320.00,1301.00,4095.00,,,,,,,,,,,,0,0,0,,-2204,15808,1840,-240,125,-75
5.798,5.56,-0.89,-2.84,-1.30,-3.19,5.93,-0.79,0.98,-1.13,1.66,738.00,1600.00,344.00,847.00,979.00,2257.00,1397.00,4095.00,,,,,,,,,,,,0,0,0,,-2132,15936,1940,-277,203,14
5.879,5.62,-0.83,0.28,-2.87,0.86,4.14,0.43,-0.81,-1.40,2.06,759.00,1475.00,352.00,757.00,1055.00,2256.00,1374.00,4095.00,,,,,,,,,,,,0,0,0,,-2256,15800,1824,-211,174,-14
5.9,5.67,-0.91,1.71,-5.64,4.91,-1.63,-2.54,1.67,-1.73,2.55,859.00,1501.00,447.00,753.00,974.00,2375.00,1346.00,4095.00,,,,,,,,,,,,0,0,0,,-2176,15868,2004,-207,194,35
5.961,5.73,-0.97,-3.50,-1.43,-4.20,5.53,-1.96,2.40,-1.70,2.50,752.00,1648.00,358.00,891.00,926.00,2275.00,1349.00,4095.00,,,,,,,,,,,,0,0,0,,-2120,15804,1904,-116,283,87
6.024,5.78,-0.84,-1.19,-1.40,-1.33,6.93,1.46,-2.08,-0.92,1.36,720.00,1503.00,315.00,766.00,1109.00,2241.00,1415.00,4095.00,,,,,,,,,,,,0,0,0,,-1992,15884,1932,-120,208,25
6.086,5.84,-0.98,2.83,-7.36,6.66,-3.92,-3.50,2.47,-1.67,2.47,924.00,1504.00,490.00,747.00,949.00,2414.00,1351.00,4095.00,,,,,,,,,,,,0,0,0,,-2112,15788,1828,-166,105,-39
6.127,5.89,-1.02,-5.30,0.11,-6.32,7.41,-1.93,2.29,-2.18,3.22,715.00,1698.00,336.00,921.00,931.00,2279.00,1309.00,4095.00,,,,,,,,,,,,0,0,0,,-2060,15856,2020,-148,203,-22
6.168,5.95,-0.92,-1.60,-0.96,-1.63,7.03,1.12,-1.61,-0.60,0.89,708.00,1509.00,315.00,773.00,1088.00,2243.00,1443.00,4095.00,,,,,,,,,,,,0,0,0,,-2008,15864,1888,-142,307,59
6.252,6.00,-0.99,3.79,-7.74,7.01,-3.89,-2.43,1.26,-1.55,2.29,927.00,1463.00,486.00,736.00,994.00,2391.00,1361.00,4095.00,,,,,,,,,,,,0,0,0,,-1884,16008,1872,-68,360,86
6.292,6.06,-1.08,-3.17,-2.07,-2.25,3.58,-2.69,2.39,-2.27,3.35,774.00,1655.00,384.00,869.00,939.00,2343.00,1302.00,4095.00,,,,,,,,,,,,0,0,0,,-1920,15892,1964,-294,146,-100
6.333,6.11,-1.08,-3.06,-1.31,-2.99,5.54,-1.05,1.07,-1.04,1.53,741.00,1614.00,350.00,849.00,979.00,2275.00,1405.00,4095.00,,,,,,,,,,,,0,0,0,,-1888,15904,2092,-154,122,-171
6.415,6.17,-1.01,0.13,-3.16,0.85,3.32,0.30,-0.76,-1.34,1.98,773.00,1495.00,368.00,774.00,1055.00,2265.00,1379.00,4095.00,,,,,,,,,,,,0,0,0,,-2000,15760,1916,-74,112,-127
6.476,6.22,-1.09,0.98,-5.20,4.06,-1.27,-2.75,2.01,-1.95,2.88,850.00,1527.00,445.00,771.00,960.00,2373.00,1328.00,4095.00,,,,,,,,,,,,0,0,0,,-2088,15860,2032,-102,234,-104
6.517,6.28,-1.14,-3.48,-1.49,-3.56,4.96,-1.97,2.39,-1.76,2.59,754.00,1649.00,365.00,882.00,927.00,2277.00,1344.00,4095.00,,,,,,,,,,,,0,0,0,,-1972,15928,1816,-155,267,-87
6.621,6.33,-1.01,-1.02,-1.44,-0.62,6.57,1.40,-1.82,-1.14,1.68,719.00,1494.00,317.00,752.00,1095.00,2231.00,1396.00,4095.00,,,,,,,,,,,,0,0,0,,-1932,15896,1952,-155,218,-148
6.642,6.39,-1.14,3.30,-7.60,6.89,-4.26,-3.50,2.53,-1.65,2.43,928.00,1486.00,497.00,747.00,946.00,2410.00,1353.00,4095.00,,,,,,,,,,,,0,0,0,,-1972,15796,1952,-178,199,-86
6.683,6.44,-1.17,-5.27,0.33,-6.10,7.34,-1.73,2.35,-2.13,3.15,706.00,1686.00,336.00,915.00,925.00,2258.00,1313.00,4095.00,,,,,,,,,,,,0,0,0,,-1888,15908,2008,-106,159,-132
6.724,6.50,-1.05,-1.36,-0.93,-1.68,7.10,1.19,-1.58,-0.75,1.11,704.00,1494.00,314.00,773.00,1085.00,2235.00,1430.00,4095.00,,,,,,,,,,,,0,0,0,,-2040,15908,1804,-184,91,-194
6.785,6.55,-1.13,3.57,-7.25,6.28,-3.06,-2.64,1.66,-1.60,2.36,906.00,1456.00,471.00,741.00,976.00,2384.00,1357.00,4095.00,,,,,,,,,,,,0,0,0,,-2076,15772,1932,-161,213,-131
6.846,6.61,-1.19,-3.62,-1.39,-3.31,4.72,-2.37,2.29,-2.33,3.44,752.00,1654.00,368.00,879.00,939.00,2320.00,1297.00,4095.00,,,,,,,,,,,,0,0,0,,-1932,15936,1924,-212,290,-75
6.908,6.66,-1.17,-3.39,-0.12,-3.83,6.91,-0.78,0.55,-0.94,1.39,699.00,1584.00,330.00,846.00,1002.00,2282.00,1413.00,4095.00,,,,,,,,,,,,0,0,0,,-2000,15860,1920,-124,209,-150
6.989,6.72,-1.11,0.36,-3.50,1.02,3.26,0.04,-0.57,-1.34,1.98,784.00,1495.00,368.00,770.00,1049.00,2277.00,1379.00,4095.00,,,,,,,,,,,,0,0,0,,-2064,15868,1904,-285,159,-121
7.01,6.77,-1.20,0.57,-4.69,3.37,-0.83,-2.99,2.08,-1.94,2.86,833.00,1531.00,440.00,783.00,960.00,2390.00,1329.00,4095.00,,,,,,,,,,,,0,0,0,,-1968,15928,1916,-161,144,-105
7.071,6.83,-1.26,-3.73,-1.20,-4.31,5.31,-2.34,2.51,-1.55,2.29,746.00,1653.00,363.00,900.00,927.00,2303.00,1361.00,4095.00,,,,,,,,,,,,0,0,0,,-1972,15900,2000,-153,176,36
7.112,6.88,-1.14,-1.25,-1.56,-1.84,6.81,1.04,-1.78,-1.11,1.63,727.00,1513.00,320.00,784.00,1100.00,2261.00,1399.00,4095.00,,,,,,,,,,,,0,0,0,,-2056,15880,2100,-279,128,-157
7.173,6.94,-1.26,3.06,-7.30,7.27,-4.28,-3.44,2.26,-1.65,2.43,917.00,1488.00,494.00,736.00,959.00,2422.00,1353.00,4095.00,,,,,,,,,,,,0,0,0,,-1972,16008,2032,-228,277,-86
7.215,6.99,-1.28,-5.08,0.11,-6.12,6.97,-1.77,2.24,-2.06,3.04,712.00,1683.00,343.00,925.00,931.00,2268.00,1319.00,4095.00,,,,,,,,,,,,0,0,0,,-2084,15768,2116,-87,219,16
7.278,7.05,-1.15,-1.10,-0.94,-1.38,6.42,1.31,-1.67,-0.81,1.19,701.00,1479.00,324.00,778.00,1088.00,2230.00,1425.00,4095.00,,,,,,,,,,,,0,0,0,,-2016,15928,1908,-250,276,12
7.361,7.10,-1.23,3.41,-6.91,6.16,-3.14,-2.75,1.74,-1.72,2.54,892.00,1452.00,474.00,746.00,974.00,2390.00,1347.00,4095.00,,,,,,,,,,,,0,0,0,,-1816,15928,1968,-297,170,-92
7.381,7.16,-1.29,-4.37,0.06,-3.35,4.19,-2.28,2.41,-2.45,3.61,705.00,1639.00,379.00,893.00,931.00,2304.00,1288.00,4095.00,,,,,,,,,,,,0,0,0,,-1896,15876,1960,-131,40,-325
7.443,7.21,-1.25,-3.31,0.12,-3.41,6.60,-0.60,0.40,-0.46,0.68,689.00,1569.00,333.00,839.00,1007.00,2275.00,1456.00,4095.00,,,,,,,,,,,,0,0,0,,-1928,15732,2040,-111,180,-113
7.504,7.27,-1.19,0.50,-3.52,1.08,2.56,-0.06,-0.43,-1.55,2.29,783.00,1488.00,382.00,783.00,1043.00,2277.00,1361.00,4095.00,,,,,,,,,,,,0,0,0,,-1820,15876,1836,-160,123,-193
7.565,7.32,-1.27,0.82,-4.64,3.40,-0.92,-2.71,2.05,-2.01,2.97,827.00,1514.00,442.00,784.00,957.00,2366.00,1323.00,4095.00,,,,,,,,,,,,0,0,0,,-1948,15888,2124,-152,82,-201
7.606,7.38,-1.32,-3.89,-0.50,-4.52,6.00,-2.24,2.56,-1.66,2.45,720.00,1632.00,351.00,891.00,923.00,2291.00,1352.00,4095.00,,,,,,,,,,,,0,0,0,,-1940,15892,2108,-101,91,-166
7.73,7.43,-1.19,-1.42,-1.07,-2.34,7.27,1.18,-1.65,-1.21,1.79,710.00,1503.00,315.00,790.00,1089.00,2240.00,1390.00,4095.00,,,,,,,,,,,,0,0,0,,-1984,15940,2164,-98,147,-96
7.751,7.49,-1.30,2.76,-6.58,6.45,-3.66,-3.38,2.22,-1.74,2.57,887.00,1477.00,485.00,748.00,960.00,2419.00,1345.00,4095.00,,,,,,,,,,,,0,0,0,,-1876,15948,1944,-70,173,-119
7.772,7.54,-1.32,-5.30,0.39,-6.81,7.41,-1.66,2.29,-2.13,3.15,704.00,1685.00,339.00,939.00,927.00,2256.00,1313.00,4095.00,,,,,,,,,,,,0,0,0,,-1852,15984,1932,-30,180,-198
7.833,7.60,-1.19,-1.32,-0.92,-1.36,6.53,1.20,-1.85,-0.80,1.17,703.00,1491.00,322.00,775.00,1101.00,2251.00,1426.00,4095.00,,,,,,,,,,,,0,0,0,,-1940,15876,1820,1,119,-59
7.894,7.65,-1.28,3.04,-6.64,5.87,-3.00,-2.95,1.77,-1.58,2.32,885.00,1463.00,473.00,752.00,976.00,2407.00,1359.00,4095.00,,,,,,,,,,,,0,0,0,,-2044,15772,1984,-251,40,-174
7.935,7.71,-1.34,-4.15,-0.96,-4.26,4.99,-2.37,2.38,-2.53,3.74,742.00,1670.00,369.00,906.00,934.00,2314.00,1281.00,4095.00,,,,,,,,,,,,0,0,0,,-1948,15976,2104,-66,142,-131
7.995,7.76,-1.29,-2.93,-0.06,-4.07,7.44,-0.40,0.18,-0.88,1.29,691.00,1553.00,322.00,842.00,1015.00,2270.00,1419.00,4095.00,,,,,,,,,,,,0,0,0,,-2056,15800,1968,-49,154,-66
8.097,7.82,-1.21,0.77,-3.87,1.29,2.20,0.24,-0.64,-1.53,2.25,794.00,1486.00,388.00,784.00,1049.00,2263.00,1363.00,4095.00,,,,,,,,,,,,0,0,0,,-1916,15916,2024,-117,191,-19
8.118,7.87,-1.29,0.70,-4.46,3.02,-0.46,-2.68,2.21,-2.21,3.26,821.00,1514.00,434.00,786.00,948.00,2353.00,1307.00,4095.00,,,,,,,,,,,,0,0,0,,-1828,15808,1952,-104,152,-38
8.158,7.93,-1.32,-3.85,-0.28,-4.45,5.98,-1.95,2.46,-1.76,2.59,711.00,1620.00,351.00,889.00,923.00,2271.00,1344.00,4095.00,,,,,,,,,,,,0,0,0,,-1872,15744,1868,-30,13,-254
8.22,7.98,-1.18,-1.14,-1.11,-1.84,6.81,1.47,-1.73,-1.29,1.91,708.00,1488.00,320.00,784.00,1088.00,2219.00,1383.00,4095.00,,,,,,,,,,,,0,0,0,,-1912,15972,1844,-101,94,-156
8.262,8.04,-1.28,3.06,-6.54,6.36,-3.28,-3.28,2.40,-1.79,2.64,880.00,1458.00,476.00,743.00,949.00,2398.00,1341.00,4095.00,,,,,,,,,,,,0,0,0,,-1896,15812,1928,-113,36,-207
8.324,8.09,-1.30,-5.29,0.63,-6.25,7.39,-1.52,2.24,-1.48,2.18,695.00,1674.00,336.00,919.00,927.00,2246.00,1367.00,4095.00,,,,,,,,,,,,0,0,0,,-2028,15980,2008,-50,43,-199
8.407,8.15,-1.15,-0.89,-0.66,-1.76,7.61,1.55,-1.87,-0.80,1.17,688.00,1456.00,306.00,765.00,1095.00,2221.00,1426.00,4095.00,,,,,,,,,,,,0,0,0,,-1996,15804,1996,-68,131,-161
8.448,8.20,-1.24,3.23,-6.53,6.69,-3.16,-2.80,2.00,-1.58,2.32,877.00,1448.00,470.00,731.00,961.00,2378.00,1359.00,4095.00,,,,,,,,,,,,0,0,0,,-1816,15892,1924,-46,127,-192
8.489,8.26,-1.29,-4.46,-0.53,-4.31,5.31,-2.31,2.66,-2.35,3.46,729.00,1671.00,363.00,900.00,919.00,2291.00,1296.00,4095.00,,,,,,,,,,,,0,0,0,,-1876,15892,1844,-122,129,-231
8.55,8.31,-1.23,-2.87,0.44,-3.04,7.10,-0.15,0.10,-0.70,1.04,672.00,1529.00,322.00,816.00,1015.00,2253.00,1434.00,4095.00,,,,,,,,,,,,0,0,0,,-1864,15892,1992,-77,68,-262
8.59,8.37,-1.18,0.71,-4.06,2.09,1.79,-0.13,-0.41,-1.20,1.77,803.00,1497.00,391.00,768.00,1043.00,2282.00,1391.00,4095.00,,,,,,,,,,,,0,0,0,,-2040,15932,1892,3,46,-129
8.673,8.42,-1.25,0.53,-4.29,3.14,-0.11,-2.60,2.11,-1.94,2.86,816.00,1517.00,425.00,775.00,952.00,2352.00,1329.00,4095.00,,,,,,,,,,,,0,0,0,,-2020,15824,1984,-171,52,-221
8.713,8.48,-1.27,-4.26,0.41,-4.79,6.90,-1.68,2.21,-1.50,2.22,690.00,1616.00,336.00,879.00,931.00,2262.00,1365.00,4095.00,,,,,,,,,,,,0,0,0,,-1964,16080,1976,-157,100,-179
8.816,8.53,-1.13,-1.05,-1.01,-1.75,7.01,1.55,-1.53,-1.21,1.79,703.00,1479.00,316.00,777.00,1075.00,2201.00,1390.00,4095.00,,,,,,,,,,,,0,0,0,,-2024,15784,1912,-65,168,-140
8.837,8.59,-1.22,2.89,-6.18,6.25,-2.81,-2.94,2.30,-1.95,2.88,866.00,1454.00,465.00,737.00,948.00,2372.00,1328.00,4095.00,,,,,,,,,,,,0,0,0,,-2028,15940,1876,-167,172,-98
8.877,8.64,-1.22,-5.02,0.70,-6.23,7.60,-1.31,2.47,-2.11,3.11,689.00,1653.00,332.00,913.00,912.00,2214.00,1315.00,4095.00,,,,,,,,,,,,0,0,0,,-1968,15928,1924,-97,98,-55
8.938,8.70,-1.07,-0.48,-0.91,-0.99,7.11,1.89,-1.78,-0.88,1.29,692.00,1442.00,310.00,752.00,1083.00,2186.00,1419.00,4095.00,,,,,,,,,,,,0,0,0,,-2112,15912,2000,-54,85,-164
8.98,8.75,-1.13,3.41,-6.59,6.92,-3.20,-2.38,2.07,-1.73,2.55,877.00,1440.00,469.00,725.00,950.00,2334.00,1346.00,4095.00,,,,,,,,,,,,0,0,0,,-2172,15832,1868,-129,110,-57
9.042,8.81,-1.15,-4.36,-0.39,-4.60,5.61,-1.43,2.13,-2.59,3.81,722.00,1658.00,359.00,903.00,931.00,2245.00,1277.00,4095.00,,,,,,,,,,,,0,0,0,,-2108,15888,1588,-114,-115,-90
9.083,8.86,-1.06,-2.44,0.07,-3.15,7.25,0.66,-0.12,-0.99,1.46,680.00,1518.00,320.00,816.00,1012.00,2195.00,1409.00,4095.00,,,,,,,,,,,,0,0,0,,-2940,15200,2560,477,-2114,1488
9.186,8.92,-0.99,1.16,-4.53,2.28,1.16,0.31,-0.18,-1.53,2.25,817.00,1489.00,403.00,775.00,1022.00,2229.00,1363.00,4095.00,,,,,,,,,,,,0,0,0,,-2472,16164,2592,-56,-1134,3152
9.207,8.97,-1.04,0.70,-4.71,2.83,-0.22,-2.06,2.08,-2.38,3.52,832.00,1524.00,430.00,787.00,944.00,2304.00,1293.00,4095.00,,,,,,,,,,,,0,0,0,,-1472,16184,1056,434,-2471,2530
9.249,9.03,-1.05,-4.01,-0.63,-4.47,6.30,-1.20,2.13,-1.78,2.63,727.00,1646.00,345.00,882.00,927.00,2224.00,1342.00,4095.00,,,,,,,,,,,,0,0,0,,-648,15704,976,584,-4119,2434
9.333,9.08,-0.92,-1.44,-1.83,-1.80,6.28,1.62,-1.45,-1.55,2.29,740.00,1535.00,329.00,794.00,1069.00,2190.00,1361.00,4095.00,,,,,,,,,,,,0,0,0,,-168,15932,1952,-514,-2507,1423
9.375,9.14,-1.01,2.57,-7.07,6.33,-3.73,-2.68,2.25,-2.04,3.00,914.00,1508.00,488.00,753.00,946.00,2351.00,1321.00,4095.00,,,,,,,,,,,,0,0,0,,-184,16308,2028,-1360,-317,520
9.437,9.19,-1.00,-5.38,-0.30,-6.53,6.89,-0.94,2.32,-2.55,3.76,732.00,1722.00,347.00,942.00,913.00,2190.00,1280.00,4095.00,,,,,,,,,,,,0,0,0,,-44,15956,2380,-1401,451,1027
9.5,9.25,-0.85,0.00,-2.31,0.19,5.22,2.15,-1.95,-1.37,2.03,740.00,1469.00,336.00,755.00,1088.00,2174.00,1376.00,4095.00,,,,,,,,,,,,0,0,0,,472,16396,3008,-451,657,1230
9.542,9.30,-0.90,2.61,-7.29,6.57,-4.04,-1.97,2.05,-2.28,3.37,924.00,1514.00,494.00,752.00,944.00,2298.00,1301.00,4095.00,,,,,,,,,,,,0,0,0,,640,16220,2904,-279,1314,591
9.625,9.36,-0.92,-4.46,-1.11,-4.73,5.15,-1.26,2.39,-3.17,4.67,752.00,1697.00,369.00,919.00,915.00,2214.00,1232.00,4095.00,,,,,,,,,,,,0,0,0,,288,15932,2048,-761,1128,-194
9.646,9.41,-0.82,-1.99,-1.00,-2.39,6.04,0.99,-0.24,-1.36,2.01,715.00,1535.00,337.00,818.00,1013.00,2174.00,1377.00,4095.00,,,,,,,,,,,,0,0,0,,-104,15900,1848,-616,639,-145
9.708,9.47,-0.74,1.30,-4.98,2.32,0.34,0.92,-0.60,-2.02,2.98,835.00,1499.00,421.00,791.00,1034.00,2201.00,1322.00,4095.00,,,,,,,,,,,,0,0,0,,300,15616,1712,605,607,573
9.77,9.52,-0.79,1.07,-5.16,3.33,-1.11,-1.71,2.00,-2.84,4.19,847.00,1520.00,447.00,790.00,942.00,2277.00,1257.00,4095.00,,,,,,,,,,,,0,0,0,,640,16036,1532,200,560,639
9.81,9.58,-0.79,-3.69,-0.56,-4.40,6.07,-0.80,2.18,-2.06,3.04,720.00,1622.00,349.00,885.00,918.00,2187.00,1319.00,4095.00,,,,,,,,,,,,0,0,0,,788,16180,1896,-1085,116,682
9.871,9.63,-0.64,-1.57,-0.99,-2.01,6.35,2.24,-1.76,-1.95,2.88,709.00,1509.00,329.00,799.00,1075.00,2155.00,1328.00,4095.00,,,,,,,,,,,,0,0,0,,364,15716,2336,-1272,-600,121
9.933,9.69,-0.73,2.18,-6.03,6.04,-3.60,-2.53,2.22,-2.21,3.26,870.00,1489.00,487.00,759.00,945.00,2339.00,1307.00,4095.00,,,,,,,,,,,,0,0,0,,648,15648,2680,-1366,-830,140
9.995,9.74,-0.72,-5.20,0.36,-6.44,6.13,-0.59,1.87,-2.40,3.53,704.00,1680.00,361.00,958.00,930.00,2187.00,1292.00,4095.00,,,,,,,,,,,,0,0,0,,556,15792,2616,-1764,-288,378
10.015,9.80,-0.59,-0.66,-1.01,-0.73,4.94,2.04,-2.19,-1.25,1.84,698.00,1456.00,347.00,789.00,1104.00,2197.00,1387.00,4095.00,,,,,,,,,,,,0,0,0,,688,16188,2796,-2073,-45,66
10.075,9.85,-0.67,3.60,-6.61,6.04,-4.95,-2.36,1.97,-1.97,2.91,875.00,1430.00,524.00,787.00,955.00,2339.00,1326.00,4095.00,,,,,,,,,,,,0,0,0,,156,15876,3324,-2570,105,-656
10.137,9.91,-0.75,-4.53,0.11,-4.86,4.27,-2.20,2.77,-2.52,3.72,705.00,1647.00,388.00,946.00,912.00,2275.00,1282.00,4095.00,,,,,,,,,,,,0,0,0,,-364,15600,3564,-2715,464,-541
10.198,9.96,-0.69,-2.83,1.41,-2.09,3.43,0.45,-0.81,-0.77,1.14,637.00,1487.00,386.00,867.00,1055.00,2255.00,1428.00,4095.00,,,,,,,,,,,,0,0,0,,-424,14420,3936,-2272,631,-483
10.299,10.02,-0.62,1.98,-4.06,0.66,-0.37,0.71,-1.20,-1.52,2.24,785.00,1424.00,451.00,861.00,1072.00,2255.00,1364.00,4095.00,,,,,,,,,,,,0,0,0,,84,15300,3736,-1388,558,774
10.32,10.07,-0.68,0.23,-2.95,3.26,-2.93,-1.73,1.17,-2.35,3.46,763.00,1481.00,494.00,832.00,986.00,2331.00,1296.00,4095.00,,,,,,,,,,,,0,0,0,,708,15676,3944,-838,-98,1214
10.36,10.13,-0.68,-3.58,1.72,-4.54,3.59,-0.79,1.44,-1.56,2.31,635.00,1519.00,400.00,951.00,955.00,2229.00,1360.00,4095.00,,,,,,,,,,,,0,0,0,,1212,15932,4392,-441,-264,781
10.423,10.18,-0.53,-1.00,0.17,-2.48,4.44,2.39,-2.67,-1.37,2.03,659.00,1430.00,368.00,857.00,1126.00,2195.00,1376.00,4095.00,,,,,,,,,,,,0,0,0,,1280,15532,4860,-453,61,81
10.462,10.24,-0.63,2.32,-3.78,5.58,-5.49,-2.57,1.66,-1.73,2.55,768.00,1394.00,544.00,813.00,975.00,2378.00,1346.00,4095.00,,,,,,,,,,,,0,0,0,,876,15596,4972,-508,510,-409
10.524,10.29,-0.62,-4.42,1.40,-7.29,5.23,-0.43,1.32,-1.91,2.82,656.00,1584.00,385.00,1015.00,955.00,2205.00,1331.00,4095.00,,,,,,,,,,,,0,0,0,,552,15872,4980,-966,693,-1092
10.585,10.35,-0.49,-1.69,1.77,-0.02,2.54,2.09,-2.68,-0.90,1.32,612.00,1408.00,390.00,818.00,1133.00,2222.00,1417.00,4095.00,,,,,,,,,,,,0,0,0,,252,15356,4584,-490,574,-1217
10.669,10.40,-0.57,4.14,-5.48,4.77,-5.25,-2.13,1.53,-1.62,2.40,815.00,1358.00,545.00,834.00,974.00,2345.00,1355.00,4095.00,,,,,,,,,,,,0,0,0,,-4,15452,4728,-226,14,-777
10.689,10.46,-0.59,-4.47,1.03,-5.48,3.87,-1.01,1.32,-2.35,3.46,670.00,1603.00,401.00,980.00,965.00,2256.00,1296.00,4095.00,,,,,,,,,,,,0,0,0,,124,14936,4440,55,-201,-54
10.751,10.51,-0.52,-3.66,3.42,-2.37,3.28,0.89,-1.17,-0.60,0.89,580.00,1456.00,391.00,880.00,1067.00,2237.00,1443.00,4095.00,,,,,,,,,,,,0,0,0,,136,15500,4332,55,-456,34
10.792,10.57,-0.48,2.83,-4.40,1.31,-1.15,0.28,-0.83,-1.34,1.98,787.00,1389.00,465.00,857.00,1059.00,2271.00,1379.00,4095.00,,,,,,,,,,,,0,0,0,,296,15368,4488,196,-50,78
10.853,10.62,-0.55,-0.22,-2.53,2.53,-2.87,-1.99,1.18,-2.04,3.00,752.00,1491.00,499.00,855.00,990.00,2354.00,1321.00,4095.00,,,,,,,,,,,,0,0,0,,268,15452,4020,55,326,145
10.914,10.68,-0.58,-5.04,3.98,-5.02,3.76,-1.09,1.41,-1.22,1.80,577.00,1515.00,400.00,965.00,962.00,2258.00,1389.00,4095.00,,,,,,,,,,,,0,0,0,,404,15500,4236,-567,129,-11
11.017,10.73,-0.45,-1.12,0.01,-2.87,4.32,2.09,-2.55,-1.28,1.89,666.00,1443.00,373.00,873.00,1125.00,2214.00,1384.00,4095.00,,,,,,,,,,,,0,0,0,,580,15296,4504,-65,358,411
11.038,10.79,-0.56,2.21,-3.86,5.67,-5.86,-2.65,1.65,-1.77,2.61,773.00,1403.00,554.00,818.00,977.00,2386.00,1343.00,4095.00,,,,,,,,,,,,0,0,0,,644,15588,4264,-376,506,82
11.077,10.84,-0.56,-3.97,0.86,-6.81,4.78,-0.60,1.30,-1.96,2.89,670.00,1579.00,391.00,1008.00,959.00,2221.00,1327.00,4095.00,,,,,,,,,,,,0,0,0,,388,15492,4296,-515,356,-274
11.139,10.90,-0.42,-1.49,1.61,-0.50,2.75,2.10,-2.75,-0.88,1.29,615.00,1403.00,389.00,829.00,1137.00,2225.00,1419.00,4095.00,,,,,,,,,,,,0,0,0,,316,15320,4120,-456,205,-436
11.2,10.95,-0.53,4.11,-5.50,4.94,-5.68,-2.47,1.61,-1.53,2.25,816.00,1360.00,556.00,838.00,976.00,2372.00,1363.00,4095.00,,,,,,,,,,,,0,0,0,,132,15180,4692,-673,467,-731
11.264,11.01,-0.55,-4.03,0.83,-5.38,3.60,-1.04,1.11,-2.31,3.40,672.00,1584.00,406.00,983.00,977.00,2272.00,1299.00,4095.00,,,,,,,,,,,,0,0,0,,84,14940,4676,-523,961,-209
11.306,11.06,-0.48,-3.26,3.19,-2.36,3.19,0.96,-1.44,-0.58,0.86,583.00,1442.00,393.00,882.00,1081.00,2247.00,1445.00,4095.00,,,,,,,,,,,,0,0,0,,172,15392,4428,-600,587,23
11.408,11.12,-0.44,3.51,-4.56,1.76,-1.81,0.19,-0.97,-1.27,1.87,784.00,1358.00,478.00,857.00,1069.00,2288.00,1385.00,4095.00,,,,,,,,,,,,0,0,0,,248,15056,4960,-648,524,317
11.428,11.17,-0.52,-0.40,-2.18,2.73,-4.15,-1.89,0.83,-1.95,2.88,740.00,1487.00,533.00,878.00,1007.00,2367.00,1328.00,4095.00,,,,,,,,,,,,0,0,0,,520,15448,4744,-328,333,416
11.47,11.23,-0.54,-3.34,2.14,-4.73,3.02,-1.06,1.15,-1.16,1.72,618.00,1488.00,414.00,973.00,975.00,2271.00,1394.00,4095.00,,,,,,,,,,,,0,0,0,,688,15308,4868,-282,192,181
11.531,11.28,-0.41,-0.62,-0.24,-2.29,3.16,2.06,-2.79,-1.02,1.51,669.00,1424.00,393.00,880.00,1140.00,2231.00,1406.00,4095.00,,,,,,,,,,,,0,0,0,,792,15540,4716,-264,91,-25
11.574,11.34,-0.54,1.81,-3.31,5.15,-5.97,-2.94,1.37,-1.45,2.13,756.00,1405.00,563.00,838.00,997.00,2432.00,1370.00,4095.00,,,,,,,,,,,,0,0,0,,440,15456,4724,-130,-74,-471
11.614,11.39,-0.57,-4.29,1.33,-7.35,4.40,-1.05,1.15,-1.58,2.32,657.00,1579.00,403.00,1040.00,975.00,2270.00,1359.00,4095.00,,,,,,,,,,,,0,0,0,,380,15376,4712,-97,-204,-443
11.675,11.45,-0.44,-1.18,0.86,-0.59,2.17,1.92,-3.01,-0.67,0.99,637.00,1414.00,402.00,845.00,1157.00,2257.00,1437.00,4095.00,,,,,,,,,,,,0,0,0,,288,15216,4712,-79,-180,-100
11.757,11.50,-0.56,4.09,-5.47,4.78,-6.02,-2.79,1.54,-1.45,2.13,815.00,1360.00,568.00,851.00,985.00,2406.00,1370.00,4095.00,,,,,,,,,,,,0,0,0,,396,15284,4536,105,-98,2
11.778,11.56,-0.59,-4.02,0.91,-5.88,3.59,-1.14,1.03,-2.16,3.18,669.00,1580.00,410.00,1003.00,983.00,2286.00,1311.00,4095.00,,,,,,,,,,,,0,0,0,,480,15352,4656,-18,-20,-21
11.84,11.61,-0.51,-3.64,3.57,-2.53,3.11,0.88,-1.75,-0.44,0.64,575.00,1449.00,396.00,890.00,1101.00,2273.00,1458.00,4095.00,,,,,,,,,,,,0,0,0,,444,15284,4540,-90,148,-107
11.922,11.67,-0.49,3.83,-4.76,1.66,-1.97,-0.10,-0.93,-1.15,1.70,788.00,1348.00,483.00,864.00,1072.00,2311.00,1395.00,4095.00,,,,,,,,,,,,0,0,0,,448,15484,4536,-52,220,-144
11.943,11.72,-0.57,-0.38,-2.11,1.64,-2.72,-2.10,0.79,-1.76,2.59,737.00,1483.00,503.00,882.00,1013.00,2389.00,1344.00,4095.00,,,,,,,,,,,,0,0,0,,380,15172,4552,-147,54,-35
12.006,11.78,-0.61,-3.33,2.08,-4.71,2.84,-1.26,1.16,-1.00,1.48,620.00,1490.00,418.00,977.00,978.00,2288.00,1408.00,4095.00,,,,,,,,,,,,0,0,0,,380,15584,4428,-99,-97,-101
12.068,11.83,-0.49,-0.10,-0.66,-2.09,3.00,1.85,-2.72,-1.18,1.73,678.00,1411.00,395.00,877.00,1140.00,2245.00,1393.00,4095.00,,,,,,,,,,,,0,0,0,,544,15572,4252,161,-188,-87
12.128,11.89,-0.61,2.84,-4.91,5.35,-5.88,-2.98,1.27,-1.43,2.11,809.00,1408.00,558.00,829.00,1003.00,2442.00,1371.00,4095.00,,,,,,,,,,,,0,0,0,,356,15368,4224,243,-42,-249
12.169,11.94,-0.70,-3.82,0.92,-7.28,4.52,-2.35,2.82,-1.60,2.36,666.00,1567.00,400.00,1034.00,912.00,2285.00,1357.00,4095.00,,,,,,,,,,,,0,0,0,,376,15888,4608,17,279,-397
12.23,12.00,-0.60,-1.39,0.90,-0.51,2.01,1.17,-2.68,-0.40,0.59,638.00,1424.00,405.00,846.00,1152.00,2304.00,1461.00,4095.00,,,,,,,,,,,,0,0,0,,432,14564,4428,336,508,-184
12.292,12.05,-0.74,3.74,-5.46,4.44,-6.03,-3.25,1.62,-1.36,2.01,820.00,1379.00,572.00,863.00,989.00,2445.00,1377.00,4095.00,,,,,,,,,,,,0,0,0,,352,15544,4204,48,501,-87
12.333,12.11,-0.77,-4.48,1.14,-6.28,4.00,-1.49,0.70,-1.91,2.82,666.00,1599.00,404.00,1008.00,1007.00,2338.00,1331.00,4095.00,,,,,,,,,,,,0,0,0,,200,15544,4384,-102,581,-619
12.394,12.16,-0.72,-3.99,3.66,-2.78,2.73,0.32,-1.84,-0.12,0.17,576.00,1466.00,406.00,908.00,1118.00,2330.00,1487.00,4095.00,,,,,,,,,,,,0,0,0,,100,15252,4092,47,854,-470
12.497,12.22,-0.72,3.64,-5.00,1.12,-2.28,-0.79,-1.03,-0.89,1.31,801.00,1367.00,496.00,890.00,1092.00,2382.00,1418.00,4095.00,,,,,,,,,,,,0,0,0,,240,14644,4412,-352,278,-269
12.518,12.27,-0.80,-1.14,-1.90,0.72,-2.51,-2.20,0.29,-1.53,2.25,739.00,1520.00,506.00,910.00,1043.00,2431.00,1363.00,4095.00,,,,,,,,,,,,0,0,0,,-156,15612,4276,87,8,-798
12.559,12.33,-0.84,-3.45,1.88,-4.78,2.30,-1.58,0.80,-0.74,1.09,628.00,1505.00,431.00,994.00,1003.00,2340.00,1431.00,4095.00,,,,,,,,,,,,0,0,0,,-84,14896,4088,424,-488,-975
12.621,12.38,-0.72,0.35,-1.43,-2.20,2.49,1.43,-2.78,-0.98,1.44,701.00,1415.00,407.00,893.00,1153.00,2287.00,1410.00,4095.00,,,,,,,,,,,,0,0,0,,-60,15128,4444,319,-696,93
12.68,12.44,-0.85,1.56,-3.40,4.67,-5.72,-3.19,1.16,-1.22,1.80,763.00,1422.00,560.00,848.00,1013.00,2470.00,1389.00,4095.00,,,,,,,,,,,,0,0,0,,340,14840,5184,-215,-547,1089
12.741,12.49,-0.88,-3.77,1.16,-7.18,3.98,-1.44,1.02,-1.37,2.03,657.00,1554.00,411.00,1045.00,989.00,2314.00,1376.00,4095.00,,,,,,,,,,,,0,0,0,,868,15856,5108,-305,-8,1349
12.803,12.55,-0.77,-1.29,1.13,-0.82,2.21,1.29,-3.09,-0.46,0.68,629.00,1410.00,403.00,852.00,1175.00,2318.00,1456.00,4095.00,,,,,,,,,,,,0,0,0,,992,15336,5576,-692,377,625
12.864,12.60,-0.89,3.59,-5.00,4.05,-6.19,-3.25,1.36,-1.19,1.75,802.00,1370.00,581.00,880.00,1003.00,2462.00,1392.00,4095.00,,,,,,,,,,,,0,0,0,,896,15780,4860,-225,636,221
12.885,12.66,-0.93,-4.12,1.22,-6.45,3.69,-1.60,0.72,-1.99,2.93,659.00,1573.00,412.00,1023.00,1008.00,2347.00,1325.00,4095.00,,,,,,,,,,,,0,0,0,,544,15240,4848,-260,195,610
12.947,12.71,-0.87,-3.67,3.62,-2.53,2.20,0.28,-1.98,-0.08,0.12,574.00,1449.00,416.00,912.00,1127.00,2342.00,1490.00,4095.00,,,,,,,,,,,,0,0,0,,1076,15200,4920,465,166,708
12.988,12.77,-0.87,4.70,-5.56,1.71,-2.81,-0.92,-0.87,-1.02,1.51,810.00,1331.00,505.00,882.00,1085.00,2384.00,1406.00,4095.00,,,,,,,,,,,,0,0,0,,1076,15600,4948,-110,353,116
13.049,12.82,-0.93,-1.34,-1.35,0.42,-2.16,-2.16,0.26,-1.82,2.68,720.00,1510.00,499.00,912.00,1044.00,2429.00,1339.00,4095.00,,,,,,,,,,,,0,0,0,,1024,16212,4756,370,911,450
13.111,12.88,-0.98,-3.34,2.14,-4.71,2.23,-1.79,0.89,-1.00,1.48,618.00,1488.00,432.00,993.00,1002.00,2354.00,1408.00,4095.00,,,,,,,,,,,,0,0,0,,960,15136,4404,447,332,-456
13.153,12.93,-0.87,0.03,-1.19,-2.25,2.19,1.13,-2.94,-0.82,1.21,696.00,1424.00,414.00,902.00,1169.00,2324.00,1424.00,4095.00,,,,,,,,,,,,0,0,0,,988,15120,4480,151,495,37
13.257,12.99,-0.99,1.50,-3.26,4.44,-6.16,-3.23,0.71,-1.19,1.75,758.00,1420.00,576.00,866.00,1039.00,2504.00,1392.00,4095.00,,,,,,,,,,,,0,0,0,,992,14980,4864,-310,434,-558
13.277,13.04,-1.02,-3.22,0.80,-7.65,3.65,-1.60,0.96,-1.48,2.18,663.00,1535.00,422.00,1074.00,995.00,2332.00,1367.00,4095.00,,,,,,,,,,,,0,0,0,,660,15276,4076,565,254,-792
13.318,13.10,-0.89,-1.61,1.20,-1.07,1.93,1.51,-3.55,-0.47,0.69,630.00,1425.00,411.00,867.00,1200.00,2327.00,1455.00,4095.00,,,,,,,,,,,,0,0,0,,480,15528,4044,293,-517,-1303
13.38,13.15,-1.03,3.74,-5.33,3.96,-6.09,-3.57,1.58,-1.34,1.98,814.00,1374.00,579.00,881.00,997.00,2479.00,1379.00,4095.00,,,,,,,,,,,,0,0,0,,236,15840,4144,194,-63,-1372
13.462,13.21,-1.05,-3.91,0.81,-6.42,3.73,-1.53,0.69,-1.99,2.93,671.00,1577.00,411.00,1021.00,1008.00,2342.00,1325.00,4095.00,,,,,,,,,,,,0,0,0,,92,15244,3888,-190,116,-1334
13.504,13.26,-0.98,-3.33,3.21,-1.52,2.03,0.46,-2.14,-0.23,0.33,583.00,1445.00,412.00,880.00,1133.00,2335.00,1477.00,4095.00,,,,,,,,,,,,0,0,0,,68,15304,3620,-450,163,-1070
13.605,13.32,-0.99,4.45,-5.61,2.40,-3.19,-1.18,-0.77,-0.26,0.38,816.00,1346.00,509.00,867.00,1084.00,2402.00,1474.00,4095.00,,,,,,,,,,,,0,0,0,,-248,15112,3828,-593,-328,-1343
13.624,13.37,-1.05,-1.18,-1.84,-0.11,-1.83,-2.23,0.16,-1.54,2.27,737.00,1520.00,495.00,923.00,1051.00,2443.00,1362.00,4095.00,,,,,,,,,,,,0,0,0,,-348,15176,4152,-1009,-167,-447
13.644,13.43,-1.08,-3.20,1.56,-4.51,2.21,-1.74,0.76,-0.82,1.21,636.00,1503.00,431.00,986.00,1008.00,2357.00,1424.00,4095.00,,,,,,,,,,,,0,0,0,,32,15452,4160,-833,-431,32
13.706,13.48,-0.98,0.91,-1.64,-1.91,2.53,1.04,-2.67,-0.97,1.43,702.00,1392.00,404.00,882.00,1154.00,2315.00,1411.00,4095.00,,,,,,,,,,,,0,0,0,,288,15252,4236,-638,-898,456
13.768,13.54,-1.08,1.72,-3.53,4.39,-5.66,-3.08,0.64,-1.25,1.84,766.00,1418.00,561.00,856.00,1040.00,2494.00,1387.00,4095.00,,,,,,,,,,,,0,0,0,,520,15588,4644,-1069,-566,970
13.83,13.59,-1.12,-3.07,0.59,-7.11,3.69,-1.91,1.10,-1.32,1.94,669.00,1535.00,417.00,1050.00,993.00,2352.00,1381.00,4095.00,,,,,,,,,,,,0,0,0,,680,15804,4744,-1051,-98,729
13.871,13.65,-1.01,-1.69,1.32,-1.80,2.44,1.07,-3.48,-0.28,0.41,627.00,1425.00,405.00,880.00,1205.00,2363.00,1472.00,4095.00,,,,,,,,,,,,0,0,0,,588,15116,4936,-979,244,370
13.973,13.70,-1.16,3.82,-5.29,4.30,-6.56,-3.84,1.49,-1.00,1.48,811.00,1368.00,590.00,880.00,1007.00,2512.00,1408.00,4095.00,,,,,,,,,,,,0,0,0,,436,15516,4908,-1205,267,-226
13.994,13.76,-1.17,-3.32,0.95,-6.90,3.71,-1.49,0.23,-1.58,2.32,659.00,1535.00,415.00,1041.00,1033.00,2368.00,1359.00,4095.00,,,,,,,,,,,,0,0,0,,452,15316,5284,-977,174,-280
14.035,13.81,-1.10,-3.76,3.91,-2.53,2.10,0.37,-2.51,0.21,-0.31,566.00,1443.00,418.00,914.00,1158.00,2367.00,1517.00,4095.00,,,,,,,,,,,,0,0,0,,144,15056,5568,-551,152,-251
14.098,13.87,-1.10,5.10,-5.90,1.77,-3.86,-1.10,-1.13,-0.69,1.02,819.00,1322.00,534.00,905.00,1104.00,2418.00,1435.00,4095.00,,,,,,,,,,,,0,0,0,,336,15036,5368,-53,283,360
14.159,13.92,-1.14,-1.83,-0.85,-0.65,-1.87,-2.05,-0.27,-1.18,1.73,707.00,1519.00,501.00,944.00,1072.00,2453.00,1393.00,4095.00,,,,,,,,,,,,0,0,0,,444,14904,5132,-96,290,636
14.202,13.98,-1.17,-3.33,2.35,-4.36,1.24,-1.67,0.47,-0.57,0.84,611.00,1479.00,453.00,1006.00,1023.00,2369.00,1446.00,4095.00,,,,,,,,,,,,0,0,0,,668,15112,5024,-271,449,632
14.264,14.03,-1.06,1.34,-1.42,-2.19,1.82,1.06,-2.87,-0.69,1.02,688.00,1360.00,422.00,909.00,1166.00,2326.00,1435.00,4095.00,,,,,,,,,,,,0,0,0,,716,15360,5160,-188,638,352
14.325,14.09,-1.16,1.38,-2.42,4.04,-5.96,-3.02,0.44,-0.93,1.38,726.00,1395.00,574.00,875.00,1050.00,2501.00,1414.00,4095.00,,,,,,,,,,,,0,0,0,,808,15200,4892,-335,645,216
14.406,14.14,-1.18,-2.58,0.87,-6.36,2.70,-1.66,0.77,-1.07,1.58,653.00,1494.00,434.00,1047.00,1006.00,2349.00,1402.00,4095.00,,,,,,,,,,,,0,0,0,,720,15156,4752,-99,323,132
14.427,14.20,-1.06,-1.31,1.37,-1.63,1.98,1.23,-3.50,-0.15,0.22,621.00,1402.00,414.00,885.00,1203.00,2350.00,1484.00,4095.00,,,,,,,,,,,,0,0,0,,752,15152,5124,-348,150,-42
14.508,14.25,-1.20,3.91,-4.76,3.62,-6.51,-3.81,1.44,-0.85,1.26,787.00,1344.00,596.00,903.00,1009.00,2512.00,1421.00,4095.00,,,,,,,,,,,,0,0,0,,924,15312,5164,-280,244,92
14.529,14.31,-1.21,-3.49,1.20,-7.44,3.76,-1.34,0.07,-1.40,2.06,652.00,1535.00,418.00,1062.00,1039.00,2364.00,1374.00,4095.00,,,,,,,,,,,,0,0,0,,816,15108,5104,-218,169,-53
14.59,14.36,-1.12,-3.49,4.11,-2.56,1.51,0.41,-2.67,0.24,-0.35,557.00,1420.00,432.00,930.00,1167.00,2373.00,1520.00,4095.00,,,,,,,,,,,,0,0,0,,836,15236,5124,-288,108,-276
14.652,14.42,-1.15,5.09,-5.71,1.79,-4.38,-1.71,-0.67,-0.63,0.92,811.00,1316.00,549.00,917.00,1089.00,2447.00,1441.00,4095.00,,,,,,,,,,,,0,0,0,,736,15220,5080,-124,13,-308
14.732,14.47,-1.21,-2.12,-0.62,-1.26,-1.59,-2.24,-0.24,-1.15,1.70,702.00,1527.00,499.00,960.00,1074.00,2470.00,1395.00,4095.00,,,,,,,,,,,,0,0,0,,580,15112,5424,-153,12,-212
14.754,14.53,-1.24,-3.17,2.29,-4.48,1.07,-1.86,0.53,-0.29,0.43,611.00,1472.00,458.00,1015.00,1023.00,2383.00,1471.00,4095.00,,,,,,,,,,,,0,0,0,,756,15036,5104,35,98,-275
14.816,14.58,-1.13,1.30,-1.35,-1.96,1.35,0.93,-2.90,-0.42,0.63,686.00,1360.00,431.00,912.00,1171.00,2340.00,1459.00,4095.00,,,,,,,,,,,,0,0,0,,692,15124,5028,-60,21,-300
14.858,14.64,-1.22,2.07,-3.33,3.91,-5.98,-2.88,0.27,-0.84,1.24,753.00,1391.00,576.00,880.00,1057.00,2499.00,1422.00,4095.00,,,,,,,,,,,,0,0,0,,580,15184,5320,-35,5,-259
14.918,14.69,-1.22,-1.82,0.53,-6.25,2.28,-1.15,-0.01,-0.78,1.16,656.00,1463.00,443.00,1054.00,1040.00,2351.00,1427.00,4095.00,,,,,,,,,,,,0,0,0,,520,15080,5216,-40,21,-285
14.999,14.75,-1.13,-0.83,0.74,-1.01,0.56,0.44,-2.86,-0.31,0.46,637.00,1399.00,442.00,897.00,1179.00,2383.00,1469.00,4095.00,,,,,,,,,,,,0,0,0,,660,15116,5108,-42,-40,-407
15.063,14.80,-1.26,4.08,-5.00,3.65,-6.80,-3.70,1.37,-0.76,1.12,795.00,1344.00,605.00,909.00,1011.00,2506.00,1429.00,4095.00,,,,,,,,,,,,0,0,0,,564,15032,5100,-147,-82,-336
15.083,14.86,-1.27,-3.93,1.43,-7.76,4.09,-1.34,0.12,-1.32,1.94,649.00,1552.00,413.00,1066.00,1036.00,2360.00,1381.00,4095.00,,,,,,,,,,,,0,0,0,,552,15160,4948,-193,-45,-368
15.144,14.91,-1.17,-3.16,3.51,-2.32,1.51,0.64,-2.74,0.38,-0.56,572.00,1424.00,430.00,921.00,1167.00,2357.00,1533.00,4095.00,,,,,,,,,,,,0,0,0,,536,15112,5184,-308,-27,-428
15.205,14.97,-1.19,5.26,-5.88,2.11,-4.66,-1.58,-0.68,-0.46,0.68,816.00,1313.00,554.00,912.00,1087.00,2435.00,1456.00,4095.00,,,,,,,,,,,,0,0,0,,476,15112,5328,-353,173,-161
15.246,15.02,-1.24,-2.16,-0.43,-1.73,-1.40,-2.14,-0.26,-1.06,1.56,695.00,1521.00,498.00,973.00,1073.00,2461.00,1403.00,4095.00,,,,,,,,,,,,0,0,0,,436,14940,5340,-313,299,-112
15.308,15.08,-1.26,-3.12,2.22,-4.57,1.11,-1.73,0.24,-0.34,0.50,613.00,1472.00,458.00,1018.00,1037.00,2390.00,1467.00,4095.00,,,,,,,,,,,,0,0,0,,540,15104,5176,-76,216,-96
15.37,15.13,-1.16,1.20,-1.45,-2.87,2.09,0.75,-2.86,-0.29,0.43,691.00,1369.00,421.00,927.00,1172.00,2354.00,1471.00,4095.00,,,,,,,,,,,,0,0,0,,632,15424,5024,-110,86,-114
15.431,15.19,-1.26,0.90,-1.98,3.55,-5.83,-3.11,0.26,-0.57,0.84,715.00,1405.00,575.00,889.00,1062.00,2522.00,1446.00,4095.00,,,,,,,,,,,,0,0,0,,608,15036,5168,-199,39,-134
15.493,15.24,-1.28,-2.48,0.75,-7.17,2.80,-1.75,0.77,-0.70,1.04,656.00,1493.00,438.00,1078.00,1008.00,2358.00,1434.00,4095.00,,,,,,,,,,,,0,0,0,,540,15060,5152,-81,97,-257
15.535,15.30,-1.15,-1.75,1.91,-2.26,2.28,1.31,-3.65,0.21,-0.31,608.00,1406.00,412.00,900.00,1211.00,2352.00,1517.00,4095.00,,,,,,,,,,,,0,0,0,,608,15068,5076,-285,96,-120
15.575,15.35,-1.29,3.87,-4.72,3.75,-6.86,-3.81,1.46,-0.58,0.86,786.00,1345.00,606.00,907.00,1008.00,2511.00,1445.00,4095.00,,,,,,,,,,,,0,0,0,,624,15100,5140,-429,128,-96
15.636,15.41,-1.28,-3.77,1.61,-7.79,3.97,-1.16,-0.01,-0.98,1.44,641.00,1535.00,416.00,1071.00,1040.00,2352.00,1410.00,4095.00,,,,,,,,,,,,0,0,0,,636,15204,5128,-355,140,-191
15.698,15.46,-1.19,-3.05,3.93,-2.03,1.42,0.50,-2.71,0.63,-0.93,558.00,1402.00,430.00,913.00,1168.00,2368.00,1557.00,4095.00,,,,,,,,,,,,0,0,0,,484,15080,5336,-349,203,-220
15.761,15.52,-1.22,5.70,-5.97,2.18,-4.71,-1.69,-0.61,-0.23,0.33,813.00,1293.00,555.00,911.00,1085.00,2441.00,1477.00,4095.00,,,,,,,,,,,,0,0,0,,488,14960,5232,-242,204,-214
15.823,15.57,-1.26,-1.97,-0.33,-1.66,-1.12,-2.12,-0.28,-0.70,1.04,689.00,1506.00,490.00,963.00,1074.00,2461.00,1434.00,4095.00,,,,,,,,,,,,0,0,0,,456,15108,5344,-221,153,-193
15.864,15.63,-1.28,-3.13,2.77,-3.99,0.35,-1.62,0.16,0.24,-0.35,595.00,1451.00,472.00,1015.00,1039.00,2384.00,1520.00,4095.00,,,,,,,,,,,,0,0,0,,484,15024,5380,-310,132,-147
15.904,15.68,-1.17,1.85,-1.56,-2.11,1.53,0.89,-3.04,-0.61,0.91,687.00,1338.00,428.00,913.00,1181.00,2353.00,1442.00,4095.00,,,,,,,,,,,,0,0,0,,468,15016,5276,-431,93,-134
15.966,15.74,-1.27,1.42,-2.23,4.00,-6.11,-3.04,0.08,-0.26,0.38,718.00,1386.00,579.00,880.00,1071.00,2527.00,1474.00,4095.00,,,,,,,,,,,,0,0,0,,484,15072,5408,-540,160,-186
16.027,15.79,-1.31,-2.06,0.30,-6.88,2.41,-2.05,0.63,-0.28,0.41,667.00,1486.00,445.00,1077.00,1021.00,2395.00,1472.00,4095.00,,,,,,,,,,,,0,0,0,,388,14912,5588,-484,181,-226
16.069,15.85,-1.19,-2.30,3.09,-2.61,2.31,1.08,-3.81,0.40,-0.59,576.00,1392.00,414.00,912.00,1227.00,2384.00,1535.00,4095.00,,,,,,,,,,,,0,0,0,,396,14948,5548,-370,195,-218
16.17,15.90,-1.32,3.72,-4.51,3.37,-6.68,-3.95,0.98,-0.18,0.27,779.00,1345.00,604.00,916.00,1037.00,2557.00,1481.00,4095.00,,,,,,,,,,,,0,0,0,,472,15148,5576,-306,178,-100
16.191,15.96,-1.33,-3.84,1.72,-8.13,3.95,-1.39,-0.28,-0.69,1.02,638.00,1535.00,419.00,1086.00,1060.00,2391.00,1435.00,4095.00,,,,,,,,,,,,0,0,0,,472,14912,5792,-376,218,-71
16.232,16.01,-1.24,-3.14,3.92,-2.38,1.45,0.46,-2.90,0.80,-1.17,559.00,1407.00,432.00,925.00,1181.00,2384.00,1573.00,4095.00,,,,,,,,,,,,0,0,0,,448,14960,5656,-174,213,-170
16.295,16.07,-1.28,5.61,-6.00,1.92,-4.86,-2.01,-0.52,-0.09,0.14,816.00,1299.00,562.00,924.00,1086.00,2466.00,1489.00,4095.00,,,,,,,,,,,,0,0,0,,496,15004,5464,-156,198,-155
16.356,16.12,-1.32,-2.43,0.12,-2.30,-1.13,-2.14,-0.46,-0.72,1.06,678.00,1515.00,496.00,988.00,1085.00,2475.00,1433.00,4095.00,,,,,,,,,,,,0,0,0,,340,14968,5656,-243,152,-71
16.398,16.18,-1.34,-3.08,2.69,-4.90,0.98,-1.68,0.08,0.18,-0.26,597.00,1451.00,464.00,1035.00,1045.00,2395.00,1514.00,4095.00,,,,,,,,,,,,0,0,0,,520,15036,5408,-139,175,-111
16.46,16.23,-1.24,1.71,-1.48,-2.91,1.67,0.70,-3.03,0.00,-0.00,686.00,1343.00,431.00,939.00,1184.00,2369.00,1498.00,4095.00,,,,,,,,,,,,0,0,0,,456,14844,5592,-230,100,-170
16.544,16.29,-1.33,1.27,-2.18,3.36,-5.92,-3.04,-0.02,-0.29,0.43,718.00,1392.00,580.00,898.00,1077.00,2534.00,1471.00,4095.00,,,,,,,,,,,,0,0,0,,612,14952,5588,-255,31,-173
16.564,16.34,-1.36,-2.52,0.90,-7.11,2.37,-2.03,0.77,-0.28,0.41,651.00,1489.00,448.00,1088.00,1013.00,2384.00,1472.00,4095.00,,,,,,,,,,,,0,0,0,,416,14880,5856,-268,85,-117
16.645,16.40,-1.24,-1.65,1.99,-2.59,1.99,1.02,-3.72,0.40,-0.59,604.00,1397.00,421.00,919.00,1222.00,2383.00,1535.00,4095.00,,,,,,,,,,,,0,0,0,,508,14952,5760,-354,79,-161
16.686,16.45,-1.37,3.50,-4.44,3.22,-6.90,-3.81,1.04,-0.38,0.56,779.00,1354.00,613.00,927.00,1031.00,2539.00,1463.00,4095.00,,,,,,,,,,,,0,0,0,,408,14964,5712,-294,126,-59
16.748,16.51,-1.38,-4.12,1.67,-8.10,3.59,-1.49,-0.06,-1.12,1.65,643.00,1554.00,427.00,1095.00,1049.00,2386.00,1398.00,4095.00,,,,,,,,,,,,0,0,0,,480,14876,5820,-274,137,-114
16.789,16.56,-1.29,-3.63,4.29,-2.79,1.29,0.33,-2.87,0.40,-0.59,553.00,1421.00,439.00,944.00,1182.00,2394.00,1535.00,4095.00,,,,,,,,,,,,0,0,0,,564,14988,5748,-131,61,-99
16.851,16.62,-1.32,5.39,-5.91,1.40,-4.81,-1.95,-0.64,-0.45,0.66,815.00,1307.00,566.00,942.00,1092.00,2468.00,1457.00,4095.00,,,,,,,,,,,,0,0,0,,568,14940,5724,-91,40,-211
16.912,16.67,-1.38,-2.69,0.02,-2.60,-1.43,-2.47,-0.25,-1.02,1.51,685.00,1535.00,507.00,1008.00,1079.00,2493.00,1406.00,4095.00,,,,,,,,,,,,0,0,0,,604,15040,5440,-173,24,-182
16.953,16.73,-1.40,-3.54,2.78,-5.37,1.14,-1.81,0.11,-0.11,0.16,599.00,1474.00,464.00,1050.00,1046.00,2406.00,1488.00,4095.00,,,,,,,,,,,,0,0,0,,452,14740,5808,-143,8,-87
17.016,16.78,-1.29,1.37,-1.45,-3.12,1.65,0.77,-2.91,-0.46,0.68,689.00,1360.00,433.00,947.00,1175.00,2355.00,1456.00,4095.00,,,,,,,,,,,,0,0,0,,452,14920,5924,-5,42,-248
17.077,16.84,-1.38,0.83,-2.03,3.11,-5.97,-3.05,0.07,-0.80,1.17,718.00,1411.00,584.00,908.00,1072.00,2529.00,1426.00,4095.00,,,,,,,,,,,,0,0,0,,540,14864,5420,-122,-65,-205
17.119,16.89,-1.40,-2.92,1.30,-7.15,2.26,-1.83,0.70,-0.88,1.29,642.00,1497.00,451.00,1093.00,1013.00,2369.00,1419.00,4095.00,,,,,,,,,,,,0,0,0,,440,14980,5676,-252,-106,-157
17.18,16.95,-1.28,-2.10,2.02,-2.51,1.88,1.09,-3.76,0.00,-0.00,608.00,1421.00,423.00,919.00,1223.00,2379.00,1498.00,4095.00,,,,,,,,,,,,0,0,0,,516,15056,5624,-173,-1,-201
17.303,17.00,-1.40,3.70,-4.48,2.92,-6.86,-3.73,1.16,-0.80,1.17,778.00,1345.00,615.00,937.00,1023.00,2523.00,1426.00,4095.00,,,,,,,,,,,,0,0,0,,392,14920,5612,-144,-62,-257
17.325,17.06,-1.39,-3.84,1.72,-8.16,3.48,-1.15,-0.19,-1.43,2.11,638.00,1535.00,430.00,1101.00,1050.00,2362.00,1371.00,4095.00,,,,,,,,,,,,0,0,0,,508,15000,5772,-91,-57,-128
17.364,17.11,-1.30,-3.85,4.77,-2.53,0.91,0.44,-2.79,0.10,-0.15,541.00,1415.00,446.00,944.00,1174.00,2378.00,1507.00,4095.00,,,,,,,,,,,,0,0,0,,408,14892,5600,815,50,-212
17.406,17.17,-1.32,5.51,-5.97,1.90,-5.27,-1.76,-0.69,-0.80,1.17,816.00,1303.00,575.00,935.00,1091.00,2453.00,1426.00,4095.00,,,,,,,,,,,,0,0,0,,376,14768,5536,-2,-341,-82
17.447,17.22,-1.36,-2.55,-0.19,-0.69,-4.14,-2.16,-0.47,-1.49,2.20,691.00,1535.00,567.00,1005.00,1086.00,2477.00,1366.00,4095.00,,,,,,,,,,,,0,0,0,,516,14984,5764,-93,-210,-79
17.509,17.28,-1.39,-3.58,2.61,-5.20,0.92,-1.92,0.21,-0.66,0.97,605.00,1483.00,468.00,1049.00,1042.00,2409.00,1438.00,4095.00,,,,,,,,,,,,0,0,0,,424,14960,5664,-223,128,-244
17.55,17.33,-1.29,1.03,-1.39,-3.29,1.75,0.61,-3.03,-0.74,1.09,691.00,1376.00,432.00,951.00,1186.00,2378.00,1431.00,4095.00,,,,,,,,,,,,0,0,0,,504,14732,5724,-119,138,-216
17.651,17.39,-1.35,0.80,-2.33,3.24,-6.35,-2.53,-1.06,-1.16,1.72,730.00,1424.00,595.00,913.00,1129.00,2554.00,1394.00,4095.00,,,,,,,,,,,,0,0,0,,444,14800,5392,-193,68,-192
17.672,17.44,-1.38,-3.12,1.02,-6.37,1.83,-1.84,0.34,-1.20,1.77,654.00,1520.00,455.00,1072.00,1033.00,2393.00,1391.00,4095.00,,,,,,,,,,,,0,0,0,,584,14828,5516,-257,128,45
17.714,17.50,-1.25,-1.88,1.62,-2.60,1.61,1.16,-3.92,-0.39,0.58,619.00,1424.00,430.00,929.00,1232.00,2383.00,1462.00,4095.00,,,,,,,,,,,,0,0,0,,488,14892,5752,-573,133,-144
17.776,17.55,-1.39,3.42,-4.64,2.83,-6.92,-4.00,1.25,-1.08,1.60,789.00,1366.00,618.00,942.00,1023.00,2544.00,1401.00,4095.00,,,,,,,,,,,,0,0,0,,620,15032,5560,-515,265,-141
17.859,17.61,-1.38,-4.28,1.52,-8.25,3.81,-1.34,-0.23,-1.68,2.48,650.00,1570.00,423.00,1095.00,1056.00,2383.00,1350.00,4095.00,,,,,,,,,,,,0,0,0,,568,14868,5768,-218,127,-108
17.88,17.66,-1.29,-4.43,5.10,-3.07,1.42,0.44,-2.88,-0.03,0.04,537.00,1435.00,438.00,951.00,1180.00,2384.00,1495.00,4095.00,,,,,,,,,,,,0,0,0,,544,14856,5660,-288,-84,-217
17.942,17.72,-1.32,5.19,-5.63,1.16,-4.54,-1.73,-0.82,-0.89,1.31,806.00,1308.00,560.00,944.00,1098.00,2458.00,1418.00,4095.00,,,,,,,,,,,,0,0,0,,544,14904,5916,-339,119,-189
18.003,17.77,-1.36,-2.53,-0.11,-2.15,-1.73,-2.25,-0.42,-1.42,2.10,688.00,1531.00,511.00,998.00,1085.00,2483.00,1372.00,4095.00,,,,,,,,,,,,0,0,0,,464,14716,5668,-474,76,-367
18.067,17.83,-1.39,-3.66,2.89,-5.49,1.14,-1.92,0.25,-0.52,0.77,597.00,1477.00,465.00,1055.00,1040.00,2407.00,1450.00,4095.00,,,,,,,,,,,,0,0,0,,464,14840,5744,-506,-2,-374
18.108,17.88,-1.29,1.06,-1.13,-1.41,-0.86,0.70,-3.18,-0.56,0.82,681.00,1365.00,481.00,947.00,1194.00,2379.00,1447.00,4095.00,,,,,,,,,,,,0,0,0,,408,14808,5788,-539,10,-360
18.171,17.94,-1.39,0.80,-2.18,2.71,-5.74,-3.33,0.16,-0.89,1.31,724.00,1418.00,581.00,917.00,1072.00,2551.00,1418.00,4095.00,,,,,,,,,,,,0,0,0,,480,14776,6012,-547,-34,-400
18.233,17.99,-1.42,-2.92,1.07,-7.69,2.64,-2.00,0.40,-0.92,1.36,650.00,1506.00,446.00,1105.00,1033.00,2405.00,1415.00,4095.00,,,,,,,,,,,,0,0,0,,424,14740,5836,-563,-16,-371
18.273,18.05,-1.30,-1.87,1.77,-2.20,1.30,0.86,-3.81,-0.11,0.16,614.00,1418.00,434.00,922.00,1232.00,2405.00,1488.00,4095.00,,,,,,,,,,,,0,0,0,,348,14736,5928,-730,61,-388
18.376,18.10,-1.43,3.39,-4.52,2.36,-6.43,-3.91,0.90,-0.78,1.16,784.00,1363.00,607.00,947.00,1041.00,2559.00,1427.00,4095.00,,,,,,,,,,,,0,0,0,,328,14632,6240,-758,205,-322
18.417,18.16,-1.44,-4.35,1.58,-8.03,3.35,-1.58,-0.39,-1.32,1.94,649.00,1572.00,432.00,1099.00,1070.00,2416.00,1381.00,4095.00,,,,,,,,,,,,0,0,0,,276,14640,6192,-607,160,-143
18.438,18.21,-1.37,-4.41,4.75,-3.55,1.58,-0.06,-2.76,0.36,-0.53,547.00,1447.00,438.00,965.00,1183.00,2424.00,1531.00,4095.00,,,,,,,,,,,,0,0,0,,396,14588,6292,-274,171,17
18.5,18.27,-1.40,4.75,-5.55,0.59,-4.24,-1.86,-1.11,-0.51,0.76,809.00,1328.00,557.00,958.00,1118.00,2490.00,1451.00,4095.00,,,,,,,,,,,,0,0,0,,540,14780,6224,-143,133,-19
18.581,18.32,-1.46,-2.57,-0.15,-1.58,-2.49,-2.70,-0.32,-1.11,1.63,690.00,1535.00,527.00,996.00,1088.00,2521.00,1399.00,4095.00,,,,,,,,,,,,0,0,0,,456,14756,6436,-207,152,42
18.602,18.38,-1.49,-3.81,3.19,-6.04,1.48,-2.09,0.27,-0.29,0.43,589.00,1474.00,461.00,1068.00,1042.00,2422.00,1471.00,4095.00,,,,,,,,,,,,0,0,0,,464,14644,6160,-146,155,-185
18.664,18.43,-1.38,0.96,-1.13,-3.28,1.62,0.74,-3.28,-0.47,0.69,682.00,1370.00,435.00,954.00,1199.00,2381.00,1455.00,4095.00,,,,,,,,,,,,0,0,0,,468,14556,6092,-221,168,-101
18.745,18.49,-1.47,0.81,-2.05,3.04,-6.22,-3.24,0.13,-0.82,1.21,719.00,1413.00,593.00,917.00,1072.00,2544.00,1424.00,4095.00,,,,,,,,,,,,0,0,0,,572,14632,6224,-362,146,-141
18.766,18.54,-1.51,-3.50,1.58,-7.86,2.70,-2.13,0.71,-0.90,1.32,639.00,1520.00,446.00,1111.00,1018.00,2397.00,1417.00,4095.00,,,,,,,,,,,,0,0,0,,412,14724,6156,-300,171,-161
18.85,18.60,-1.39,-2.24,2.25,-3.15,1.71,0.78,-3.61,-0.03,0.04,602.00,1420.00,432.00,947.00,1220.00,2399.00,1495.00,4095.00,,,,,,,,,,,,0,0,0,,340,14356,6084,-372,-30,-69
18.89,18.65,-1.51,3.37,-4.30,2.60,-6.66,-3.79,0.91,-0.70,1.04,775.00,1356.00,612.00,944.00,1038.00,2546.00,1434.00,4095.00,,,,,,,,,,,,0,0,0,,412,14852,6128,-511,-315,-463
18.953,18.71,-1.53,-4.48,1.71,-7.54,3.14,-1.88,0.00,-1.26,1.85,646.00,1575.00,433.00,1084.00,1053.00,2419.00,1386.00,4095.00,,,,,,,,,,,,0,0,0,,436,14556,6464,-567,-31,-514
19.016,18.76,-1.46,-5.04,5.52,-3.41,1.54,-0.13,-2.50,0.40,-0.59,531.00,1454.00,438.00,961.00,1168.00,2414.00,1535.00,4095.00,,,,,,,,,,,,0,0,0,,236,14492,6528,-714,-108,-497
19.118,18.82,-1.47,4.11,-4.69,0.66,-3.77,-1.60,-1.24,-0.30,0.45,781.00,1331.00,542.00,943.00,1121.00,2474.00,1470.00,4095.00,,,,,,,,,,,,0,0,0,,356,14576,6620,-639,39,-223
19.139,18.87,-1.54,-2.23,-0.30,-1.39,-2.59,-2.87,-0.25,-0.82,1.21,691.00,1520.00,528.00,991.00,1087.00,2533.00,1424.00,4095.00,,,,,,,,,,,,0,0,0,,120,14548,6640,-494,179,-184
19.16,18.93,-1.58,-4.13,3.74,-5.71,1.49,-2.39,0.41,-0.05,0.08,575.00,1471.00,458.00,1054.00,1040.00,2442.00,1493.00,4095.00,,,,,,,,,,,,0,0,0,,296,14576,6496,-447,196,-20
19.221,18.98,-1.48,0.34,-0.67,-3.73,1.82,0.40,-3.18,-0.05,0.08,673.00,1387.00,434.00,966.00,1200.00,2407.00,1493.00,4095.00,,,,,,,,,,,,0,0,0,,176,14536,6572,-255,233,-24
19.261,19.04,-1.60,0.26,-1.42,2.06,-5.86,-3.93,0.36,-0.20,0.30,702.00,1420.00,592.00,944.00,1072.00,2598.00,1479.00,4095.00,,,,,,,,,,,,0,0,0,,240,14548,6500,-244,217,112
19.323,19.09,-1.64,-3.72,1.88,-8.78,3.22,-2.35,0.41,-0.12,0.17,631.00,1521.00,441.00,1136.00,1039.00,2438.00,1487.00,4095.00,,,,,,,,,,,,0,0,0,,344,14416,6940,-375,86,-31
19.384,19.15,-1.54,-2.65,2.77,-2.71,1.14,0.33,-3.56,0.76,-1.13,590.00,1424.00,442.00,945.00,1227.00,2439.00,1570.00,4095.00,,,,,,,,,,,,0,0,0,,368,14460,6548,-152,156,-175
19.486,19.20,-1.66,3.64,-4.17,1.68,-6.20,-3.94,0.65,0.06,-0.08,766.00,1337.00,607.00,967.00,1056.00,2580.00,1503.00,4095.00,,,,,,,,,,,,0,0,0,,284,14316,6684,-248,88,-113
19.507,19.26,-1.69,-4.20,1.67,-7.69,2.69,-2.29,0.05,-0.58,0.86,644.00,1559.00,445.00,1104.00,1058.00,2455.00,1445.00,4095.00,,,,,,,,,,,,0,0,0,,404,14504,6776,-263,218,6
19.548,19.31,-1.65,-5.64,6.75,-4.40,1.70,-0.71,-2.24,1.03,-1.52,502.00,1440.00,442.00,995.00,1164.00,2453.00,1596.00,4095.00,,,,,,,,,,,,0,0,0,,404,14428,6748,-145,546,64
19.59,19.37,-1.64,4.33,-4.45,-0.63,-2.99,-1.50,-1.57,0.39,-0.57,768.00,1311.00,532.00,972.00,1139.00,2486.00,1534.00,4095.00,,,,,,,,,,,,0,0,0,,408,14340,6668,-318,504,-93
19.651,19.42,-1.72,-2.03,-0.15,-1.03,-3.20,-3.22,-0.11,-0.18,0.27,683.00,1502.00,542.00,993.00,1086.00,2559.00,1481.00,4095.00,,,,,,,,,,,,0,0,0,,436,14444,6652,-291,416,91
19.733,19.48,-1.76,-4.36,4.21,-7.21,2.28,-2.65,0.49,0.61,-0.90,563.00,1466.00,451.00,1095.00,1040.00,2461.00,1555.00,4095.00,,,,,,,,,,,,0,0,0,,488,14388,6608,-294,108,-32
19.754,19.53,-1.66,-0.59,0.14,-4.64,2.21,0.29,-3.32,0.68,-1.01,655.00,1408.00,432.00,991.00,1212.00,2427.00,1562.00,4095.00,,,,,,,,,,,,0,0,0,,424,14396,6700,-357,-53,-162
19.874,19.59,-1.79,0.09,-0.97,1.65,-5.88,-4.21,0.42,0.35,-0.51,687.00,1412.00,597.00,960.00,1074.00,2623.00,1530.00,4095.00,,,,,,,,,,,,0,0,0,,404,14488,6740,-331,50,-38
19.895,19.64,-1.83,-4.57,2.32,-9.51,3.55,-2.52,0.31,0.16,-0.24,626.00,1555.00,439.00,1159.00,1048.00,2461.00,1513.00,4095.00,,,,,,,,,,,,0,0,0,,316,14416,6880,-332,155,-201
19.937,19.70,-1.74,-3.31,3.37,-3.19,1.26,-0.14,-3.48,1.21,-1.79,578.00,1438.00,443.00,960.00,1232.00,2479.00,1614.00,4095.00,,,,,,,,,,,,0,0,0,,256,14396,6688,-218,-65,-276
19.98,19.75,-1.87,3.16,-3.74,0.95,-5.58,-4.26,0.49,0.69,-1.02,755.00,1347.00,595.00,979.00,1071.00,2623.00,1563.00,4095.00,,,,,,,,,,,,0,0,0,,392,14336,6628,-348,-37,90
20.042,19.81,-1.91,-5.05,2.10,-8.09,2.57,-2.83,-0.01,-0.11,0.16,639.00,1594.00,451.00,1125.00,1072.00,2512.00,1488.00,4095.00,,,,,,,,,,,,0,0,0,,440,14200,7028,-587,-9,78
20.104,19.86,-1.88,-6.13,7.07,-5.98,2.49,-1.24,-2.01,1.44,-2.13,498.00,1456.00,436.00,1037.00,1161.00,2490.00,1637.00,4095.00,,,,,,,,,,,,0,0,0,,436,14280,6896,-412,323,48
20.206,19.92,-1.86,2.98,-3.39,-2.54,-1.53,-1.51,-1.89,0.84,-1.23,743.00,1344.00,509.00,1008.00,1159.00,2508.00,1577.00,4095.00,,,,,,,,,,,,0,0,0,,468,14344,6980,-324,299,160
20.227,19.97,-1.96,-1.90,0.14,-0.78,-3.78,-3.74,0.01,0.12,-0.18,671.00,1483.00,557.00,999.00,1089.00,2603.00,1509.00,4095.00,,,,,,,,,,,,0,0,0,,480,14252,6948,-200,293,330
20.269,20.03,-2.00,-4.78,4.55,-7.88,2.63,-2.79,0.21,0.80,-1.17,557.00,1477.00,448.00,1114.00,1059.00,2494.00,1573.00,4095.00,,,,,,,,,,,,0,0,0,,580,14660,6980,-26,373,242
20.331,20.08,-1.90,-1.70,1.41,-5.39,2.72,0.02,-3.44,0.77,-1.14,624.00,1422.00,426.00,1007.00,1226.00,2461.00,1571.00,4095.00,,,,,,,,,,,,0,0,0,,516,14276,7112,-237,405,113
20.372,20.14,-2.04,0.54,-1.22,1.29,-5.85,-4.68,0.55,0.62,-0.91,691.00,1397.00,600.00,973.00,1076.00,2663.00,1556.00,4095.00,,,,,,,,,,,,0,0,0,,576,14068,7204,-209,764,384
20.433,20.19,-2.05,-4.71,2.57,-9.41,3.02,-2.37,-0.23,0.31,-0.46,619.00,1553.00,451.00,1171.00,1076.00,2482.00,1527.00,4095.00,,,,,,,,,,,,0,0,0,,732,14420,6824,-100,902,173
20.515,20.25,-1.97,-3.42,3.96,-3.38,1.03,-0.36,-3.44,1.35,-2.00,561.00,1422.00,450.00,973.00,1234.00,2498.00,1628.00,4095.00,,,,,,,,,,,,0,0,0,,752,14400,6524,-102,564,38
20.535,20.30,-2.08,3.50,-3.88,0.55,-5.45,-4.26,0.27,0.61,-0.90,756.00,1334.00,595.00,991.00,1084.00,2639.00,1555.00,4095.00,,,,,,,,,,,,0,0,0,,960,14052,5684,564,-2237,-204
20.576,20.36,-2.13,-5.55,2.18,-7.83,1.53,-3.01,-0.22,-0.57,0.84,642.00,1622.00,475.00,1145.00,1088.00,2545.00,1446.00,4095.00,,,,,,,,,,,,0,0,0,,1480,14640,5152,1400,-6271,-1020
20.637,20.41,-2.12,-6.18,6.75,-5.96,1.33,-1.93,-1.64,0.74,-1.10,507.00,1471.00,464.00,1069.00,1152.00,2533.00,1568.00,4095.00,,,,,,,,,,,,0,0,0,,1800,14548,5596,1435,-9569,-977
20.699,20.47,-2.07,1.86,-2.93,-3.40,-1.27,-1.04,-2.63,0.14,-0.21,740.00,1388.00,510.00,1036.00,1196.00,2511.00,1511.00,4095.00,,,,,,,,,,,,0,0,0,,2416,14800,5548,1888,-12188,-1538
20.74,20.52,-2.16,-1.89,-0.25,-0.25,-4.22,-3.88,0.30,-1.11,1.63,685.00,1498.00,565.00,990.00,1075.00,2598.00,1399.00,4095.00,,,,,,,,,,,,0,0,0,,3124,15388,5532,2147,-13947,-1564
20.801,20.58,-2.20,-4.71,3.36,-5.93,0.43,-3.08,1.02,-0.54,0.79,593.00,1520.00,487.00,1094.00,1019.00,2469.00,1449.00,4095.00,,,,,,,,,,,,0,0,0,,3332,14748,5572,2424,-14303,-2146
20.863,20.63,-2.09,-2.39,0.47,-4.68,3.64,0.14,-2.57,-0.49,0.72,665.00,1499.00,400.00,955.00,1167.00,2393.00,1453.00,4095.00,,,,,,,,,,,,0,0,0,,3720,14756,5012,2373,-14942,-2996
20.947,20.69,-2.19,1.76,-5.65,2.54,-3.91,-4.20,1.79,-1.22,1.80,859.00,1499.00,528.00,879.00,997.00,2527.00,1389.00,4095.00,,,,,,,,,,,,0,0,0,,3824,15168,4840,2182,-12805,-1566
20.968,20.74,-2.24,-5.87,0.15,-8.12,6.34,-3.12,2.38,-2.18,3.22,721.00,1735.00,368.00,1018.00,947.00,2384.00,1309.00,4095.00,,,,,,,,,,,,0,0,0,,4876,15600,3684,2985,-13423,-2699
21.03,20.80,-2.11,-1.65,-1.28,-5.05,7.72,0.27,-1.57,-0.89,1.31,721.00,1525.00,323.00,869.00,1103.00,2318.00,1418.00,4095.00,,,,,,,,,,,,0,0,0,,5136,14492,2172,4557,-15857,-2002
21.091,20.85,-2.19,3.17,-6.58,4.88,-2.47,-3.75,2.05,-1.95,2.88,880.00,1453.00,468.00,771.00,975.00,2465.00,1328.00,4095.00,,,,,,,,,,,,0,0,0,,4524,14940,3224,3419,-17082,-889
21.132,20.91,-2.28,-4.88,0.49,-5.02,5.30,-3.95,3.87,-2.50,3.68,695.00,1653.00,368.00,926.00,887.00,2367.00,1284.00,4095.00,,,,,,,,,,,,0,0,0,,4036,15700,3316,2374,-12833,-769
21.193,20.96,-2.21,-4.99,4.22,-6.48,12.34,-0.82,0.73,-0.69,1.02,569.00,1502.00,258.00,812.00,993.00,2275.00,1435.00,4095.00,,,,,,,,,,,,0,0,0,,4276,16068,2456,855,-7970,-1110
21.254,21.02,-2.18,1.53,-2.27,3.05,3.72,-1.70,1.21,-0.66,0.97,718.00,1381.00,346.00,702.00,983.00,2325.00,1438.00,4095.00,,,,,,,,,,,,0,0,0,,4232,16172,2036,-692,-3636,-1622
21.316,21.07,-2.27,-0.94,-1.07,1.56,3.85,-3.98,3.63,-1.21,1.79,704.00,1475.00,353.00,742.00,899.00,2385.00,1390.00,4095.00,,,,,,,,,,,,0,0,0,,4216,15700,1056,640,-1811,-1435
21.378,21.13,-2.31,-3.93,2.22,-3.84,9.62,-3.00,3.22,-0.47,0.69,622.00,1520.00,285.00,787.00,903.00,2320.00,1455.00,4095.00,,,,,,,,,,,,0,0,0,,3788,15516,48,652,-1882,-1083
21.42,21.18,-2.21,-2.52,2.60,-1.73,11.04,-0.31,0.28,-0.26,0.38,594.00,1423.00,254.00,697.00,1008.00,2256.00,1474.00,4095.00,,,,,,,,,,,,0,0,0,,3880,16064,432,201,-1302,-637
21.482,21.24,-2.30,2.68,-3.80,8.84,-0.67,-4.10,3.36,-0.65,0.96,764.00,1375.00,395.00,628.00,914.00,2413.00,1439.00,4095.00,,,,,,,,,,,,0,0,0,,4028,15840,-440,143,-1144,-859
21.524,21.29,-2.39,-4.60,2.83,-4.23,10.14,-3.94,4.80,-0.85,1.26,609.00,1535.00,279.00,788.00,843.00,2307.00,1421.00,4095.00,,,,,,,,,,,,0,0,0,,4112,15852,-8,-652,-885,-934
21.584,21.35,-2.25,-3.60,4.82,-4.52,16.57,0.37,-0.16,0.73,-1.08,537.00,1399.00,198.00,671.00,1020.00,2223.00,1567.00,4095.00,,,,,,,,,,,,0,0,0,,3896,15420,-404,-756,-1006,-563
21.687,21.40,-2.32,5.09,-5.07,11.62,-1.75,-3.63,2.63,0.01,-0.02,783.00,1293.00,398.00,579.00,943.00,2416.00,1499.00,4095.00,,,,,,,,,,,,0,0,0,,3900,15864,60,-906,-1256,-597
21.708,21.46,-2.43,-3.82,1.68,-2.08,7.83,-4.56,4.97,-0.93,1.38,639.00,1535.00,304.00,770.00,845.00,2354.00,1414.00,4095.00,,,,,,,,,,,,0,0,0,,3944,16168,244,-428,-1675,-645
21.79,21.51,-2.39,-4.23,4.26,-3.69,12.97,-1.68,1.84,0.59,-0.87,560.00,1456.00,237.00,715.00,950.00,2285.00,1553.00,4095.00,,,,,,,,,,,,0,0,0,,3984,16224,40,-527,-1472,-1384
21.811,21.57,-2.37,0.78,0.11,5.33,5.34,-1.94,1.60,0.26,-0.38,640.00,1335.00,304.00,614.00,967.00,2323.00,1522.00,4095.00,,,,,,,,,,,,0,0,0,,3772,16296,364,-824,-1804,-1372
21.873,21.62,-2.45,-0.71,-0.10,4.00,4.61,-3.94,3.37,0.07,-0.10,665.00,1424.00,324.00,660.00,911.00,2398.00,1504.00,4095.00,,,,,,,,,,,,0,0,0,,3228,15980,324,-434,-986,-1395
21.913,21.68,-2.50,-3.12,2.22,-2.09,9.89,-3.46,3.81,0.40,-0.59,613.00,1472.00,272.00,729.00,882.00,2325.00,1535.00,4095.00,,,,,,,,,,,,0,0,0,,3100,15960,468,-259,-917,-848
21.974,21.73,-2.40,-2.19,3.08,-1.03,13.54,-0.51,0.22,1.23,-1.82,575.00,1386.00,219.00,634.00,1015.00,2278.00,1616.00,4095.00,,,,,,,,,,,,0,0,0,,2828,15656,516,181,-190,-655
22.057,21.79,-2.50,2.83,-3.56,10.40,-0.38,-4.43,3.40,0.94,-1.39,752.00,1358.00,378.00,586.00,918.00,2443.00,1587.00,4095.00,,,,,,,,,,,,0,0,0,,2860,15924,-20,-57,122,-328
22.079,21.84,-2.59,-4.60,2.83,-4.09,11.54,-4.37,5.21,0.31,-0.46,609.00,1535.00,258.00,755.00,831.00,2321.00,1527.00,4095.00,,,,,,,,,,,,0,0,0,,3196,16112,64,-147,-27,232
22.119,21.90,-2.45,-4.83,6.55,-4.54,18.65,0.27,-0.04,1.77,-2.60,500.00,1402.00,177.00,635.00,1015.00,2224.00,1670.00,4095.00,,,,,,,,,,,,0,0,0,,3200,16100,336,32,19,79
22.18,21.95,-2.51,5.73,-5.30,13.35,-1.62,-3.66,2.90,1.22,-1.80,784.00,1269.00,383.00,539.00,930.00,2402.00,1615.00,4095.00,,,,,,,,,,,,0,0,0,,3240,16196,1116,-106,1108,-71
22.241,22.01,-2.60,-3.04,1.42,0.23,7.61,-4.31,4.50,0.40,-0.59,639.00,1499.00,295.00,707.00,863.00,2361.00,1535.00,4095.00,,,,,,,,,,,,0,0,0,,2796,16248,3368,-706,5134,330
22.303,22.06,-2.57,-3.73,4.09,-3.51,14.04,-2.03,2.07,1.22,-1.80,560.00,1434.00,223.00,690.00,944.00,2302.00,1615.00,4095.00,,,,,,,,,,,,0,0,0,,3684,17396,3244,-2064,13100,-753
22.345,22.12,-2.56,1.42,-0.54,3.23,6.73,-2.35,0.27,0.40,-0.59,655.00,1324.00,293.00,643.00,1047.00,2447.00,1535.00,4095.00,,,,,,,,,,,,0,0,0,,2888,15000,4980,-5196,20904,-4
22.446,22.17,-2.68,0.60,-1.88,3.38,2.02,-4.98,1.85,-0.94,1.39,715.00,1418.00,377.00,725.00,1008.00,2602.00,1413.00,4095.00,,,,,,,,,,,,0,0,0,,3664,16044,3580,-6139,26254,-573
22.466,22.23,-2.78,-3.81,1.00,-5.79,7.13,-4.58,1.88,-1.30,1.92,663.00,1563.00,338.00,909.00,999.00,2559.00,1382.00,4095.00,,,,,,,,,,,,0,0,0,,3376,14744,3368,-5114,27157,1956
22.507,22.28,-2.71,-1.75,-0.08,-3.71,6.65,-1.40,-2.49,-0.47,0.69,677.00,1483.00,334.00,848.00,1195.00,2538.00,1455.00,4095.00,,,,,,,,,,,,0,0,0,,2676,15144,2200,-2907,23802,2751
22.568,22.34,-2.87,2.72,-6.42,3.71,-4.51,-5.85,1.46,-0.46,0.68,880.00,1473.00,534.00,853.00,1046.00,2722.00,1456.00,4095.00,,,,,,,,,,,,0,0,0,,1992,15348,2204,-2875,18327,3218
22.63,22.39,-2.94,-5.12,0.70,-7.85,5.03,-4.29,0.80,-0.60,0.89,690.00,1659.00,393.00,1043.00,1054.00,2605.00,1443.00,4095.00,,,,,,,,,,,,0,0,0,,1480,15092,2808,-1921,12307,2891
22.671,22.45,-2.89,-4.09,3.13,-4.25,3.97,-1.96,-2.41,1.34,-1.98,594.00,1493.00,390.00,931.00,1202.00,2589.00,1627.00,4095.00,,,,,,,,,,,,0,0,0,,1224,15368,3888,-1964,8812,3083
22.732,22.50,-2.93,3.72,-5.66,1.30,-3.46,-3.67,-1.05,0.72,-1.07,829.00,1387.00,527.00,912.00,1152.00,2671.00,1566.00,4095.00,,,,,,,,,,,,0,0,0,,1124,15516,4204,-2204,5912,2259
22.792,22.56,-3.02,-2.55,-1.02,-1.74,-1.50,-4.86,-0.18,0.39,-0.57,723.00,1570.00,501.00,976.00,1123.00,2735.00,1534.00,4095.00,,,,,,,,,,,,0,0,0,,864,15020,4876,-2532,4190,1839
22.853,22.61,-3.08,-4.47,3.28,-6.74,2.87,-4.20,0.18,1.24,-1.83,593.00,1509.00,433.00,1058.00,1088.00,2639.00,1617.00,4095.00,,,,,,,,,,,,0,0,0,,648,15004,5320,-2515,2971,1360
22.914,22.67,-3.00,-0.29,-0.49,-4.03,2.61,-1.39,-3.30,1.35,-2.00,674.00,1415.00,418.00,957.00,1248.00,2592.00,1628.00,4095.00,,,,,,,,,,,,0,0,0,,464,14912,5620,-3170,2711,1090
22.975,22.72,-3.11,0.48,-1.89,2.46,-5.78,-5.35,-0.00,1.21,-1.79,717.00,1425.00,585.00,927.00,1122.00,2775.00,1614.00,4095.00,,,,,,,,,,,,0,0,0,,592,14632,6016,-3311,2648,997
23.058,22.78,-3.15,-3.30,1.80,-8.82,3.61,-3.83,0.07,1.09,-1.61,629.00,1499.00,432.00,1126.00,1087.00,2608.00,1602.00,4095.00,,,,,,,,,,,,0,0,0,,632,14600,6684,-2327,2169,821
23.079,22.83,-3.06,-2.99,3.13,-3.30,1.84,-1.32,-3.56,2.12,-3.13,582.00,1429.00,430.00,949.00,1264.00,2603.00,1707.00,4095.00,,,,,,,,,,,,0,0,0,,628,14624,6776,-1597,1365,536
23.162,22.89,-3.17,3.26,-3.78,1.42,-5.59,-5.29,0.34,1.53,-2.26,755.00,1343.00,590.00,961.00,1100.00,2743.00,1646.00,4095.00,,,,,,,,,,,,0,0,0,,696,14440,7032,-995,496,324
23.182,22.94,-3.21,-4.59,1.77,-8.21,3.28,-3.97,-0.15,0.90,-1.32,645.00,1579.00,435.00,1109.00,1103.00,2638.00,1583.00,4095.00,,,,,,,,,,,,0,0,0,,796,14480,7064,-571,78,-96
23.224,23.00,-3.16,-6.03,7.07,-5.50,2.63,-2.27,-2.22,2.32,-3.42,497.00,1450.00,429.00,1014.00,1196.00,2607.00,1728.00,4095.00,,,,,,,,,,,,0,0,0,,544,14356,7184,-271,-148,-507
23.285,23.05,-3.14,3.37,-3.72,-2.01,-1.70,-2.79,-1.90,1.86,-2.75,751.00,1335.00,509.00,992.00,1187.00,2639.00,1680.00,4095.00,,,,,,,,,,,,0,0,0,,276,14220,7048,-245,-24,-455
23.347,23.11,-3.23,-1.84,-0.34,-1.39,-3.04,-4.78,-0.08,1.36,-2.01,688.00,1499.00,541.00,1003.00,1115.00,2719.00,1629.00,4095.00,,,,,,,,,,,,0,0,0,,324,14040,7092,-236,160,-227
23.389,23.16,-3.26,-4.94,4.50,-8.11,2.99,-3.94,0.09,2.07,-3.06,560.00,1488.00,441.00,1113.00,1088.00,2618.00,1702.00,4095.00,,,,,,,,,,,,0,0,0,,388,14352,6728,-141,312,-168
23.451,23.22,-3.17,-1.88,1.18,-5.96,3.31,-1.40,-3.20,2.13,-3.14,634.00,1441.00,417.00,1014.00,1242.00,2587.00,1708.00,4095.00,,,,,,,,,,,,0,0,0,,312,14196,6900,-346,225,-268
23.513,23.27,-3.30,0.44,-1.30,1.01,-5.48,-5.88,0.75,1.86,-2.75,695.00,1405.00,591.00,974.00,1088.00,2778.00,1680.00,4095.00,,,,,,,,,,,,0,0,0,,340,14112,7084,-194,137,-76
23.575,23.33,-3.33,-4.94,2.24,-10.18,4.03,-3.74,-0.06,1.70,-2.50,633.00,1581.00,433.00,1175.00,1093.00,2608.00,1663.00,4095.00,,,,,,,,,,,,0,0,0,,396,14076,7192,-300,197,-87
23.637,23.38,-3.24,-4.09,4.21,-4.51,2.16,-1.55,-3.33,2.52,-3.71,560.00,1450.00,432.00,987.00,1254.00,2611.00,1749.00,4095.00,,,,,,,,,,,,0,0,0,,472,14436,6884,-300,90,-257
23.679,23.44,-3.32,3.18,-3.82,0.40,-5.31,-4.97,0.14,1.86,-2.75,758.00,1349.00,592.00,993.00,1106.00,2724.00,1680.00,4095.00,,,,,,,,,,,,0,0,0,,440,14188,7156,-294,-2,-163
23.719,23.49,-3.36,-5.56,2.04,-8.41,2.52,-4.06,0.14,1.06,-1.57,647.00,1629.00,455.00,1141.00,1088.00,2628.00,1599.00,4095.00,,,,,,,,,,,,0,0,0,,364,14172,7264,-158,-75,-331
23.781,23.55,-3.33,-6.61,7.19,-6.65,2.42,-2.75,-1.38,2.47,-3.64,499.00,1479.00,443.00,1067.00,1153.00,2598.00,1744.00,4095.00,,,,,,,,,,,,0,0,0,,376,14160,7056,-102,3,-283
23.822,23.60,-3.27,1.96,-2.89,-3.67,-0.41,-2.23,-2.09,2.01,-2.96,737.00,1381.00,489.00,1023.00,1187.00,2594.00,1695.00,4095.00,,,,,,,,,,,,0,0,0,,208,14228,7056,-42,28,-388
23.883,23.66,-3.35,-1.86,-0.04,-1.05,-3.79,-4.75,0.20,1.37,-2.02,677.00,1488.00,560.00,1010.00,1098.00,2696.00,1630.00,4095.00,,,,,,,,,,,,0,0,0,,360,14304,7204,19,39,-443
23.943,23.71,-3.39,-4.51,3.74,-8.64,2.92,-4.09,0.52,1.79,-2.65,579.00,1493.00,447.00,1139.00,1066.00,2604.00,1673.00,4095.00,,,,,,,,,,,,0,0,0,,236,14248,6908,-55,4,-329
23.986,23.77,-3.27,-1.96,1.59,-5.50,2.84,-1.01,-3.26,2.01,-2.96,621.00,1430.00,424.00,1008.00,1237.00,2551.00,1695.00,4095.00,,,,,,,,,,,,0,0,0,,324,14212,7056,-125,-30,-347
24.048,23.82,-3.38,1.06,-2.11,0.87,-5.77,-5.49,0.67,1.71,-2.52,718.00,1401.00,602.00,987.00,1085.00,2741.00,1664.00,4095.00,,,,,,,,,,,,0,0,0,,356,14212,6880,-153,-21,-326
24.13,23.88,-3.38,-4.54,2.07,-10.30,4.37,-3.39,0.13,1.43,-2.11,634.00,1563.00,426.00,1170.00,1075.00,2559.00,1636.00,4095.00,,,,,,,,,,,,0,0,0,,128,14132,7052,-200,-27,-290
24.172,23.93,-3.28,-4.29,4.71,-3.07,-0.15,-1.35,-2.88,2.47,-3.64,547.00,1442.00,477.00,992.00,1219.00,2559.00,1744.00,4095.00,,,,,,,,,,,,0,0,0,,220,14268,7176,-215,125,-141
24.253,23.99,-3.35,4.60,-5.25,0.38,-5.08,-4.69,-0.01,1.91,-2.82,798.00,1325.00,585.00,988.00,1109.00,2704.00,1685.00,4095.00,,,,,,,,,,,,0,0,0,,308,14264,6952,-201,154,-191
24.274,24.04,-3.39,-4.90,1.59,-7.00,1.09,-4.15,0.08,1.20,-1.77,655.00,1606.00,479.00,1121.00,1093.00,2641.00,1613.00,4095.00,,,,,,,,,,,,0,0,0,,260,14152,7132,-198,-80,-201
24.336,24.10,-3.38,-5.66,5.41,-6.99,2.12,-3.32,-0.86,2.47,-3.64,540.00,1494.00,453.00,1090.00,1133.00,2621.00,1744.00,4095.00,,,,,,,,,,,,0,0,0,,172,14260,7200,-157,21,-194
24.398,24.15,-3.32,1.12,-1.82,-4.87,0.97,-2.06,-2.39,2.06,-3.04,706.00,1387.00,464.00,1034.00,1203.00,2598.00,1701.00,4095.00,,,,,,,,,,,,0,0,0,,196,14272,7072,-127,151,-141
24.459,24.21,-3.38,-2.05,-0.11,-0.72,-4.39,-4.55,0.01,1.55,-2.29,682.00,1502.00,575.00,1013.00,1105.00,2688.00,1648.00,4095.00,,,,,,,,,,,,0,0,0,,188,14032,7048,-267,98,-135
24.521,24.26,-3.41,-3.43,1.70,-8.15,1.72,-3.93,0.45,1.73,-2.55,634.00,1511.00,473.00,1154.00,1067.00,2592.00,1666.00,4095.00,,,,,,,,,,,,0,0,0,,352,14284,7148,-128,113,-160
24.562,24.32,-3.28,-2.61,2.26,-5.08,2.23,-0.79,-3.47,2.17,-3.20,606.00,1441.00,435.00,1008.00,1246.00,2543.00,1712.00,4095.00,,,,,,,,,,,,0,0,0,,356,14096,7008,-129,114,-144
24.623,24.37,-3.38,2.59,-4.15,0.86,-6.43,-5.38,0.80,1.73,-2.55,780.00,1393.00,624.00,1005.00,1075.00,2720.00,1666.00,4095.00,,,,,,,,,,,,0,0,0,,384,14204,7252,-95,115,-226
24.686,24.43,-3.37,-4.74,2.11,-9.98,3.83,-3.24,0.06,1.30,-1.92,635.00,1574.00,436.00,1172.00,1076.00,2549.00,1623.00,4095.00,,,,,,,,,,,,0,0,0,,236,14172,6964,-48,90,-146
24.727,24.48,-3.27,-4.62,5.00,-4.86,1.86,-1.27,-2.84,2.46,-3.63,542.00,1450.00,442.00,1009.00,1215.00,2549.00,1743.00,4095.00,,,,,,,,,,,,0,0,0,,200,14136,7024,-100,-29,-214
24.788,24.54,-3.30,5.15,-5.69,-0.09,-4.95,-3.89,-0.56,1.86,-2.75,809.00,1312.00,586.00,1003.00,1126.00,2659.00,1680.00,4095.00,,,,,,,,,,,,0,0,0,,244,14308,7132,-130,44,-229
24.849,24.59,-3.34,-3.92,1.04,-5.55,-0.04,-4.08,0.01,1.23,-1.82,663.00,1568.00,496.00,1091.00,1096.00,2639.00,1616.00,4095.00,,,,,,,,,,,,0,0,0,,232,14164,7088,-145,81,-213
24.891,24.65,-3.33,-4.85,3.95,-7.09,1.36,-3.07,-0.33,2.26,-3.34,576.00,1505.00,473.00,1117.00,1096.00,2559.00,1722.00,4095.00,,,,,,,,,,,,0,0,0,,204,14124,7060,-146,-59,-247
24.93,24.70,-3.22,0.99,-1.19,-4.55,1.22,-1.22,-2.86,2.08,-3.07,684.00,1371.00,455.00,1014.00,1215.00,2545.00,1703.00,4095.00,,,,,,,,,,,,0,0,0,,164,14136,7152,-197,48,-79
25.012,24.76,-3.30,-0.50,-1.01,0.03,-4.84,-4.78,0.07,1.77,-2.60,696.00,1447.00,581.00,995.00,1106.00,2708.00,1670.00,4095.00,,,,,,,,,,,,0,0,0,,192,14068,7232,-224,183,-154
25.032,24.81,-3.32,-3.64,1.86,-8.72,2.26,-3.66,0.53,1.50,-2.21,631.00,1517.00,464.00,1163.00,1057.00,2559.00,1643.00,4095.00,,,,,,,,,,,,0,0,0,,248,14232,6976,-125,106,-203
25.093,24.87,-3.19,-3.03,2.52,-4.80,2.17,-0.72,-3.68,2.20,-3.24,602.00,1455.00,434.00,998.00,1259.00,2551.00,1715.00,4095.00,,,,,,,,,,,,0,0,0,,368,14348,6928,-141,89,-99
25.154,24.92,-3.31,2.29,-3.55,0.55,-6.12,-5.68,0.92,1.55,-2.29,759.00,1387.00,617.00,1009.00,1074.00,2743.00,1648.00,4095.00,,,,,,,,,,,,0,0,0,,136,13884,7188,-244,82,-133
25.215,24.98,-3.30,-4.79,1.81,-9.69,3.52,-3.07,-0.11,0.86,-1.26,646.00,1590.00,441.00,1168.00,1083.00,2544.00,1579.00,4095.00,,,,,,,,,,,,0,0,0,,284,14224,7260,-200,216,-224
25.256,25.03,-3.19,-5.28,5.63,-5.54,1.84,-1.14,-2.77,2.16,-3.18,530.00,1463.00,448.00,1037.00,1207.00,2530.00,1711.00,4095.00,,,,,,,,,,,,0,0,0,,312,14044,7056,-69,166,-163
25.361,25.09,-3.18,4.56,-5.35,-0.88,-4.08,-3.05,-1.00,1.22,-1.80,803.00,1331.00,567.00,1011.00,1136.00,2603.00,1615.00,4095.00,,,,,,,,,,,,0,0,0,,228,14152,7172,-133,49,-209
25.382,25.14,-3.22,-3.36,0.19,-4.08,-1.69,-3.91,-0.18,0.74,-1.10,687.00,1569.00,528.00,1076.00,1104.00,2635.00,1568.00,4095.00,,,,,,,,,,,,0,0,0,,280,14300,7124,-13,133,-98
25.423,25.20,-3.21,-4.36,3.63,-7.87,2.22,-3.01,0.04,1.45,-2.14,581.00,1489.00,458.00,1126.00,1073.00,2527.00,1638.00,4095.00,,,,,,,,,,,,0,0,0,,148,14088,7048,-113,73,-217
25.486,25.25,-3.08,0.56,-1.15,-4.51,1.17,-0.65,-3.05,1.34,-1.98,688.00,1393.00,456.00,1014.00,1215.00,2501.00,1627.00,4095.00,,,,,,,,,,,,0,0,0,,204,14188,7056,-90,30,-269
25.528,25.31,-3.15,-0.20,-1.29,0.45,-5.42,-4.47,0.12,1.14,-1.68,703.00,1441.00,595.00,994.00,1097.00,2672.00,1607.00,4095.00,,,,,,,,,,,,0,0,0,,140,14012,7136,-126,95,-125
25.612,25.36,-3.16,-3.73,1.80,-9.30,2.74,-3.22,0.35,0.95,-1.40,634.00,1525.00,457.00,1175.00,1059.00,2527.00,1588.00,4095.00,,,,,,,,,,,,0,0,0,,220,14228,7236,-61,83,-211
25.653,25.42,-3.02,-3.08,2.57,-4.65,1.62,-0.46,-3.56,1.83,-2.70,601.00,1456.00,446.00,1007.00,1245.00,2517.00,1677.00,4095.00,,,,,,,,,,,,0,0,0,,232,14208,7184,-169,88,-162
25.716,25.47,-3.11,2.72,-3.91,0.40,-6.01,-4.87,0.70,1.20,-1.77,768.00,1377.00,615.00,1012.00,1071.00,2673.00,1613.00,4095.00,,,,,,,,,,,,0,0,0,,96,14224,7172,-111,143,-227
25.799,25.53,-3.12,-4.90,1.76,-9.32,2.99,-3.31,0.02,0.60,-0.88,649.00,1599.00,451.00,1168.00,1080.00,2559.00,1554.00,4095.00,,,,,,,,,,,,0,0,0,,132,14320,7160,-65,93,-138
25.819,25.58,-3.05,-5.74,6.03,-6.40,2.29,-1.64,-2.44,2.07,-3.06,523.00,1474.00,444.00,1060.00,1197.00,2559.00,1702.00,4095.00,,,,,,,,,,,,0,0,0,,244,14192,7004,-69,101,-117
25.861,25.64,-3.02,3.53,-4.56,-2.33,-2.89,-2.54,-1.64,1.44,-2.13,784.00,1357.00,546.00,1037.00,1165.00,2595.00,1637.00,4095.00,,,,,,,,,,,,0,0,0,,184,14120,7228,-266,118,-262
25.922,25.69,-3.08,-2.25,-0.61,-2.36,-3.42,-4.11,-0.07,0.89,-1.31,703.00,1534.00,562.00,1053.00,1101.00,2647.00,1582.00,4095.00,,,,,,,,,,,,0,0,0,,156,14196,7204,-97,160,-203
25.984,25.75,-3.08,-4.73,3.94,-8.30,2.32,-3.04,0.03,1.51,-2.23,575.00,1498.00,459.00,1142.00,1074.00,2531.00,1644.00,4095.00,,,,,,,,,,,,0,0,0,,192,14104,7196,-84,151,-147
26.045,25.80,-2.94,-1.14,0.30,-6.12,2.41,-0.28,-3.39,1.44,-2.13,656.00,1433.00,439.00,1045.00,1229.00,2487.00,1637.00,4095.00,,,,,,,,,,,,0,0,0,,248,14228,6936,-72,157,-176
26.086,25.86,-3.02,0.10,-1.29,0.39,-5.58,-4.64,0.36,1.18,-1.74,699.00,1424.00,601.00,1001.00,1086.00,2672.00,1611.00,4095.00,,,,,,,,,,,,0,0,0,,172,14112,7084,-112,144,-133
26.147,25.91,-3.01,-4.88,2.10,-10.27,3.47,-2.86,0.06,0.96,-1.42,637.00,1583.00,447.00,1197.00,1069.00,2511.00,1589.00,4095.00,,,,,,,,,,,,0,0,0,,124,14124,7072,-88,113,-234
26.21,25.97,-2.89,-3.65,3.77,-4.64,1.58,-0.56,-3.37,1.83,-2.70,569.00,1442.00,447.00,1008.00,1234.00,2513.00,1677.00,4095.00,,,,,,,,,,,,0,0,0,,264,14220,7220,-132,104,-228
26.25,26.02,-2.97,3.21,-4.17,-0.12,-5.50,-4.44,0.36,1.28,-1.89,772.00,1360.00,604.00,1019.00,1082.00,2651.00,1621.00,4095.00,,,,,,,,,,,,0,0,0,,84,14092,7080,-59,46,-221
26.312,26.08,-2.99,-5.46,1.86,-8.92,2.37,-3.39,0.13,0.59,-0.87,652.00,1630.00,463.00,1169.00,1075.00,2559.00,1553.00,4095.00,,,,,,,,,,,,0,0,0,,156,14256,7052,-157,63,-218
26.373,26.13,-2.94,-6.44,6.77,-6.59,2.19,-1.95,-1.71,2.13,-3.14,509.00,1486.00,448.00,1071.00,1157.00,2540.00,1708.00,4095.00,,,,,,,,,,,,0,0,0,,140,14112,7192,-132,170,-144
26.455,26.19,-2.88,2.05,-3.32,-3.87,-1.12,-1.75,-2.17,1.59,-2.35,753.00,1392.00,510.00,1051.00,1182.00,2551.00,1652.00,4095.00,,,,,,,,,,,,0,0,0,,192,14092,6996,-209,141,-204
26.476,26.24,-2.95,-1.66,-1.01,-1.95,-3.52,-4.31,0.05,0.93,-1.37,711.00,1515.00,561.00,1039.00,1098.00,2660.00,1586.00,4095.00,,,,,,,,,,,,0,0,0,,20,14276,7116,-85,86,-153
26.537,26.30,-3.01,-5.11,4.04,-9.11,2.67,-4.13,0.52,1.56,-2.30,576.00,1517.00,457.00,1168.00,1067.00,2608.00,1649.00,4095.00,,,,,,,,,,,,0,0,0,,44,14320,6988,1,133,-128
26.577,26.35,-2.89,-2.69,1.65,-6.40,2.76,-0.61,-3.31,1.66,-2.45,627.00,1469.00,433.00,1047.00,1231.00,2514.00,1659.00,4095.00,,,,,,,,,,,,0,0,0,,116,14060,7164,-123,88,-222
26.638,26.41,-3.00,0.58,-1.71,0.29,-5.70,-5.16,0.59,1.76,-2.59,709.00,1413.00,606.00,1008.00,1083.00,2711.00,1669.00,4095.00,,,,,,,,,,,,0,0,0,,84,14308,7028,-49,127,-186
26.7,26.46,-2.99,-4.78,2.01,-10.45,3.74,-2.79,-0.07,0.98,-1.45,639.00,1581.00,442.00,1197.00,1075.00,2513.00,1591.00,4095.00,,,,,,,,,,,,0,0,0,,164,14120,6904,-69,155,-118
26.743,26.52,-2.89,-4.03,4.00,-4.73,1.48,-0.94,-3.02,2.16,-3.18,566.00,1455.00,450.00,1014.00,1219.00,2527.00,1711.00,4095.00,,,,,,,,,,,,0,0,0,,84,14236,7024,-31,119,-54
26.825,26.57,-2.97,3.92,-4.41,-0.44,-5.02,-4.43,0.01,1.77,-2.60,772.00,1331.00,592.00,1019.00,1103.00,2676.00,1670.00,4095.00,,,,,,,,,,,,0,0,0,,152,14260,7012,21,247,-65
26.845,26.63,-3.00,-4.93,1.57,-7.77,1.28,-3.66,-0.05,1.22,-1.80,656.00,1609.00,481.00,1150.00,1091.00,2599.00,1615.00,4095.00,,,,,,,,,,,,0,0,0,,-28,14032,6920,-18,87,-253
26.907,26.68,-2.99,-5.69,5.84,-7.10,2.12,-2.71,-1.28,2.59,-3.82,528.00,1479.00,454.00,1095.00,1146.00,2587.00,1757.00,4095.00,,,,,,,,,,,,0,0,0,,100,14184,6880,-80,57,-147
26.968,26.74,-2.91,1.63,-2.27,-4.86,0.37,-1.51,-2.61,2.22,-3.27,717.00,1376.00,479.00,1050.00,1205.00,2557.00,1717.00,4095.00,,,,,,,,,,,,0,0,0,,176,14288,6980,-111,112,-179
27.028,26.79,-3.00,-1.43,-0.35,-1.02,-4.32,-4.73,0.06,1.74,-2.56,683.00,1475.00,576.00,1023.00,1106.00,2704.00,1667.00,4095.00,,,,,,,,,,,,0,0,0,,-12,14124,6976,-143,139,-152
27.09,26.85,-3.05,-3.84,2.43,-8.85,2.07,-3.96,0.48,2.23,-3.28,614.00,1506.00,470.00,1175.00,1066.00,2593.00,1718.00,4095.00,,,,,,,,,,,,0,0,0,,44,14204,7044,-183,154,-76
27.131,26.90,-2.94,-2.63,2.26,-6.51,2.71,-0.76,-3.60,2.52,-3.71,606.00,1442.00,435.00,1053.00,1254.00,2549.00,1749.00,4095.00,,,,,,,,,,,,0,0,0,,108,14172,7108,-164,126,-114
27.193,26.96,-3.06,2.16,-3.63,0.63,-6.68,-5.47,0.53,2.20,-3.24,764.00,1397.00,635.00,1021.00,1093.00,2750.00,1715.00,4095.00,,,,,,,,,,,,0,0,0,,76,14260,6972,-112,173,-45
27.253,27.01,-3.06,-5.00,2.26,-10.76,4.01,-3.09,-0.31,1.74,-2.56,633.00,1584.00,438.00,1203.00,1095.00,2559.00,1667.00,4095.00,,,,,,,,,,,,0,0,0,,232,14372,7012,-97,124,-125
27.315,27.07,-2.99,-4.54,4.66,-5.26,1.22,-1.57,-2.98,2.92,-4.30,551.00,1458.00,461.00,1043.00,1231.00,2589.00,1793.00,4095.00,,,,,,,,,,,,0,0,0,,56,14080,7120,-206,66,-85
27.356,27.12,-3.05,4.47,-5.27,-0.88,-5.06,-4.20,-0.63,2.32,-3.42,801.00,1333.00,598.00,1038.00,1137.00,2697.00,1728.00,4095.00,,,,,,,,,,,,0,0,0,,200,14272,7064,-75,227,-160
27.418,27.18,-3.10,-4.45,1.30,-6.84,0.36,-3.97,-0.26,1.55,-2.29,660.00,1590.00,497.00,1136.00,1110.00,2647.00,1648.00,4095.00,,,,,,,,,,,,0,0,0,,84,14260,6892,-98,150,-115
27.5,27.23,-3.11,-4.61,3.83,-7.31,1.12,-3.33,-0.56,2.68,-3.96,577.00,1495.00,481.00,1134.00,1115.00,2601.00,1767.00,4095.00,,,,,,,,,,,,0,0,0,,112,14260,7272,-128,119,-88
27.581,27.29,-3.02,1.13,-1.40,-5.30,1.03,-1.30,-2.96,2.36,-3.48,690.00,1371.00,466.00,1050.00,1223.00,2559.00,1732.00,4095.00,,,,,,,,,,,,0,0,0,,232,14412,7076,-28,215,-95
27.602,27.34,-3.10,-1.08,-0.79,-0.60,-4.94,-4.65,-0.23,1.54,-2.27,695.00,1472.00,591.00,1023.00,1122.00,2717.00,1647.00,4095.00,,,,,,,,,,,,0,0,0,,160,14208,7020,-78,130,-197
27.644,27.40,-3.13,-3.32,1.52,-9.80,2.35,-3.64,0.09,2.22,-3.27,639.00,1512.00,471.00,1211.00,1082.00,2587.00,1717.00,4095.00,,,,,,,,,,,,0,0,0,,88,14240,6992,-75,80,-200
27.685,27.45,-3.00,-2.82,2.54,-6.00,2.41,-0.58,-4.01,2.82,-4.16,599.00,1442.00,438.00,1040.00,1278.00,2559.00,1782.00,4095.00,,,,,,,,,,,,0,0,0,,124,14140,6808,-198,174,-161
27.748,27.51,-3.12,2.15,-3.77,-0.33,-6.06,-5.35,0.53,2.32,-3.42,770.00,1403.00,625.00,1043.00,1090.00,2736.00,1728.00,4095.00,,,,,,,,,,,,0,0,0,,-64,14228,6852,-403,158,-214
27.809,27.56,-3.13,-4.65,1.88,-10.25,3.51,-3.40,-0.36,1.85,-2.73,642.00,1578.00,446.00,1195.00,1104.00,2594.00,1679.00,4095.00,,,,,,,,,,,,0,0,0,,-8,14224,6912,-319,160,-105
27.851,27.62,-3.06,-4.41,5.41,-5.64,1.67,-1.75,-2.98,3.24,-4.78,528.00,1422.00,453.00,1046.00,1235.00,2607.00,1829.00,4095.00,,,,,,,,,,,,0,0,0,,140,14284,7088,-201,131,-80
27.933,27.67,-3.09,4.75,-5.55,-0.89,-4.87,-3.65,-1.31,2.74,-4.04,809.00,1328.00,592.00,1033.00,1168.00,2688.00,1773.00,4095.00,,,,,,,,,,,,0,0,0,,200,14076,7008,-74,140,-124
27.953,27.73,-3.15,-3.69,0.47,-4.92,-1.40,-4.32,-0.64,2.35,-3.46,681.00,1578.00,528.00,1104.00,1140.00,2711.00,1731.00,4095.00,,,,,,,,,,,,0,0,0,,60,14380,6920,-141,-36,-217
28.014,27.78,-3.18,-4.31,3.58,-7.41,1.27,-3.68,-0.35,3.08,-4.54,582.00,1488.00,478.00,1134.00,1109.00,2622.00,1811.00,4095.00,,,,,,,,,,,,0,0,0,,80,14208,7208,-122,57,-70
28.076,27.84,-3.08,0.82,-1.10,-5.27,1.34,-1.29,-3.32,2.91,-4.29,683.00,1377.00,458.00,1040.00,1247.00,2583.00,1792.00,4095.00,,,,,,,,,,,,0,0,0,,12,14136,7136,40,148,-109
28.158,27.89,-3.17,0.14,-1.62,-0.02,-5.32,-4.72,-0.44,2.70,-3.98,711.00,1434.00,597.00,1010.00,1136.00,2739.00,1769.00,4095.00,,,,,,,,,,,,0,0,0,,72,14264,6992,102,194,-72
28.179,27.95,-3.19,-3.36,1.50,-9.61,2.56,-3.60,-0.02,2.50,-3.68,640.00,1515.00,464.00,1195.00,1088.00,2591.00,1747.00,4095.00,,,,,,,,,,,,0,0,0,,124,14192,7244,323,231,-115
28.22,28.00,-3.08,-2.91,2.88,-5.13,1.74,-1.07,-3.85,3.19,-4.70,589.00,1434.00,447.00,1023.00,1278.00,2597.00,1823.00,4095.00,,,,,,,,,,,,0,0,0,,144,14380,6728,538,238,-135
28.303,28.06,-3.19,2.93,-4.01,0.28,-6.24,-5.28,0.27,2.59,-3.82,769.00,1369.00,624.00,1023.00,1104.00,2747.00,1757.00,4095.00,,,,,,,,,,,,0,0,0,,88,14220,6956,701,256,-186
28.365,28.11,-3.21,-4.66,1.74,-9.54,2.74,-3.52,-0.55,2.05,-3.03,647.00,1585.00,459.00,1186.00,1118.00,2620.00,1700.00,4095.00,,,,,,,,,,,,0,0,0,,140,14540,6880,1101,390,-238
28.406,28.17,-3.14,-5.55,5.93,-6.16,1.52,-1.81,-2.93,3.35,-4.94,524.00,1467.00,461.00,1072.00,1233.00,2610.00,1841.00,4095.00,,,,,,,,,,,,0,0,0,,-96,14432,6684,1913,446,-303
28.468,28.22,-3.14,4.18,-5.15,-2.33,-3.40,-3.13,-1.85,2.88,-4.25,800.00,1344.00,561.00,1051.00,1191.00,2671.00,1789.00,4095.00,,,,,,,,,,,,0,0,0,,-4,14720,6552,1733,620,-288
28.509,28.28,-3.19,-2.45,-0.75,-3.10,-3.10,-4.23,-1.04,2.32,-3.42,711.00,1552.00,560.00,1075.00,1163.00,2730.00,1728.00,4095.00,,,,,,,,,,,,0,0,0,,-88,14536,6108,1457,714,-406
28.571,28.33,-3.22,-4.61,3.27,-8.12,1.24,-3.72,-0.48,2.91,-4.29,595.00,1518.00,485.00,1167.00,1118.00,2636.00,1792.00,4095.00,,,,,,,,,,,,0,0,0,,-8,14580,6152,1088,633,-216
28.676,28.39,-3.12,-0.27,-0.98,-5.72,1.29,-1.15,-3.83,2.85,-4.20,692.00,1433.00,463.00,1060.00,1279.00,2605.00,1785.00,4095.00,,,,,,,,,,,,0,0,0,,-100,14828,5748,949,348,-282
28.696,28.44,-3.22,0.31,-2.56,0.33,-6.32,-5.26,-0.34,2.42,-3.57,746.00,1461.00,626.00,1023.00,1141.00,2791.00,1739.00,4095.00,,,,,,,,,,,,0,0,0,,-256,14868,5640,224,73,-490
28.738,28.50,-3.23,-4.12,0.72,-10.54,2.79,-3.38,-0.61,2.28,-3.37,677.00,1594.00,466.00,1232.00,1119.00,2610.00,1724.00,4095.00,,,,,,,,,,,,0,0,0,,-268,14872,5676,-285,136,-218
28.799,28.55,-3.13,-2.84,1.88,-4.84,0.91,-1.13,-4.04,3.01,-4.44,621.00,1469.00,465.00,1034.00,1293.00,2617.00,1803.00,4095.00,,,,,,,,,,,,0,0,0,,-392,14676,5588,-419,-33,-97
28.84,28.61,-3.23,3.07,-4.83,-0.61,-6.15,-5.18,0.03,2.47,-3.64,802.00,1392.00,631.00,1057.00,1117.00,2755.00,1744.00,4095.00,,,,,,,,,,,,0,0,0,,-200,14844,5720,-515,-135,5
28.88,28.66,-3.24,-4.91,1.26,-9.24,2.04,-3.53,-0.79,1.80,-2.66,667.00,1621.00,474.00,1194.00,1133.00,2638.00,1674.00,4095.00,,,,,,,,,,,,0,0,0,,-284,14628,6044,-620,-27,-48
28.942,28.72,-3.19,-5.12,4.89,-6.40,1.36,-2.21,-2.54,3.08,-4.54,550.00,1483.00,467.00,1087.00,1216.00,2624.00,1811.00,4095.00,,,,,,,,,,,,0,0,0,,-32,14880,6212,-345,68,-306
29.026,28.77,-3.15,2.55,-4.07,-3.53,-2.39,-2.37,-2.53,2.57,-3.79,777.00,1392.00,543.00,1073.00,1219.00,2640.00,1755.00,4095.00,,,,,,,,,,,,0,0,0,,-184,14720,6000,-215,113,-173
29.046,28.83,-3.22,-1.67,-1.24,-2.39,-3.86,-4.54,-0.66,1.98,-2.92,720.00,1525.00,576.00,1067.00,1146.00,2736.00,1692.00,4095.00,,,,,,,,,,,,0,0,0,,-244,14832,5872,-127,114,-203
29.109,28.88,-3.24,-4.36,2.84,-8.76,1.30,-3.71,-0.50,2.72,-4.01,606.00,1520.00,489.00,1195.00,1119.00,2636.00,1771.00,4095.00,,,,,,,,,,,,0,0,0,,-284,14800,5988,-167,117,-161
29.171,28.94,-3.13,-0.93,0.23,-6.98,2.28,-1.05,-3.98,2.70,-3.98,656.00,1424.00,449.00,1085.00,1287.00,2605.00,1769.00,4095.00,,,,,,,,,,,,0,0,0,,-136,14700,6076,-182,202,-91
29.213,28.99,-3.25,0.81,-2.73,-0.10,-6.29,-5.45,-0.11,2.34,-3.45,746.00,1439.00,630.00,1040.00,1131.00,2795.00,1730.00,4095.00,,,,,,,,,,,,0,0,0,,-292,14756,6108,-111,216,-104
29.274,29.05,-3.26,-4.15,1.28,-11.07,3.25,-3.49,-0.66,2.17,-3.20,657.00,1572.00,459.00,1243.00,1124.00,2624.00,1712.00,4095.00,,,,,,,,,,,,0,0,0,,-144,14756,5880,-88,131,-67
29.336,29.10,-3.18,-2.96,2.81,-4.72,0.52,-1.55,-3.78,3.08,-4.54,592.00,1440.00,474.00,1040.00,1285.00,2643.00,1811.00,4095.00,,,,,,,,,,,,0,0,0,,-248,14992,5856,-155,170,-23
29.418,29.16,-3.27,3.12,-4.82,-1.12,-5.74,-4.96,-0.41,2.52,-3.71,801.00,1389.00,623.00,1067.00,1139.00,2763.00,1749.00,4095.00,,,,,,,,,,,,0,0,0,,-208,14684,5972,-215,209,-103
29.46,29.21,-3.30,-5.61,1.41,-8.89,1.31,-3.87,-0.73,1.86,-2.75,670.00,1660.00,490.00,1201.00,1136.00,2669.00,1680.00,4095.00,,,,,,,,,,,,0,0,0,,-108,14672,6152,-19,285,-122
29.501,29.27,-3.28,-5.25,4.60,-6.77,0.83,-3.01,-1.86,3.07,-4.53,560.00,1502.00,484.00,1119.00,1189.00,2659.00,1810.00,4095.00,,,,,,,,,,,,0,0,0,,-144,14700,6040,-24,199,-62
29.563,29.32,-3.22,1.41,-3.23,-4.69,-1.31,-1.99,-2.93,2.61,-3.85,758.00,1424.00,523.00,1091.00,1237.00,2629.00,1759.00,4095.00,,,,,,,,,,,,0,0,0,,-228,14736,6024,-15,268,-88
29.625,29.38,-3.30,-1.66,-0.86,-1.92,-4.50,-4.92,-0.54,2.07,-3.06,705.00,1509.00,591.00,1065.00,1146.00,2768.00,1702.00,4095.00,,,,,,,,,,,,0,0,0,,-112,14852,5840,7,335,-96
29.666,29.43,-3.35,-4.70,2.99,-9.43,1.80,-4.21,-0.08,2.57,-3.79,605.00,1535.00,482.00,1211.00,1104.00,2659.00,1755.00,4095.00,,,,,,,,,,,,0,0,0,,-180,14652,5968,-63,316,-122
29.768,29.49,-3.23,-2.24,1.13,-6.69,2.31,-0.99,-4.10,2.78,-4.10,640.00,1464.00,446.00,1072.00,1294.00,2607.00,1778.00,4095.00,,,,,,,,,,,,0,0,0,,-188,14760,5908,-114,337,-131
29.789,29.54,-3.36,1.38,-3.36,-0.13,-6.59,-5.84,0.16,2.46,-3.63,764.00,1431.00,641.00,1050.00,1122.00,2817.00,1743.00,4095.00,,,,,,,,,,,,0,0,0,,-160,14748,5948,-212,310,-167
29.83,29.60,-3.36,-4.85,1.41,-11.31,3.66,-3.37,-0.73,2.16,-3.18,661.00,1611.00,451.00,1241.00,1126.00,2617.00,1711.00,4095.00,,,,,,,,,,,,0,0,0,,-256,14840,5980,-288,209,-181
29.892,29.65,-3.27,-3.71,3.06,-4.86,0.33,-1.57,-3.68,3.04,-4.48,592.00,1473.00,480.00,1051.00,1278.00,2637.00,1806.00,4095.00,,,,,,,,,,,,0,0,0,,-116,14684,5908,-31,248,-94
29.934,29.71,-3.35,3.52,-4.98,-1.45,-5.33,-4.86,-0.65,2.61,-3.85,802.00,1373.00,613.00,1069.00,1152.00,2770.00,1759.00,4095.00,,,,,,,,,,,,0,0,0,,-192,14680,5824,-109,190,-2
29.997,29.76,-3.40,-4.89,0.87,-7.91,0.46,-4.24,-0.67,1.99,-2.93,681.00,1637.00,504.00,1182.00,1140.00,2704.00,1693.00,4095.00,,,,,,,,,,,,0,0,0,,-164,14964,5892,-222,-23,-314
30.059,29.82,-3.40,-4.28,2.73,-7.73,1.19,-3.46,-1.38,3.04,-4.49,609.00,1520.00,483.00,1151.00,1168.00,2672.00,1807.00,4095.00,,,,,,,,,,,,1,1,0,,-176,14844,6052,-121,75,-184
30.141,29.87,-3.32,0.99,-2.14,-5.69,0.27,-1.75,-3.18,2.75,-4.05,720.00,1406.00,489.00,1088.00,1248.00,2621.00,1774.00,4095.00,,,,,,,,,,,,1,1,0,,-236,14728,5932,33,88,-224
30.161,29.93,-3.40,-1.15,-1.42,-1.34,-5.06,-4.96,-0.47,2.17,-3.20,720.00,1501.00,603.00,1057.00,1143.00,2768.00,1712.00,4095.00,,,,,,,,,,,,1,1,0,,-268,14752,5936,-86,17,-188
30.202,29.98,-3.43,-3.08,0.64,-9.01,1.05,-3.99,-0.14,2.44,-3.60,667.00,1533.00,498.00,1215.00,1103.00,2640.00,1741.00,4095.00,,,,,,,,,,,,1,1,0,,-176,14780,6160,-122,127,-104
30.263,30.04,-3.31,-2.05,1.18,-5.43,0.80,-0.98,-4.13,2.84,-4.18,636.00,1451.00,473.00,1062.00,1296.00,2608.00,1784.00,4095.00,,,,,,,,,,,,1,1,0,,-256,14744,5980,-103,80,-309
30.326,30.09,-3.42,2.59,-4.78,0.14,-7.28,-5.61,0.23,2.42,-3.57,807.00,1417.00,662.00,1058.00,1113.00,2786.00,1739.00,4095.00,,,,,,,,,,,,1,1,0,,-264,14700,5824,-189,17,-200
30.387,30.15,-3.41,-4.97,1.70,-10.78,3.15,-3.15,-0.97,2.04,-3.00,652.00,1606.00,459.00,1232.00,1136.00,2611.00,1698.00,4095.00,,,,,,,,,,,,1,1,0,,-256,14784,5952,-111,56,-177
30.427,30.20,-3.32,-3.79,3.43,-5.52,0.79,-1.76,-3.20,3.15,-4.65,581.00,1463.00,474.00,1066.00,1250.00,2624.00,1819.00,4095.00,,,,,,,,,,,,1,1,0,,-328,14788,5868,-159,111,-182
30.509,30.26,-3.36,5.56,-7.19,-1.16,-5.75,-4.10,-1.10,2.64,-3.90,871.00,1344.00,624.00,1069.00,1164.00,2720.00,1763.00,4095.00,,,,,,,,,,,,1,1,0,,-304,14640,5912,-106,129,-180
30.551,30.31,-3.40,-3.69,0.09,-5.58,-1.49,-4.10,-0.89,2.02,-2.97,695.00,1594.00,537.00,1136.00,1151.00,2705.00,1696.00,4095.00,,,,,,,,,,,,1,1,0,,-308,14908,5904,-137,156,-53
30.633,30.37,-3.41,-3.95,2.32,-7.52,0.08,-3.65,-0.80,2.95,-4.34,619.00,1517.00,511.00,1176.00,1136.00,2651.00,1796.00,4095.00,,,,,,,,,,,,1,1,0,,-200,14736,5744,-79,184,-21
30.654,30.42,-3.32,0.81,-2.00,-5.73,0.82,-1.52,-3.42,2.63,-3.87,717.00,1411.00,475.00,1074.00,1259.00,2614.00,1761.00,4095.00,,,,,,,,,,,,1,1,0,,-308,14700,5888,-251,28,-231
30.737,30.48,-3.39,-0.82,-0.85,-0.31,-6.01,-4.84,-0.64,2.37,-3.49,694.00,1459.00,623.00,1041.00,1151.00,2767.00,1733.00,4095.00,,,,,,,,,,,,1,1,0,,-300,14916,6108,-119,129,-141
30.757,30.53,-3.43,-3.30,1.00,-9.51,1.67,-4.13,0.52,2.37,-3.49,657.00,1532.00,486.00,1219.00,1067.00,2608.00,1733.00,4095.00,,,,,,,,,,,,1,1,0,,-152,14784,5928,-47,264,-14
30.817,30.59,-3.26,-2.18,1.57,-5.44,1.20,-0.08,-4.52,3.03,-4.46,624.00,1443.00,463.00,1051.00,1302.00,2543.00,1805.00,4095.00,,,,,,,,,,,,1,1,0,,-104,14780,5888,-172,197,-41
30.879,30.64,-3.37,2.62,-4.56,-0.43,-6.72,-5.32,0.30,2.48,-3.66,797.00,1407.00,649.00,1066.00,1103.00,2749.00,1745.00,4095.00,,,,,,,,,,,,1,1,0,,-140,14736,5928,-149,225,-67
30.921,30.70,-3.35,-4.65,1.48,-10.23,3.01,-3.00,-1.02,1.98,-2.92,656.00,1595.00,458.00,1210.00,1136.00,2599.00,1692.00,4095.00,,,,,,,,,,,,1,1,0,,-212,14788,5812,-106,127,-209
30.982,30.75,-3.26,-4.42,4.26,-5.61,0.70,-1.54,-3.23,3.30,-4.87,562.00,1467.00,477.00,1072.00,1247.00,2603.00,1836.00,4095.00,,,,,,,,,,,,1,1,0,,-212,14776,6020,-167,63,-177
31.045,30.81,-3.24,4.53,-5.71,-2.34,-4.00,-3.02,-1.73,2.59,-3.82,819.00,1345.00,580.00,1069.00,1181.00,2651.00,1757.00,4095.00,,,,,,,,,,,,1,1,0,,-292,14672,6148,-119,95,-211
31.106,30.86,-3.28,-2.77,-0.48,-4.00,-2.77,-4.00,-0.94,2.07,-3.06,705.00,1561.00,559.00,1104.00,1152.00,2698.00,1702.00,4095.00,,,,,,,,,,,,1,1,0,,-340,14732,6008,-215,93,-186
31.168,30.92,-3.30,-3.86,2.68,-7.91,0.72,-3.53,-0.35,2.75,-4.06,606.00,1497.00,497.00,1174.00,1106.00,2607.00,1775.00,4095.00,,,,,,,,,,,,1,1,0,,-352,14756,6032,-172,157,-114
31.229,30.97,-3.16,0.67,-1.62,-5.98,1.26,-0.58,-3.89,2.70,-3.98,704.00,1404.00,466.00,1072.00,1270.00,2551.00,1769.00,4095.00,,,,,,,,,,,,1,1,0,,-248,14844,5944,-116,191,-122
31.249,31.03,-3.25,0.86,-2.60,0.12,-6.53,-4.87,-0.31,2.38,-3.52,740.00,1431.00,636.00,1038.00,1131.00,2746.00,1735.00,4095.00,,,,,,,,,,,,1,1,0,,-184,14672,5888,-95,215,-22
31.31,31.08,-3.23,-4.22,1.42,-9.86,1.79,-3.00,-0.44,2.02,-2.97,653.00,1571.00,486.00,1232.00,1101.00,2559.00,1696.00,4095.00,,,,,,,,,,,,1,1,0,,-392,14664,5948,-200,66,-239
31.392,31.14,-3.10,-2.19,1.70,-4.82,0.67,-0.53,-4.05,2.92,-4.30,620.00,1439.00,471.00,1040.00,1280.00,2557.00,1793.00,4095.00,,,,,,,,,,,,1,1,0,,-352,14740,5900,-157,125,-81
31.433,31.19,-3.17,3.44,-4.86,-0.62,-6.23,-4.64,0.06,2.37,-3.49,798.00,1373.00,634.00,1060.00,1104.00,2694.00,1733.00,4095.00,,,,,,,,,,,,1,1,0,,-300,14692,5988,-157,200,-1
31.494,31.25,-3.16,-4.46,1.25,-9.24,2.08,-2.81,-0.72,1.64,-2.42,662.00,1593.00,473.00,1193.00,1114.00,2559.00,1657.00,4095.00,,,,,,,,,,,,1,1,0,,-212,14768,5988,-240,173,27
31.536,31.30,-3.08,-4.93,5.17,-6.37,1.08,-1.59,-2.52,3.01,-4.44,540.00,1461.00,474.00,1094.00,1201.00,2559.00,1803.00,4095.00,,,,,,,,,,,,1,1,0,,-220,14744,6020,-174,242,29
31.597,31.36,-3.02,3.25,-4.23,-3.41,-2.43,-1.93,-2.32,2.37,-3.49,774.00,1360.00,543.00,1069.00,1195.00,2579.00,1733.00,4095.00,,,,,,,,,,,,1,1,0,,-164,14804,6016,-108,122,-130
31.659,31.41,-3.06,-1.46,-1.16,-2.28,-3.99,-3.90,-0.57,1.76,-2.59,714.00,1509.00,579.00,1066.00,1127.00,2661.00,1669.00,4095.00,,,,,,,,,,,,1,1,0,,-72,14816,5992,-156,72,-67
31.719,31.47,-3.06,-4.45,3.40,-8.70,1.59,-3.02,-0.30,2.32,-3.42,589.00,1503.00,481.00,1183.00,1093.00,2551.00,1728.00,4095.00,,,,,,,,,,,,1,1,0,,-208,14672,6032,-196,172,-126
31.76,31.52,-2.92,-1.35,0.37,-6.42,2.01,-0.21,-3.84,2.37,-3.49,656.00,1442.00,451.00,1069.00,1258.00,2510.00,1733.00,4095.00,,,,,,,,,,,,1,1,0,,-252,14684,6008,-314,178,-162
31.821,31.58,-3.01,1.09,-2.70,0.18,-6.38,-4.74,0.06,1.93,-2.85,741.00,1422.00,630.00,1031.00,1106.00,2705.00,1687.00,4095.00,,,,,,,,,,,,1,1,0,,-176,14768,6120,-223,216,-17
31.883,31.63,-2.99,-5.09,2.08,-10.89,3.43,-2.63,-0.57,1.80,-2.66,640.00,1597.00,453.00,1228.00,1101.00,2530.00,1674.00,4095.00,,,,,,,,,,,,1,1,0,,-176,14792,6052,-116,311,5
32.024,31.69,-2.87,-3.13,3.05,-4.36,0.79,-0.66,-3.72,2.71,-4.00,586.00,1440.00,464.00,1018.00,1260.00,2547.00,1770.00,4095.00,,,,,,,,,,,,1,1,0,,-180,14832,5856,-40,271,129
32.044,31.74,-2.95,2.74,-4.32,-0.58,-5.62,-4.39,-0.02,2.01,-2.96,785.00,1391.00,613.00,1041.00,1104.00,2674.00,1695.00,4095.00,,,,,,,,,,,,1,1,0,,-224,14592,6100,-221,185,4
32.064,31.80,-2.96,-5.01,1.29,-8.54,1.61,-3.19,-0.48,1.26,-1.86,667.00,1626.00,479.00,1175.00,1107.00,2581.00,1619.00,4095.00,,,,,,,,,,,,1,1,0,,-112,14852,6188,-85,337,-120
32.085,31.85,-2.92,-4.95,5.07,-6.51,1.24,-2.11,-1.75,2.60,-3.83,543.00,1466.00,471.00,1095.00,1163.00,2559.00,1758.00,4095.00,,,,,,,,,,,,1,1,0,,-84,14740,6032,-82,245,-194
32.146,31.91,-2.84,2.25,-3.22,-4.66,-0.33,-1.23,-2.78,2.07,-3.06,746.00,1377.00,496.00,1062.00,1210.00,2540.00,1702.00,4095.00,,,,,,,,,,,,1,1,0,,-228,14572,6104,-187,72,-99
32.187,31.96,-2.89,-1.04,-0.86,-0.69,-4.66,-4.03,-0.33,1.55,-2.29,697.00,1472.00,583.00,1019.00,1115.00,2657.00,1648.00,4095.00,,,,,,,,,,,,1,1,0,,4,14828,6012,18,185,-42
32.248,32.02,-2.92,-3.90,2.54,-8.43,1.58,-3.30,0.15,1.90,-2.80,611.00,1505.00,479.00,1171.00,1072.00,2549.00,1684.00,4095.00,,,,,,,,,,,,1,1,0,,-224,14728,6144,37,148,-141
32.351,32.07,-2.77,-1.91,1.27,-6.11,2.57,-0.06,-3.91,2.21,-3.25,631.00,1439.00,435.00,1040.00,1259.00,2500.00,1716.00,4095.00,,,,,,,,,,,,1,1,0,,-156,14740,6096,251,102,-98
32.372,32.13,-2.88,2.09,-3.38,1.23,-7.06,-4.99,0.43,1.74,-2.56,755.00,1392.00,641.00,1007.00,1089.00,2705.00,1667.00,4095.00,,,,,,,,,,,,1,1,0,,-196,14660,5580,67,126,-166
32.433,32.18,-2.86,-4.65,1.88,-10.05,3.15,-2.35,-0.71,1.36,-2.01,642.00,1578.00,453.00,1197.00,1104.00,2512.00,1629.00,4095.00,,,,,,,,,,,,1,1,0,,-312,14772,5864,-403,324,-107
32.475,32.24,-2.75,-3.05,3.09,-3.85,0.23,-0.72,-3.43,2.45,-3.61,584.00,1434.00,474.00,1013.00,1242.00,2534.00,1742.00,4095.00,,,,,,,,,,,,1,1,0,,-160,14728,6012,-265,197,-124
32.538,32.29,-2.80,4.47,-5.39,-0.61,-5.43,-3.80,-0.75,1.84,-2.72,806.00,1337.00,607.00,1037.00,1136.00,2663.00,1678.00,4095.00,,,,,,,,,,,,1,1,0,,-220,14976,6108,-245,208,-96
32.599,32.35,-2.83,-4.11,0.50,-6.31,-0.26,-3.27,-0.77,1.07,-1.58,685.00,1603.00,509.00,1131.00,1126.00,2609.00,1600.00,4095.00,,,,,,,,,,,,1,1,0,,-252,14872,6216,41,151,48
32.722,32.40,-2.81,-4.09,2.88,-6.62,0.44,-2.51,-1.17,2.33,-3.44,602.00,1503.00,493.00,1124.00,1135.00,2559.00,1729.00,4095.00,,,,,,,,,,,,1,1,0,,-156,14664,6376,291,360,4
32.743,32.46,-2.70,1.64,-2.53,-4.81,0.55,-0.69,-3.16,1.88,-2.78,727.00,1385.00,474.00,1043.00,1223.00,2512.00,1682.00,4095.00,,,,,,,,,,,,1,1,0,,-232,14708,5904,332,525,12
32.763,32.51,-2.77,-0.44,-1.65,0.10,-5.64,-4.01,-0.49,1.48,-2.19,720.00,1469.00,606.00,1014.00,1124.00,2666.00,1641.00,4095.00,,,,,,,,,,,,1,1,0,,-200,14692,5764,9,695,185
32.803,32.57,-2.77,-2.83,0.87,-8.26,1.29,-2.74,-0.14,1.58,-2.33,656.00,1509.00,485.00,1172.00,1078.00,2512.00,1651.00,4095.00,,,,,,,,,,,,1,1,0,,-280,14860,5436,-270,738,37
32.865,32.62,-2.62,-1.70,1.62,-4.66,1.46,0.22,-4.33,2.20,-3.24,617.00,1414.00,450.00,1012.00,1282.00,2501.00,1715.00,4095.00,,,,,,,,,,,,1,1,0,,-228,14808,5632,-525,512,-174
32.907,32.68,-2.73,2.67,-4.11,0.98,-6.80,-4.76,0.32,1.78,-2.62,777.00,1387.00,635.00,1010.00,1091.00,2688.00,1671.00,4095.00,,,,,,,,,,,,1,1,0,,-244,14724,5648,-399,212,-66
32.969,32.73,-2.70,-4.60,1.98,-10.44,4.16,-2.29,-0.78,1.35,-2.00,638.00,1571.00,432.00,1183.00,1107.00,2511.00,1628.00,4095.00,,,,,,,,,,,,1,1,0,,-268,14792,5920,-491,-32,-1
33.051,32.79,-2.60,-3.76,4.27,-4.23,0.75,-0.57,-3.44,2.62,-3.86,555.00,1429.00,464.00,1014.00,1239.00,2519.00,1760.00,4095.00,,,,,,,,,,,,1,1,0,,-184,14628,6160,-517,83,-3
33.073,32.84,-2.61,5.38,-6.17,-0.09,-5.36,-2.94,-1.30,1.86,-2.75,827.00,1317.00,599.00,1014.00,1152.00,2612.00,1680.00,4095.00,,,,,,,,,,,,1,1,0,,-104,14900,6432,-415,342,-34
33.133,32.90,-2.64,-3.05,0.55,-4.76,-0.85,-3.24,-0.94,1.30,-1.92,670.00,1535.00,511.00,1081.00,1136.00,2618.00,1623.00,4095.00,,,,,,,,,,,,1,1,0,,-192,14700,6284,-219,404,-114
33.194,32.95,-2.65,-4.14,3.39,-7.09,1.16,-2.66,-0.64,2.03,-2.99,586.00,1485.00,478.00,1123.00,1106.00,2538.00,1697.00,4095.00,,,,,,,,,,,,1,1,0,,-168,14716,5952,-35,254,-80
33.277,33.01,-2.51,1.68,-2.27,-5.09,1.73,0.07,-3.80,1.99,-2.93,716.00,1373.00,447.00,1022.00,1249.00,2480.00,1693.00,4095.00,,,,,,,,,,,,1,1,0,,-96,14704,5972,-50,41,-84
33.298,33.06,-2.58,0.60,-2.03,0.98,-5.93,-3.99,-0.64,1.72,-2.53,721.00,1424.00,606.00,987.00,1133.00,2675.00,1665.00,4095.00,,,,,,,,,,,,1,1,0,,-288,14536,6056,-401,1,-256
33.359,33.12,-2.59,-3.11,1.16,-7.08,1.71,-2.62,-0.26,1.56,-2.30,649.00,1514.00,464.00,1106.00,1083.00,2509.00,1649.00,4095.00,,,,,,,,,,,,1,1,0,,-240,14696,6104,-159,115,-127
33.442,33.17,-2.45,-1.81,1.87,-3.97,1.19,0.09,-4.16,2.17,-3.20,610.00,1411.00,451.00,992.00,1273.00,2502.00,1712.00,4095.00,,,,,,,,,,,,1,1,0,,-212,14600,6104,-200,169,-42
33.463,33.23,-2.55,3.74,-4.71,0.95,-6.67,-4.35,0.23,1.86,-2.75,787.00,1351.00,631.00,1008.00,1088.00,2651.00,1680.00,4095.00,,,,,,,,,,,,1,1,0,,-100,14660,6300,-221,122,-7
33.505,33.28,-2.54,-3.90,1.23,-8.73,2.62,-2.36,-0.71,1.19,-1.76,656.00,1559.00,455.00,1152.00,1104.00,2513.00,1612.00,4095.00,,,,,,,,,,,,1,1,0,,-80,14784,6188,-167,212,-81
33.567,33.34,-2.45,-4.26,4.87,-5.11,1.29,-0.86,-2.89,2.59,-3.82,542.00,1434.00,458.00,1035.00,1209.00,2511.00,1757.00,4095.00,,,,,,,,,,,,1,1,0,,-156,14748,6324,-281,119,-239
33.629,33.39,-2.43,4.47,-4.97,-1.21,-3.67,-1.99,-1.87,1.86,-2.75,788.00,1322.00,558.00,1013.00,1168.00,2555.00,1680.00,4095.00,,,,,,,,,,,,1,1,0,,-140,14628,6168,-178,60,-220
33.692,33.45,-2.48,-1.88,-0.41,-2.46,-2.89,-3.41,-0.77,1.44,-2.13,691.00,1504.00,547.00,1042.00,1129.00,2624.00,1637.00,4095.00,,,,,,,,,,,,1,1,0,,-188,14604,6168,-191,110,-198
33.753,33.50,-2.49,-3.92,3.35,-7.97,1.93,-2.67,-0.35,2.01,-2.96,585.00,1474.00,466.00,1139.00,1089.00,2520.00,1695.00,4095.00,,,,,,,,,,,,1,1,0,,-296,14552,6124,-391,241,-118
33.815,33.56,-2.36,-0.13,-0.51,-5.48,1.86,0.11,-3.85,1.87,-2.76,673.00,1407.00,447.00,1034.00,1251.00,2479.00,1681.00,4095.00,,,,,,,,,,,,1,1,0,,-240,14680,6168,-290,327,7
33.836,33.61,-2.44,1.04,-2.23,-0.58,-3.52,-4.04,-0.52,1.55,-2.29,723.00,1407.00,547.00,984.00,1127.00,2672.00,1648.00,4095.00,,,,,,,,,,,,1,1,0,,-144,14684,6284,-167,167,-12
33.897,33.67,-2.44,-4.80,2.02,-10.06,3.07,-2.47,-0.54,1.40,-2.07,639.00,1582.00,455.00,1200.00,1096.00,2512.00,1633.00,4095.00,,,,,,,,,,,,1,1,0,,-144,14792,6340,-15,204,-22
33.958,33.72,-2.34,-2.92,2.79,-5.10,1.08,-0.39,-3.88,2.31,-3.41,592.00,1438.00,463.00,1040.00,1265.00,2531.00,1727.00,4095.00,,,,,,,,,,,,1,1,0,,-168,14484,6112,-188,28,-252
34.019,33.78,-2.43,3.28,-4.03,0.22,-5.71,-4.20,-0.11,1.74,-2.56,765.00,1351.00,607.00,1011.00,1105.00,2659.00,1667.00,4095.00,,,,,,,,,,,,1,1,0,,-156,14712,6308,-70,183,-87
34.06,33.83,-2.45,-5.37,2.15,-8.69,2.25,-2.85,-0.59,1.08,-1.60,641.00,1612.00,464.00,1162.00,1107.00,2554.00,1601.00,4095.00,,,,,,,,,,,,1,1,0,,-216,14556,6236,-57,247,-131
34.122,33.89,-2.41,-5.18,5.67,-6.23,1.62,-1.56,-2.27,2.46,-3.63,528.00,1456.00,459.00,1072.00,1184.00,2539.00,1743.00,4095.00,,,,,,,,,,,,1,1,0,,-96,14644,6208,-224,142,7
34.182,33.94,-2.35,2.50,-3.42,-3.65,-1.65,-1.21,-2.79,1.97,-2.90,751.00,1371.00,523.00,1057.00,1210.00,2539.00,1691.00,4095.00,,,,,,,,,,,,1,1,0,,-116,14660,6252,-162,169,12
34.243,34.00,-2.43,-1.46,-0.58,-0.73,-4.42,-3.98,-0.43,1.28,-1.89,692.00,1486.00,576.00,1014.00,1120.00,2659.00,1621.00,4095.00,,,,,,,,,,,,1,1,0,,-156,14624,6128,-144,164,-198
34.285,34.05,-2.47,-4.40,3.61,-8.76,2.31,-3.25,-0.07,1.89,-2.79,582.00,1492.00,463.00,1163.00,1084.00,2559.00,1683.00,4095.00,,,,,,,,,,,,1,1,0,,-96,14636,6124,-184,86,-143
34.346,34.11,-2.35,-1.86,1.46,-5.92,2.55,-0.08,-3.97,2.17,-3.20,624.00,1429.00,434.00,1033.00,1264.00,2506.00,1712.00,4095.00,,,,,,,,,,,,1,1,0,,-176,14712,6200,-189,114,-114
34.407,34.16,-2.49,1.53,-2.75,0.86,-6.46,-5.11,0.22,1.86,-2.75,737.00,1399.00,625.00,1006.00,1104.00,2733.00,1680.00,4095.00,,,,,,,,,,,,1,1,0,,-152,14556,6200,-219,142,-180
34.468,34.22,-2.49,-4.96,2.24,-10.30,3.48,-2.55,-0.74,1.62,-2.39,633.00,1582.00,447.00,1198.00,1110.00,2534.00,1655.00,4095.00,,,,,,,,,,,,1,1,0,,-196,14704,6124,-241,142,-83
34.591,34.27,-2.41,-3.40,3.30,-3.94,0.57,-0.84,-3.63,2.58,-3.81,581.00,1446.00,466.00,1007.00,1258.00,2559.00,1756.00,4095.00,,,,,,,,,,,,1,1,0,,-164,14632,6368,-158,74,-48
34.612,34.33,-2.51,4.22,-4.79,-0.19,-5.51,-4.32,-0.58,2.06,-3.04,784.00,1329.00,605.00,1022.00,1136.00,2706.00,1701.00,4095.00,,,,,,,,,,,,1,1,0,,-68,14560,6064,-170,54,-167
34.633,34.38,-2.56,-4.79,1.22,-6.96,0.22,-3.51,-0.77,1.28,-1.89,667.00,1615.00,502.00,1146.00,1131.00,2634.00,1621.00,4095.00,,,,,,,,,,,,1,1,0,,-144,14632,6184,-268,-54,-248
34.675,34.44,-2.57,-5.39,5.18,-6.84,1.39,-2.81,-1.37,2.61,-3.85,544.00,1487.00,470.00,1105.00,1154.00,2604.00,1759.00,4095.00,,,,,,,,,,,,1,1,0,,-232,14776,6288,-227,169,-113
34.736,34.49,-2.50,1.21,-1.82,-5.34,1.12,-1.18,-3.13,2.15,-3.17,705.00,1382.00,464.00,1049.00,1232.00,2559.00,1710.00,4095.00,,,,,,,,,,,,1,1,0,,-144,14540,6288,-148,98,-234
34.797,34.55,-2.60,-1.27,-0.59,-0.63,-4.90,-4.47,-0.38,1.71,-2.52,690.00,1475.00,590.00,1023.00,1127.00,2708.00,1664.00,4095.00,,,,,,,,,,,,1,1,0,,-120,14512,6404,-265,45,-207
34.839,34.60,-2.64,-3.09,1.33,-8.08,1.00,-3.49,-0.06,1.96,-2.89,643.00,1506.00,491.00,1173.00,1088.00,2582.00,1690.00,4095.00,,,,,,,,,,,,1,1,0,,-204,14484,6356,-241,169,-89
34.92,34.66,-2.53,-2.14,1.65,-5.06,1.68,-0.48,-4.03,2.38,-3.52,621.00,1438.00,448.00,1022.00,1277.00,2550.00,1735.00,4095.00,,,,,,,,,,,,1,1,0,,-148,14760,6388,-289,138,-182
34.941,34.71,-2.67,2.55,-4.09,1.03,-7.02,-5.21,0.24,2.04,-3.02,778.00,1393.00,642.00,1014.00,1105.00,2743.00,1699.00,4095.00,,,,,,,,,,,,1,1,0,,-216,14620,6344,-380,33,-233
35.002,34.77,-2.67,-4.78,1.98,-10.07,3.36,-2.69,-0.89,1.64,-2.42,640.00,1582.00,448.00,1191.00,1122.00,2559.00,1657.00,4095.00,,,,,,,,,,,,1,1,0,,-272,14584,6256,-214,15,-236
35.064,34.82,-2.60,-4.26,4.44,-4.45,0.79,-1.21,-3.52,2.85,-4.21,555.00,1451.00,465.00,1022.00,1259.00,2589.00,1786.00,4095.00,,,,,,,,,,,,1,1,0,,-236,14512,6728,-269,36,-168
35.105,34.88,-2.65,4.97,-5.86,0.03,-5.80,-3.66,-1.31,2.23,-3.28,819.00,1327.00,612.00,1021.00,1168.00,2689.00,1718.00,4095.00,,,,,,,,,,,,1,1,0,,-156,14608,6552,-242,176,-88
35.167,34.93,-2.71,-3.53,0.25,-5.19,-1.21,-3.93,-0.90,1.71,-2.52,687.00,1577.00,525.00,1110.00,1148.00,2688.00,1664.00,4095.00,,,,,,,,,,,,1,1,0,,-140,14540,6404,-153,172,-66
35.288,34.99,-2.75,-4.67,3.38,-7.01,0.46,-3.48,-0.86,2.64,-3.89,592.00,1517.00,496.00,1141.00,1136.00,2637.00,1762.00,4095.00,,,,,,,,,,,,1,1,0,,-120,14412,6360,-190,138,-50
35.309,35.04,-2.68,0.82,-1.51,-5.12,1.01,-1.32,-3.56,2.41,-3.56,698.00,1392.00,465.00,1043.00,1264.00,2603.00,1738.00,4095.00,,,,,,,,,,,,1,1,0,,-176,14724,6424,-287,-19,-334
35.33,35.10,-2.78,-0.22,-1.60,0.51,-6.14,-4.67,-0.73,2.23,-3.30,715.00,1454.00,618.00,1011.00,1153.00,2755.00,1719.00,4095.00,,,,,,,,,,,,1,1,0,,-64,14584,6376,-165,114,-116
35.37,35.15,-2.82,-3.53,1.50,-9.22,1.92,-3.49,-0.43,2.17,-3.20,642.00,1525.00,477.00,1197.00,1110.00,2608.00,1712.00,4095.00,,,,,,,,,,,,1,1,0,,-160,14436,6380,-203,27,-204
35.431,35.21,-2.71,-3.05,2.50,-4.46,1.27,-0.78,-4.30,2.77,-4.09,603.00,1457.00,453.00,1009.00,1303.00,2599.00,1777.00,4095.00,,,,,,,,,,,,1,1,0,,-228,14500,6488,-216,19,-163
35.493,35.26,-2.83,3.23,-4.44,0.62,-6.73,-5.13,-0.04,2.23,-3.30,783.00,1369.00,637.00,1023.00,1120.00,2754.00,1719.00,4095.00,,,,,,,,,,,,1,1,0,,-280,14528,6464,-273,158,-47
35.554,35.32,-2.86,-4.57,1.48,-9.16,2.53,-3.36,-0.72,1.57,-2.32,655.00,1590.00,461.00,1175.00,1125.00,2615.00,1650.00,4095.00,,,,,,,,,,,,1,1,0,,-248,14452,6424,-186,99,-231
35.658,35.37,-2.79,-5.07,5.15,-5.90,1.35,-1.42,-3.51,3.00,-4.42,542.00,1470.00,463.00,1066.00,1263.00,2610.00,1802.00,4095.00,,,,,,,,,,,,1,1,0,,-272,14680,6544,-213,42,-161
35.678,35.43,-2.80,3.86,-4.89,-1.92,-3.60,-2.99,-2.07,2.32,-3.42,793.00,1351.00,563.00,1040.00,1202.00,2672.00,1728.00,4095.00,,,,,,,,,,,,1,1,0,,-244,14584,6452,-124,74,-162
35.72,35.48,-2.87,-2.32,-0.53,-2.91,-3.17,-4.27,-1.01,1.79,-2.65,701.00,1535.00,560.00,1069.00,1162.00,2732.00,1673.00,4095.00,,,,,,,,,,,,1,1,0,,-256,14448,6480,-240,25,-317
35.761,35.54,-2.91,-4.25,3.34,-7.86,1.35,-3.58,-0.71,2.42,-3.57,589.00,1494.00,480.00,1152.00,1129.00,2637.00,1739.00,4095.00,,,,,,,,,,,,1,1,0,,-288,14492,6628,-158,78,-130
35.842,35.59,-2.82,-0.78,-0.54,-5.85,1.42,-1.13,-3.84,2.40,-3.55,682.00,1445.00,461.00,1062.00,1279.00,2603.00,1737.00,4095.00,,,,,,,,,,,,1,1,0,,-328,14640,6600,-69,211,-217
35.925,35.65,-2.94,0.12,-1.79,0.39,-6.22,-5.20,-0.39,2.00,-2.95,718.00,1442.00,622.00,1018.00,1143.00,2788.00,1694.00,4095.00,,,,,,,,,,,,1,1,0,,-216,14640,6240,24,110,-110
35.945,35.70,-2.97,-4.97,1.84,-10.44,3.04,-3.63,-0.66,2.02,-2.97,647.00,1600.00,459.00,1219.00,1127.00,2639.00,1696.00,4095.00,,,,,,,,,,,,1,1,0,,-164,14312,6664,-160,-11,-126
36.006,35.76,-2.88,-3.32,2.74,-4.03,0.48,-1.19,-4.06,2.74,-4.04,598.00,1463.00,469.00,1013.00,1296.00,2625.00,1773.00,4095.00,,,,,,,,,,,,1,1,0,,-164,14428,6472,-44,215,-237
36.047,35.81,-2.99,3.04,-4.33,-0.31,-6.01,-4.93,-0.35,2.91,-4.29,781.00,1375.00,623.00,1041.00,1135.00,2756.00,1792.00,4095.00,,,,,,,,,,,,1,1,0,,-328,14436,6364,-138,118,-95
36.088,35.87,-3.03,-5.45,1.72,-8.86,1.64,-3.86,-0.55,1.53,-2.26,657.00,1636.00,481.00,1189.00,1125.00,2655.00,1646.00,4095.00,,,,,,,,,,,,1,1,0,,-192,14688,6572,-163,124,-92
36.15,35.92,-3.00,-5.87,5.90,-6.53,1.49,-2.47,-2.30,2.85,-4.20,528.00,1487.00,465.00,1089.00,1206.00,2634.00,1785.00,4095.00,,,,,,,,,,,,1,1,0,,-272,14612,6408,-79,85,-146
36.21,35.98,-2.95,1.95,-3.31,-3.96,-1.73,-2.07,-2.98,2.44,-3.60,754.00,1397.00,528.00,1072.00,1242.00,2640.00,1741.00,4095.00,,,,,,,,,,,,1,1,0,,-320,14476,6344,-99,124,-136
36.291,36.03,-3.05,-2.18,-0.36,-1.22,-4.64,-4.80,-0.69,1.85,-2.73,693.00,1520.00,588.00,1040.00,1153.00,2766.00,1679.00,4095.00,,,,,,,,,,,,1,1,0,,-244,14412,6256,-104,133,-117
36.311,36.09,-3.10,-4.62,3.46,-9.23,2.16,-4.15,-0.22,2.37,-3.49,589.00,1511.00,471.00,1190.00,1111.00,2662.00,1733.00,4095.00,,,,,,,,,,,,1,1,0,,-312,14560,6444,-179,231,-83
36.393,36.14,-3.00,-2.41,1.33,-6.15,1.96,-1.18,-4.07,2.57,-3.79,635.00,1466.00,450.00,1059.00,1296.00,2624.00,1755.00,4095.00,,,,,,,,,,,,1,1,0,,-212,14592,6332,-149,91,-33
36.455,36.20,-3.14,1.14,-2.64,0.16,-6.46,-5.67,-0.14,2.26,-3.34,738.00,1417.00,633.00,1034.00,1137.00,2821.00,1722.00,4095.00,,,,,,,,,,,,1,1,0,,-196,14500,6500,-122,150,-41
36.516,36.25,-3.16,-5.25,2.14,-10.72,3.34,-3.48,-0.89,1.95,-2.88,640.00,1605.00,454.00,1223.00,1138.00,2640.00,1689.00,4095.00,,,,,,,,,,,,1,1,0,,-96,14356,6420,-107,110,-111
36.537,36.31,-3.08,-4.11,3.70,-4.89,0.85,-1.63,-3.70,2.88,-4.25,576.00,1471.00,467.00,1038.00,1281.00,2645.00,1789.00,4095.00,,,,,,,,,,,,1,1,0,,-68,14848,6324,17,57,-100
36.598,36.36,-3.16,3.49,-4.55,-0.87,-5.58,-4.71,-0.85,2.30,-3.39,784.00,1359.00,615.00,1052.00,1161.00,2768.00,1726.00,4095.00,,,,,,,,,,,,1,1,0,,-220,14396,6440,-34,76,-103
36.64,36.42,-3.21,-4.83,1.12,-7.08,-0.00,-4.11,-0.86,1.62,-2.39,671.00,1622.00,509.00,1158.00,1149.00,2704.00,1655.00,4095.00,,,,,,,,,,,,1,1,0,,-148,14428,6504,112,19,-11
36.743,36.47,-3.22,-5.06,4.37,-6.61,0.36,-3.41,-1.38,2.76,-4.08,565.00,1500.00,495.00,1126.00,1167.00,2667.00,1776.00,4095.00,,,,,,,,,,,,1,1,0,,-112,14436,6684,-8,122,-16
36.764,36.53,-3.14,1.25,-2.22,-5.08,0.14,-1.65,-3.30,2.42,-3.57,720.00,1395.00,487.00,1066.00,1254.00,2619.00,1739.00,4095.00,,,,,,,,,,,,1,1,0,,-44,14508,6408,-24,278,-136
36.805,36.58,-3.23,-1.45,-0.90,-0.68,-5.44,-5.00,-0.62,1.92,-2.83,704.00,1498.00,608.00,1040.00,1153.00,2783.00,1686.00,4095.00,,,,,,,,,,,,1,1,0,,-68,14604,6276,-13,252,-59
36.868,36.64,-3.26,-3.55,1.48,-8.53,0.96,-3.73,-0.35,2.12,-3.13,643.00,1527.00,496.00,1195.00,1110.00,2627.00,1707.00,4095.00,,,,,,,,,,,,1,1,0,,-20,14576,6108,-99,70,-68
36.93,36.69,-3.14,-2.48,1.73,-5.51,1.58,-0.83,-4.35,2.64,-3.90,622.00,1454.00,454.00,1043.00,1308.00,2608.00,1763.00,4095.00,,,,,,,,,,,,1,1,0,,-60,14592,6280,-123,-15,-203
36.972,36.75,-3.26,2.33,-4.16,0.37,-7.19,-5.58,0.08,2.17,-3.20,784.00,1408.00,656.00,1046.00,1122.00,2795.00,1712.00,4095.00,,,,,,,,,,,,1,1,0,,-136,14540,6368,-188,145,-159
37.033,36.80,-3.26,-4.94,1.78,-10.22,2.97,-3.27,-0.96,1.78,-2.62,649.00,1601.00,459.00,1211.00,1138.00,2623.00,1671.00,4095.00,,,,,,,,,,,,1,1,0,,-172,14648,6212,-269,215,-202
37.156,36.86,-3.17,-4.74,4.73,-5.11,0.54,-1.47,-3.68,3.01,-4.44,551.00,1467.00,477.00,1056.00,1276.00,2627.00,1803.00,4095.00,,,,,,,,,,,,1,1,0,,-4,14576,6496,-147,78,-17
37.177,36.91,-3.20,4.56,-5.69,-1.25,-5.09,-3.79,-1.52,2.32,-3.42,818.00,1343.00,603.00,1054.00,1184.00,2718.00,1728.00,4095.00,,,,,,,,,,,,1,1,0,,56,14656,6308,-94,102,-215
37.219,36.97,-3.24,-3.57,0.29,-5.15,-1.57,-3.96,-1.26,1.83,-2.70,686.00,1578.00,535.00,1119.00,1171.00,2717.00,1677.00,4095.00,,,,,,,,,,,,1,1,0,,-136,14496,6468,-319,-43,-413
37.26,37.02,-3.24,-4.28,3.16,-7.25,0.35,-3.31,-0.91,2.47,-3.64,595.00,1503.00,501.00,1155.00,1136.00,2624.00,1744.00,4095.00,,,,,,,,,,,,1,1,0,,-136,14588,6404,-350,63,-176
37.301,37.08,-3.13,0.84,-1.41,-5.42,0.95,-1.08,-3.77,2.33,-3.44,694.00,1387.00,469.00,1057.00,1273.00,2593.00,1729.00,4095.00,,,,,,,,,,,,1,1,0,,-256,14544,6360,-110,143,-181
37.363,37.13,-3.20,-0.65,-1.43,0.41,-6.13,-4.54,-0.76,2.02,-2.97,714.00,1472.00,619.00,1015.00,1152.00,2743.00,1696.00,4095.00,,,,,,,,,,,,1,1,0,,-276,14504,6260,-292,157,-106
37.424,37.19,-3.21,-3.08,1.38,-9.48,2.12,-3.29,-0.48,1.86,-2.75,641.00,1503.00,474.00,1203.00,1109.00,2591.00,1680.00,4095.00,,,,,,,,,,,,1,1,0,,-216,14556,6436,-187,170,-90
37.485,37.24,-3.08,-2.43,2.41,-4.73,1.16,-0.61,-4.27,2.53,-3.74,599.00,1425.00,458.00,1023.00,1297.00,2580.00,1751.00,4095.00,,,,,,,,,,,,1,1,0,,-208,14584,6440,-174,95,-79
37.547,37.30,-3.17,3.17,-4.44,-0.29,-6.40,-4.92,-0.03,1.97,-2.90,784.00,1372.00,636.00,1051.00,1115.00,2731.00,1691.00,4095.00,,,,,,,,,,,,1,1,0,,-168,14508,6628,-264,251,-84
37.608,37.35,-3.17,-4.45,1.50,-9.35,2.39,-3.13,-0.83,1.30,-1.92,653.00,1582.00,466.00,1188.00,1127.00,2599.00,1623.00,4095.00,,,,,,,,,,,,1,1,0,,-180,14604,6508,-26,187,-44
37.629,37.41,-3.08,-5.36,5.73,-5.79,0.80,-1.49,-3.17,2.72,-4.01,528.00,1464.00,476.00,1077.00,1242.00,2594.00,1771.00,4095.00,,,,,,,,,,,,1,1,0,,-196,14440,6632,61,133,-29
37.69,37.46,-3.06,3.94,-4.77,-2.22,-3.72,-2.55,-2.20,1.93,-2.85,787.00,1343.00,570.00,1056.00,1201.00,2635.00,1687.00,4095.00,,,,,,,,,,,,1,1,0,,-232,14480,6696,211,408,54
37.792,37.52,-3.10,-1.74,-1.06,-2.82,-3.72,-3.86,-1.19,1.39,-2.05,714.00,1522.00,576.00,1081.00,1165.00,2702.00,1632.00,4095.00,,,,,,,,,,,,1,1,0,,-88,14604,6380,83,408,-22
37.853,37.57,-3.12,-4.66,3.66,-8.42,1.11,-3.45,-0.46,2.03,-2.99,583.00,1505.00,491.00,1185.00,1111.00,2606.00,1697.00,4095.00,,,,,,,,,,,,1,1,0,,-36,14608,6456,768,304,124
37.873,37.63,-2.99,-0.84,-0.36,-6.39,1.48,-0.53,-4.08,2.19,-3.23,676.00,1441.00,464.00,1083.00,1282.00,2559.00,1714.00,4095.00,,,,,,,,,,,,1,1,0,,-92,14556,6252,865,526,-233
37.915,37.68,-3.08,0.69,-2.19,0.36,-6.67,-4.75,-0.43,1.77,-2.60,726.00,1425.00,638.00,1032.00,1136.00,2742.00,1670.00,4095.00,,,,,,,,,,,,1,1,0,,-80,14588,6024,-183,330,-141
37.977,37.74,-3.05,-4.81,1.93,-10.50,2.74,-2.65,-0.79,1.58,-2.33,642.00,1586.00,467.00,1232.00,1115.00,2548.00,1651.00,4095.00,,,,,,,,,,,,1,1,0,,-148,14372,6208,-276,240,-89
38.018,37.79,-2.92,-2.77,2.68,-3.68,-0.02,-0.40,-4.13,2.16,-3.18,594.00,1434.00,479.00,1013.00,1282.00,2549.00,1711.00,4095.00,,,,,,,,,,,,1,1,0,,-132,14916,6296,1396,294,77
38.079,37.85,-2.99,3.62,-4.64,-0.35,-6.38,-4.26,-0.33,1.71,-2.52,786.00,1355.00,636.00,1053.00,1120.00,2682.00,1664.00,4095.00,,,,,,,,,,,,1,1,0,,-100,14648,6176,487,-10,236
38.141,37.90,-2.98,-5.17,1.63,-8.43,1.04,-2.89,-0.97,0.88,-1.29,657.00,1622.00,493.00,1188.00,1131.00,2585.00,1581.00,4095.00,,,,,,,,,,,,1,1,0,,32,14632,5544,-337,-339,-32
38.222,37.96,-2.92,-5.07,5.46,-6.21,0.91,-1.81,-2.18,2.29,-3.38,533.00,1458.00,477.00,1092.00,1184.00,2558.00,1725.00,4095.00,,,,,,,,,,,,1,1,0,,8,14800,6172,-985,-171,-204
38.243,38.01,-2.83,2.44,-3.55,-3.90,-1.82,-1.01,-3.19,1.97,-2.90,757.00,1379.00,530.00,1072.00,1232.00,2546.00,1691.00,4095.00,,,,,,,,,,,,1,1,0,,-20,15052,6144,-987,422,-271
38.305,38.07,-2.88,-1.03,-0.91,-1.00,-4.71,-3.92,-0.63,1.23,-1.82,699.00,1474.00,588.00,1033.00,1131.00,2667.00,1616.00,4095.00,,,,,,,,,,,,1,1,0,,-112,14876,5948,-1133,-15,-490
38.345,38.12,-2.90,-4.05,3.27,-8.47,1.67,-3.15,-0.17,1.75,-2.58,589.00,1485.00,477.00,1170.00,1088.00,2556.00,1668.00,4095.00,,,,,,,,,,,,1,1,0,,-132,14660,6384,-1192,-366,-302
38.407,38.18,-2.73,-1.72,1.36,-5.27,1.96,0.48,-3.97,1.95,-2.88,626.00,1425.00,443.00,1023.00,1251.00,2451.00,1689.00,4095.00,,,,,,,,,,,,1,1,0,,-132,14532,6768,-1195,-80,-165
38.468,38.23,-2.83,1.60,-2.34,1.42,-6.65,-4.76,0.20,1.55,-2.29,720.00,1380.00,625.00,989.00,1098.00,2697.00,1648.00,4095.00,,,,,,,,,,,,1,1,0,,-116,14308,6684,-1188,363,-214
38.529,38.29,-2.80,-4.15,2.18,-9.91,3.85,-2.30,-0.56,1.12,-1.66,626.00,1535.00,435.00,1168.00,1094.00,2497.00,1605.00,4095.00,,,,,,,,,,,,1,1,0,,-224,14632,6660,-904,313,-217
38.591,38.34,-2.68,-3.28,4.10,-3.56,0.81,-0.26,-3.46,2.07,-3.06,555.00,1408.00,457.00,986.00,1233.00,2489.00,1702.00,4095.00,,,,,,,,,,,,1,1,0,,-124,14468,6640,-480,82,-217
38.631,38.40,-2.72,4.77,-4.67,0.52,-5.25,-3.49,-0.44,2.00,-2.95,771.00,1296.00,589.00,987.00,1111.00,2609.00,1694.00,4095.00,,,,,,,,,,,,1,1,0,,-184,14316,6888,-84,-125,-188
38.714,38.45,-2.72,-3.94,1.38,-6.26,0.58,-2.69,-0.55,0.88,-1.29,651.00,1555.00,486.00,1104.00,1101.00,2535.00,1581.00,4095.00,,,,,,,,,,,,1,1,0,,-188,14124,6808,-197,95,93
38.733,38.51,-2.67,-4.61,4.82,-6.45,1.74,-1.89,-1.21,2.15,-3.17,547.00,1456.00,458.00,1078.00,1125.00,2500.00,1710.00,4095.00,,,,,,,,,,,,1,1,0,,-164,14148,6776,-568,329,225
38.795,38.56,-2.56,2.14,-1.77,-3.94,0.61,-0.39,-2.91,1.72,-2.53,691.00,1330.00,465.00,1006.00,1200.00,2466.00,1665.00,4095.00,,,,,,,,,,,,1,1,0,,-32,14528,6672,-477,217,51
38.836,38.62,-2.62,-0.60,-0.60,0.38,-4.86,-3.68,-0.18,1.13,-1.67,682.00,1437.00,578.00,982.00,1099.00,2610.00,1606.00,4095.00,,,,,,,,,,,,1,1,0,,72,14432,6792,-539,-87,-87
38.961,38.67,-2.61,-2.53,1.63,-7.65,1.39,-2.51,0.08,1.34,-1.98,626.00,1461.00,477.00,1141.00,1061.00,2475.00,1627.00,4095.00,,,,,,,,,,,,1,1,0,,104,14348,6988,-293,-110,-101
38.982,38.73,-2.46,-1.54,1.84,-4.60,2.15,0.47,-3.84,1.92,-2.83,608.00,1397.00,433.00,991.00,1242.00,2443.00,1686.00,4095.00,,,,,,,,,,,,1,1,0,,64,14388,6964,-143,10,-258
39.024,38.78,-2.55,2.94,-3.74,1.60,-6.77,-4.37,0.46,1.65,-2.43,758.00,1359.00,627.00,985.00,1075.00,2637.00,1658.00,4095.00,,,,,,,,,,,,1,1,0,,12,14304,6908,-323,78,-183
39.086,38.84,-2.53,-4.06,2.09,-9.47,3.79,-2.17,-0.49,1.16,-1.71,628.00,1533.00,433.00,1150.00,1087.00,2479.00,1609.00,4095.00,,,,,,,,,,,,1,1,0,,24,14356,6820,-152,66,-153
39.128,38.89,-2.41,-4.12,4.93,-4.28,1.42,-0.18,-3.30,2.47,-3.64,539.00,1424.00,448.00,998.00,1221.00,2471.00,1744.00,4095.00,,,,,,,,,,,,1,1,0,,56,14304,7048,-138,82,-175
39.188,38.95,-2.42,5.81,-5.87,0.61,-5.32,-2.49,-1.19,1.86,-2.75,807.00,1284.00,590.00,985.00,1136.00,2559.00,1680.00,4095.00,,,,,,,,,,,,1,1,0,,-16,14568,6804,-180,36,-345
39.229,39.00,-2.44,-2.94,0.46,-4.30,-1.01,-2.91,-0.57,1.33,-1.97,672.00,1532.00,511.00,1066.00,1107.00,2559.00,1626.00,4095.00,,,,,,,,,,,,1,1,0,,-112,14132,6972,-173,23,-176
39.333,39.06,-2.42,-3.88,3.62,-6.11,0.80,-1.92,-0.79,2.20,-3.24,576.00,1461.00,479.00,1091.00,1100.00,2475.00,1715.00,4095.00,,,,,,,,,,,,1,1,0,,-104,14232,7024,-185,84,-171
