Time_Host,Time_Arduino,easingdata,CH1_Oxy,CH1_Deoxy,CH2_Oxy,CH2_Deoxy,CH3_Oxy,CH3_Deoxy,CH4_Oxy,CH4_Deoxy,CH1_PD730,CH1_PD850,CH2_PD730,CH2_PD850,CH3_PD730,CH3_PD850,CH4_PD730,CH4_PD850,Answers,airplane_playstate,trail_times,frameRate,Airplane X,Airplane Y,Correct,Wrong,Slow,AnswerRate,CorrectRate,VFTstates,VFTchoose,VFTCount,Culfstates,ax,ay,az,gx,gy,gz
1.213,0.04,0.00,0.00,0.00,0.00,0.00,0.00,0.00,0.00,0.00,675.00,1154.00,415.00,1341.00,364.00,931.00,4095.00,4095.00,,,,,,,,,,,,0,0,0,,-3948,14964,3972,-46,113,-84
1.233,0.10,0.00,0.00,0.00,0.00,0.00,0.00,0.00,0.00,0.00,679.00,1111.00,321.00,1338.00,429.00,834.00,4095.00,4095.00,,,,,,,,,,,,0,0,0,,-3872,15200,3740,8,188,-144
1.253,0.15,0.00,0.00,0.00,0.00,0.00,0.00,0.00,0.00,0.00,676.00,1085.00,394.00,1217.00,481.00,896.00,4095.00,4095.00,,,,,,,,,,,,0,0,0,,-3996,15044,3656,-203,33,-247
1.273,0.21,0.00,0.00,0.00,0.00,0.00,0.00,0.00,0.00,0.00,733.00,1088.00,464.00,1295.00,353.00,973.00,4095.00,4095.00,,,,,,,,,,,,0,0,0,,-3992,15092,3936,-167,38,-128
1.294,0.26,0.00,0.00,0.00,0.00,0.00,0.00,0.00,0.00,0.00,625.00,1159.00,329.00,1386.00,401.00,845.00,4095.00,4095.00,,,,,,,,,,,,0,0,0,,-3924,15104,3956,-55,277,-169
1.315,0.32,0.00,0.00,0.00,0.00,0.00,0.00,0.00,0.00,0.00,688.00,1037.00,379.00,1269.00,503.00,869.00,4095.00,4095.00,,,,,,,,,,,,0,0,0,,-3956,15116,3864,24,211,-133
1.335,1.06,0.00,0.00,0.00,0.00,0.00,0.00,0.00,0.00,0.00,765.00,1106.00,499.00,1315.00,420.00,1002.00,4095.00,4095.00,,,,,,,,,,,,0,0,0,,-3956,15120,3592,-25,224,-166
1.355,1.11,0.00,0.00,0.00,0.00,0.00,0.00,0.00,0.00,0.00,655.00,1171.00,396.00,1431.00,403.00,902.00,4095.00,4095.00,,,,,,,,,,,,0,0,0,,-4044,15144,3712,-51,126,-183
1.375,1.17,0.00,0.00,0.00,0.00,0.00,0.00,0.00,0.00,0.00,719.00,1057.00,372.00,1343.00,526.00,867.00,4095.00,4095.00,,,,,,,,,,,,0,0,0,,-3920,15168,3708,-62,126,-173
1.457,1.22,0.00,0.00,0.00,0.00,0.00,0.00,0.00,0.00,0.00,752.00,1126.00,483.00,1291.00,446.00,971.00,4095.00,4095.00,,,,,,,,,,,,0,0,0,,-3968,14988,3656,-105,69,-161
1.497,1.28,-0.18,-1.76,1.29,-0.60,-1.02,-3.64,4.16,0.00,0.00,671.00,1149.00,433.00,1392.00,369.00,939.00,4095.00,4095.00,,,,,,,,,,,,0,0,0,,-4008,14976,3752,-31,175,-155
1.559,1.33,-0.05,-0.17,0.40,-4.66,4.97,2.55,-1.13,0.00,0.00,684.00,1105.00,337.00,1392.00,439.00,847.00,4095.00,4095.00,,,,,,,,,,,,0,0,0,,-3928,15076,3616,-42,205,-158
1.6,1.39,0.05,0.47,0.34,1.28,-0.28,1.89,-3.20,0.00,0.00,678.00,1079.00,402.00,1267.00,497.00,919.00,4095.00,4095.00,,,,,,,,,,,,0,0,0,,-4032,15048,3780,21,83,-201
1.662,1.44,-0.24,1.27,-1.49,2.85,-4.80,-5.88,4.96,0.00,0.00,738.00,1098.00,499.00,1344.00,368.00,1004.00,4095.00,4095.00,,,,,,,,,,,,0,0,0,,-4008,15136,3712,-40,89,-156
1.722,1.50,-0.19,-3.71,3.08,-5.36,4.51,0.89,-0.01,0.00,0.00,631.00,1183.00,350.00,1449.00,426.00,878.00,4095.00,4095.00,,,,,,,,,,,,0,0,0,,-4012,15060,3744,-146,143,-110
1.825,1.55,-0.00,1.68,-0.78,-0.58,0.48,3.54,-5.18,0.00,0.00,705.00,1060.00,399.00,1336.00,537.00,908.00,4095.00,4095.00,,,,,,,,,,,,0,0,0,,-3948,15032,3564,-14,135,-142
1.847,1.61,-0.21,0.56,-1.94,3.24,-5.37,-4.24,1.45,0.00,0.00,766.00,1143.00,511.00,1344.00,432.00,1034.00,4095.00,4095.00,,,,,,,,,,,,0,0,0,,-3988,15120,3672,-41,94,-160
1.886,1.66,-0.32,-3.63,2.28,-2.59,0.17,-2.38,2.34,0.00,0.00,658.00,1205.00,421.00,1459.00,398.00,938.00,4095.00,4095.00,,,,,,,,,,,,0,0,0,,-3956,15084,3516,-191,101,-258
1.948,1.72,-0.12,1.22,-1.07,-3.09,2.82,3.65,-3.75,0.00,0.00,722.00,1088.00,368.00,1386.00,496.00,870.00,4095.00,4095.00,,,,,,,,,,,,0,0,0,,-3920,15028,3768,-107,-29,-207
2.009,1.77,-0.11,0.91,-1.59,2.74,-3.42,0.21,-1.60,0.00,0.00,747.00,1117.00,464.00,1301.00,470.00,941.00,4095.00,4095.00,,,,,,,,,,,,0,0,0,,-3992,15112,3780,-132,73,-179
2.05,1.83,-0.33,0.60,-0.39,1.02,-2.69,-4.67,4.66,0.00,0.00,704.00,1095.00,460.00,1365.00,366.00,965.00,4095.00,4095.00,,,,,,,,,,,,0,0,0,,-3960,15100,3680,-87,134,-259
2.114,1.88,-0.18,-1.48,1.30,-5.52,5.32,2.72,-0.85,0.00,0.00,667.00,1136.00,336.00,1427.00,431.00,835.00,4095.00,4095.00,,,,,,,,,,,,0,0,0,,-4016,14948,3700,132,150,-96
2.196,1.94,-0.01,1.32,0.14,0.75,-0.06,3.29,-4.15,0.00,0.00,675.00,1049.00,401.00,1286.00,510.00,892.00,4095.00,4095.00,,,,,,,,,,,,0,0,0,,-3976,15080,3580,-76,250,-185
2.217,1.99,-0.27,1.98,-2.22,2.92,-4.83,-5.15,3.93,0.00,0.00,758.00,1089.00,499.00,1341.00,384.00,1003.00,4095.00,4095.00,,,,,,,,,,,,0,0,0,,-3936,15200,3592,-95,189,-72
2.26,2.05,-0.28,-3.60,3.42,-3.89,2.20,-0.51,1.16,0.00,0.00,618.00,1167.00,386.00,1454.00,410.00,899.00,4095.00,4095.00,,,,,,,,,,,,0,0,0,,-3984,15120,3876,-69,147,-113
2.322,2.10,-0.06,1.62,-0.87,0.19,0.88,4.07,-5.43,0.00,0.00,709.00,1065.00,385.00,1282.00,539.00,895.00,4095.00,4095.00,,,,,,,,,,,,0,0,0,,-3920,15184,3752,-25,274,-194
2.384,2.16,-0.18,0.78,-2.23,3.47,-5.27,-2.49,0.23,0.00,0.00,775.00,1142.00,506.00,1328.00,447.00,997.00,4095.00,4095.00,,,,,,,,,,,,0,0,0,,-3992,15108,3688,14,214,-214
2.425,2.21,-0.35,-2.77,1.79,-1.65,-0.63,-3.45,3.17,0.00,0.00,665.00,1180.00,432.00,1436.00,388.00,957.00,4095.00,4095.00,,,,,,,,,,,,0,0,0,,-4000,15144,3592,-58,78,-206
2.486,2.27,-0.19,0.05,-0.37,-4.12,3.83,2.84,-2.25,0.00,0.00,710.00,1118.00,355.00,1405.00,464.00,863.00,4095.00,4095.00,,,,,,,,,,,,0,0,0,,-4040,15092,3636,-174,138,-189
2.568,2.32,-0.12,-0.25,0.18,1.30,-1.45,1.09,-2.78,0.00,0.00,693.00,1115.00,428.00,1306.00,493.00,938.00,4095.00,4095.00,,,,,,,,,,,,0,0,0,,-3964,15056,3712,-54,175,-127
2.589,2.38,-0.43,0.56,-1.28,1.60,-4.23,-6.23,5.08,0.00,0.00,739.00,1123.00,495.00,1391.00,368.00,1015.00,4095.00,4095.00,,,,,,,,,,,,0,0,0,,-3972,15184,3728,-75,274,-112
2.651,2.43,-0.32,-3.28,2.10,-5.40,4.31,1.71,-0.93,0.00,0.00,660.00,1194.00,354.00,1459.00,441.00,871.00,4095.00,4095.00,,,,,,,,,,,,0,0,0,,-3832,15152,3684,-227,132,-212
2.714,2.49,-0.13,1.65,-0.59,0.34,-0.51,3.53,-5.25,0.00,0.00,698.00,1056.00,414.00,1323.00,539.00,910.00,4095.00,4095.00,,,,,,,,,,,,0,0,0,,-3948,14980,3684,-86,74,-164
2.776,2.54,-0.30,1.11,-2.20,2.85,-5.24,-3.63,1.25,0.00,0.00,769.00,1126.00,511.00,1360.00,432.00,1015.00,4095.00,4095.00,,,,,,,,,,,,0,0,0,,-4080,15028,3768,-47,251,-115
2.816,2.60,-0.31,-3.51,2.35,-2.94,0.50,-0.47,1.20,0.00,0.00,654.00,1197.00,416.00,1466.00,409.00,897.00,4095.00,4095.00,,,,,,,,,,,,0,0,0,,-3992,15180,3544,-107,208,-177
2.878,2.65,-0.06,1.88,-1.32,-1.96,1.80,4.66,-5.11,0.00,0.00,723.00,1067.00,381.00,1362.00,524.00,867.00,4095.00,4095.00,,,,,,,,,,,,0,0,0,,-3952,15148,3644,-81,83,-162
2.939,2.71,-0.11,0.99,-2.01,3.67,-4.86,-1.00,-0.55,0.00,0.00,763.00,1126.00,493.00,1303.00,454.00,960.00,4095.00,4095.00,,,,,,,,,,,,0,0,0,,-4072,15064,3700,-127,174,-211
2.98,2.76,-0.30,-1.04,0.58,-0.06,-1.96,-3.93,4.31,0.00,0.00,688.00,1138.00,451.00,1397.00,368.00,946.00,4095.00,4095.00,,,,,,,,,,,,0,0,0,,-4008,15052,3540,-136,215,-98
3.063,2.82,-0.14,-0.72,0.47,-5.20,5.21,2.86,-1.19,0.00,0.00,688.00,1127.00,336.00,1413.00,438.00,838.00,4095.00,4095.00,,,,,,,,,,,,0,0,0,,-3940,15152,3616,-76,161,-96
3.104,2.87,-0.01,0.98,-0.23,1.68,-1.58,2.47,-3.69,0.00,0.00,693.00,1074.00,428.00,1291.00,505.00,910.00,4095.00,4095.00,,,,,,,,,,,,0,0,0,,-3968,15056,3540,-79,155,-165
3.165,2.93,-0.30,1.40,-1.88,2.37,-4.53,-5.80,4.44,0.00,0.00,752.00,1104.00,496.00,1360.00,378.00,1015.00,4095.00,4095.00,,,,,,,,,,,,0,0,0,,-3952,15104,3468,-54,119,-160
3.206,2.98,-0.27,-3.97,2.99,-5.09,3.74,0.25,0.42,0.00,0.00,637.00,1198.00,363.00,1463.00,421.00,890.00,4095.00,4095.00,,,,,,,,,,,,0,0,0,,-4004,15120,3520,-131,108,-137
3.309,3.04,-0.09,0.95,-0.64,-1.46,0.73,3.51,-5.38,0.00,0.00,709.00,1087.00,400.00,1374.00,543.00,914.00,4095.00,4095.00,,,,,,,,,,,,0,0,0,,-3992,15080,3640,-202,92,-156
3.329,3.09,-0.28,0.61,-2.43,3.47,-6.16,-4.00,0.70,0.00,0.00,786.00,1156.00,531.00,1360.00,448.00,1045.00,4095.00,4095.00,,,,,,,,,,,,0,0,0,,-3832,15212,3568,-155,113,-118
3.371,3.15,-0.39,-3.66,2.03,-2.49,-0.35,-2.54,1.98,0.00,0.00,667.00,1214.00,432.00,1473.00,407.00,953.00,4095.00,4095.00,,,,,,,,,,,,0,0,0,,-3972,15356,3624,-164,167,-229
3.412,3.20,-0.20,1.19,-1.24,-3.23,2.52,3.54,-3.75,0.00,0.00,729.00,1094.00,375.00,1405.00,497.00,874.00,4095.00,4095.00,,,,,,,,,,,,0,0,0,,-3984,15248,3720,-184,-29,-206
3.473,3.26,-0.14,0.46,-1.57,2.14,-2.94,0.90,-2.30,0.00,0.00,752.00,1136.00,457.00,1315.00,482.00,933.00,4095.00,4095.00,,,,,,,,,,,,0,0,0,,-4104,15120,3852,-111,141,-144
3.535,3.31,-0.35,0.63,-0.72,3.65,-6.94,-4.38,3.97,0.00,0.00,716.00,1103.00,552.00,1379.00,378.00,972.00,4095.00,4095.00,,,,,,,,,,,,0,0,0,,-4028,15112,3732,-63,314,-125
3.597,3.37,-0.18,-2.07,1.61,-5.35,4.71,3.03,-0.95,0.00,0.00,663.00,1153.00,346.00,1440.00,431.00,827.00,4095.00,4095.00,,,,,,,,,,,,0,0,0,,-4020,15192,3540,20,74,-197
3.66,3.42,0.02,1.27,-0.14,0.90,-0.65,3.98,-5.12,0.00,0.00,686.00,1059.00,413.00,1299.00,531.00,891.00,4095.00,4095.00,,,,,,,,,,,,0,0,0,,-4036,15056,3688,-77,91,-176
3.699,3.48,-0.21,1.54,-2.20,3.02,-5.30,-4.56,2.98,0.00,0.00,763.00,1107.00,511.00,1353.00,400.00,1005.00,4095.00,4095.00,,,,,,,,,,,,0,0,0,,-3972,15128,3604,-120,187,-181
3.761,3.53,-0.23,-3.04,2.22,-3.32,1.04,-0.67,0.95,0.00,0.00,653.00,1179.00,407.00,1467.00,416.00,910.00,4095.00,4095.00,,,,,,,,,,,,0,0,0,,-4036,15120,3744,-40,106,-204
3.822,3.59,0.02,1.52,-0.96,-1.53,0.94,4.67,-5.80,0.00,0.00,714.00,1072.00,396.00,1370.00,544.00,883.00,4095.00,4095.00,,,,,,,,,,,,0,0,0,,-3980,15004,3784,-34,155,-154
3.882,3.64,-0.11,0.61,-2.27,3.33,-5.26,-2.58,0.10,0.00,0.00,779.00,1151.00,507.00,1335.00,451.00,1004.00,4095.00,4095.00,,,,,,,,,,,,0,0,0,,-4016,15124,3608,-18,154,-138
3.924,3.70,-0.27,-2.62,1.41,-1.81,-0.79,-3.33,3.27,0.00,0.00,677.00,1185.00,437.00,1451.00,385.00,950.00,4095.00,4095.00,,,,,,,,,,,,0,0,0,,-4084,15076,3552,-20,126,-206
3.965,3.75,-0.13,-0.17,-0.47,-4.36,3.70,2.56,-1.71,0.00,0.00,717.00,1131.00,359.00,1423.00,453.00,860.00,4095.00,4095.00,,,,,,,,,,,,0,0,0,,-4000,15108,3608,-93,107,-132
4.028,3.81,-0.06,-0.74,0.24,0.88,-1.31,1.39,-3.11,0.00,0.00,697.00,1135.00,428.00,1323.00,499.00,935.00,4095.00,4095.00,,,,,,,,,,,,0,0,0,,-4016,15148,3732,-98,115,-130
4.088,3.86,-0.34,0.82,-1.74,1.58,-4.15,-5.77,4.14,0.00,0.00,754.00,1125.00,493.00,1389.00,384.00,1022.00,4095.00,4095.00,,,,,,,,,,,,0,0,0,,-3916,15064,3612,-91,141,-154
4.15,3.92,-0.27,-3.48,1.86,-5.66,3.99,1.08,-0.68,0.00,0.00,671.00,1211.00,362.00,1487.00,440.00,887.00,4095.00,4095.00,,,,,,,,,,,,0,0,0,,-3988,15348,3516,-107,193,-241
4.192,3.97,-0.08,1.42,-0.85,-0.05,-0.47,3.65,-5.80,0.00,0.00,711.00,1073.00,416.00,1342.00,554.00,919.00,4095.00,4095.00,,,,,,,,,,,,0,0,0,,-4140,14964,3684,-228,63,-124
4.254,4.03,-0.28,0.81,-2.33,3.09,-6.03,-4.09,0.98,0.00,0.00,779.00,1144.00,531.00,1376.00,442.00,1041.00,4095.00,4095.00,,,,,,,,,,,,0,0,0,,-4004,15188,3896,-51,153,-157
4.335,4.08,-0.31,-3.69,2.24,-3.05,0.10,-0.90,0.76,0.00,0.00,660.00,1209.00,426.00,1488.00,422.00,923.00,4095.00,4095.00,,,,,,,,,,,,0,0,0,,-3980,15120,3672,-7,249,-158
4.397,4.14,-0.07,1.94,-1.61,-1.86,1.19,4.36,-5.18,0.00,0.00,734.00,1073.00,393.00,1379.00,529.00,879.00,4095.00,4095.00,,,,,,,,,,,,0,0,0,,-3976,15116,3576,7,81,-222
4.417,4.19,-0.11,0.68,-1.79,3.10,-4.70,-0.79,-1.03,0.00,0.00,758.00,1133.00,494.00,1327.00,464.00,964.00,4095.00,4095.00,,,,,,,,,,,,0,0,0,,-3988,15204,3612,9,158,-197
4.478,4.25,-0.29,-0.92,0.41,-0.09,-2.23,-3.76,3.51,0.00,0.00,693.00,1138.00,458.00,1409.00,383.00,960.00,4095.00,4095.00,,,,,,,,,,,,0,0,0,,-4072,14996,3580,-30,230,-172
4.539,4.30,-0.16,-1.07,0.59,-4.65,4.01,2.29,-0.91,0.00,0.00,688.00,1139.00,355.00,1428.00,436.00,851.00,4095.00,4095.00,,,,,,,,,,,,0,0,0,,-4080,15100,3548,-3,160,-113
4.579,4.36,-0.01,0.32,0.15,1.09,-1.16,2.98,-4.68,0.00,0.00,687.00,1091.00,423.00,1307.00,528.00,916.00,4095.00,4095.00,,,,,,,,,,,,0,0,0,,-4064,15068,3424,28,157,-169
4.62,4.41,-0.31,1.16,-1.90,2.47,-5.04,-6.13,4.17,0.00,0.00,756.00,1115.00,509.00,1373.00,386.00,1036.00,4095.00,4095.00,,,,,,,,,,,,0,0,0,,-3868,15048,3596,-10,173,-84
4.683,4.47,-0.29,-4.08,2.94,-5.05,3.23,0.05,0.01,0.00,0.00,640.00,1205.00,373.00,1481.00,432.00,907.00,4095.00,4095.00,,,,,,,,,,,,0,0,0,,-3948,15104,3544,-54,188,-142
4.764,4.52,-0.12,0.74,-0.91,-1.42,0.22,3.26,-5.67,0.00,0.00,722.00,1104.00,411.00,1391.00,554.00,930.00,4095.00,4095.00,,,,,,,,,,,,0,0,0,,-3928,15092,3580,-92,119,-110
4.785,4.58,-0.31,0.46,-2.75,3.38,-6.27,-3.96,0.65,0.00,0.00,802.00,1173.00,535.00,1369.00,449.00,1045.00,4095.00,4095.00,,,,,,,,,,,,0,0,0,,-3872,15044,3536,-31,90,-179
4.846,4.63,-0.44,-3.98,1.87,-2.83,-0.32,-2.90,1.74,0.00,0.00,677.00,1235.00,434.00,1492.00,415.00,973.00,4095.00,4095.00,,,,,,,,,,,,0,0,0,,-3900,15156,3604,-15,120,-310
4.908,4.69,-0.27,0.33,-1.37,-3.65,2.36,2.97,-3.93,0.00,0.00,746.00,1136.00,381.00,1434.00,507.00,898.00,4095.00,4095.00,,,,,,,,,,,,0,0,0,,-4056,15196,3472,-17,102,-333
4.99,4.74,-0.21,-0.04,-1.35,1.78,-3.06,0.84,-2.92,0.00,0.00,750.00,1152.00,463.00,1338.00,499.00,951.00,4095.00,4095.00,,,,,,,,,,,,0,0,0,,-4180,15048,3496,-126,33,-142
5.011,4.80,-0.46,0.34,-1.05,0.78,-3.43,-5.10,3.82,0.00,0.00,733.00,1126.00,481.00,1406.00,386.00,1004.00,4095.00,4095.00,,,,,,,,,,,,0,0,0,,-3952,15164,3644,-25,209,-37
5.073,4.85,-0.35,-2.35,1.32,-6.05,4.53,1.67,-0.83,0.00,0.00,677.00,1175.00,354.00,1488.00,439.00,870.00,4095.00,4095.00,,,,,,,,,,,,0,0,0,,-4052,15148,3516,-82,210,-168
5.133,4.91,-0.16,1.00,-0.26,0.61,-0.91,3.47,-5.36,0.00,0.00,694.00,1074.00,421.00,1323.00,543.00,915.00,4095.00,4095.00,,,,,,,,,,,,0,0,0,,-3964,15048,3588,-76,-7,-141
5.196,4.96,-0.39,1.40,-2.65,2.97,-5.89,-4.86,2.76,0.00,0.00,784.00,1127.00,528.00,1377.00,407.00,1023.00,4095.00,4095.00,,,,,,,,,,,,0,0,0,,-3888,15268,3504,-41,89,-179
5.258,5.02,-0.41,-3.20,1.80,-3.50,0.69,-0.78,0.42,0.00,0.00,670.00,1200.00,416.00,1491.00,429.00,927.00,4095.00,4095.00,,,,,,,,,,,,0,0,0,,-3984,15124,3632,3,169,-217
5.279,5.07,-0.19,1.53,-1.53,-1.76,0.69,4.06,-5.67,0.00,0.00,736.00,1088.00,403.00,1392.00,546.00,901.00,4095.00,4095.00,,,,,,,,,,,,0,0,0,,-3972,14964,3360,80,10,-235
5.342,5.13,-0.31,0.20,-2.25,3.25,-5.91,-2.57,-0.39,0.00,0.00,784.00,1169.00,526.00,1363.00,463.00,1017.00,4095.00,4095.00,,,,,,,,,,,,0,0,0,,-4096,15084,3600,-28,80,-178
5.404,5.18,-0.54,-2.77,1.17,-1.81,-1.37,-4.87,3.36,0.00,0.00,688.00,1200.00,451.00,1474.00,394.00,1007.00,4095.00,4095.00,,,,,,,,,,,,0,0,0,,-4096,15104,3460,-53,200,-153
5.487,5.24,-0.41,-0.51,-0.49,-4.55,3.41,1.98,-1.76,0.00,0.00,722.00,1147.00,366.00,1445.00,459.00,881.00,4095.00,4095.00,,,,,,,,,,,,0,0,0,,-4000,15108,3284,-89,100,-152
5.507,5.29,-0.33,-0.84,0.09,0.65,-1.53,1.22,-3.92,0.00,0.00,704.00,1144.00,435.00,1343.00,523.00,962.00,4095.00,4095.00,,,,,,,,,,,,0,0,0,,-4004,15164,3564,-27,93,-184
5.57,5.35,-0.61,0.50,-1.65,1.23,-4.40,-6.03,3.52,0.00,0.00,755.00,1137.00,503.00,1418.00,399.00,1050.00,4095.00,4095.00,,,,,,,,,,,,0,0,0,,-4144,15012,3444,18,187,-105
5.632,5.40,-0.56,-3.79,1.83,-5.64,3.52,0.39,-0.78,0.00,0.00,676.00,1227.00,371.00,1504.00,448.00,914.00,4095.00,4095.00,,,,,,,,,,,,0,0,0,,-4048,15096,3340,11,212,-135
5.694,5.46,-0.39,0.86,-1.03,0.02,-1.15,2.83,-5.79,0.00,0.00,725.00,1102.00,431.00,1363.00,562.00,949.00,4095.00,4095.00,,,,,,,,,,,,0,0,0,,-4048,15156,3388,-120,26,-207
5.756,5.51,-0.61,0.52,-2.68,2.67,-6.03,-4.62,0.66,0.00,0.00,798.00,1168.00,535.00,1399.00,454.00,1072.00,4095.00,4095.00,,,,,,,,,,,,0,0,0,,-4068,15112,3440,-17,68,-147
5.777,5.57,-0.67,-4.02,1.94,-3.42,0.01,-1.81,0.63,0.00,0.00,675.00,1235.00,431.00,1514.00,432.00,960.00,4095.00,4095.00,,,,,,,,,,,,0,0,0,,-3932,15064,3520,-50,202,-156
5.879,5.62,-0.46,1.27,-1.69,-2.28,1.01,3.36,-5.12,0.00,0.00,746.00,1104.00,400.00,1409.00,537.00,913.00,4095.00,4095.00,,,,,,,,,,,,0,0,0,,-4124,15160,3412,-83,189,-175
5.899,5.68,-0.52,0.16,-2.00,2.69,-4.90,-1.54,-1.33,0.00,0.00,774.00,1163.00,503.00,1356.00,478.00,1001.00,4095.00,4095.00,,,,,,,,,,,,0,0,0,,-3980,15292,3464,-84,129,-62
5.941,5.73,-0.72,-1.33,0.18,-0.01,-2.81,-4.55,3.49,0.00,0.00,707.00,1164.00,472.00,1427.00,389.00,991.00,4095.00,4095.00,,,,,,,,,,,,0,0,0,,-3896,15184,3380,-136,193,-208
6.003,5.79,-0.59,-1.35,0.13,-5.22,3.84,1.84,-1.67,0.00,0.00,709.00,1166.00,362.00,1467.00,458.00,884.00,4095.00,4095.00,,,,,,,,,,,,0,0,0,,-4012,15132,3312,-28,92,-167
6.064,5.84,-0.48,-0.18,0.10,0.61,-1.39,1.71,-4.36,0.00,0.00,695.00,1114.00,432.00,1340.00,531.00,955.00,4095.00,4095.00,,,,,,,,,,,,0,0,0,,-3968,15212,3416,-14,198,-137
6.125,5.90,-0.77,0.66,-2.19,2.18,-5.51,-6.42,3.56,0.00,0.00,775.00,1146.00,525.00,1407.00,401.00,1065.00,4095.00,4095.00,,,,,,,,,,,,0,0,0,,-4100,15136,3288,-121,229,-122
6.166,5.95,-0.75,-5.40,2.93,-5.30,2.77,-0.32,-0.54,0.00,0.00,656.00,1270.00,384.00,1514.00,448.00,934.00,4095.00,4095.00,,,,,,,,,,,,0,0,0,,-4076,15140,3336,-88,128,-137
6.268,6.01,-0.57,0.29,-0.88,-1.75,0.06,2.83,-5.79,0.00,0.00,727.00,1123.00,417.00,1415.00,562.00,949.00,4095.00,4095.00,,,,,,,,,,,,0,0,0,,-4016,15048,3444,-122,91,-138
6.289,6.06,-0.77,-0.69,-2.37,3.29,-6.91,-4.60,0.25,0.00,0.00,802.00,1215.00,555.00,1398.00,464.00,1083.00,4095.00,4095.00,,,,,,,,,,,,0,0,0,,-4040,15136,3532,-131,177,-110
6.329,6.12,-0.88,-3.98,1.54,-3.17,-0.54,-2.97,0.90,0.00,0.00,689.00,1246.00,442.00,1521.00,435.00,998.00,4095.00,4095.00,,,,,,,,,,,,0,0,0,,-3892,15264,3432,-92,206,-72
6.393,6.17,-0.71,-0.14,-1.36,-3.60,1.73,2.53,-4.74,0.00,0.00,752.00,1157.00,394.00,1456.00,534.00,934.00,4095.00,4095.00,,,,,,,,,,,,0,0,0,,-3924,15328,3240,-111,215,-178
6.453,6.23,-0.68,-0.77,-1.32,1.28,-2.93,-0.16,-2.91,0.00,0.00,759.00,1185.00,464.00,1360.00,508.00,989.00,4095.00,4095.00,,,,,,,,,,,,0,0,0,,-4092,15116,3520,-162,-9,-223
6.494,6.28,-0.94,0.55,-2.25,0.56,-3.73,-5.88,3.47,0.00,0.00,779.00,1153.00,491.00,1430.00,399.00,1045.00,4095.00,4095.00,,,,,,,,,,,,0,0,0,,-4176,15096,3720,-39,79,-105
6.598,6.34,-0.89,-2.83,1.16,-5.88,3.91,0.19,-0.04,0.00,0.00,689.00,1203.00,365.00,1503.00,432.00,903.00,4095.00,4095.00,,,,,,,,,,,,0,0,0,,-4048,15088,3420,-98,337,-57
6.618,6.39,-0.71,0.40,-0.40,0.09,-0.96,2.57,-5.63,0.00,0.00,707.00,1104.00,426.00,1352.00,560.00,955.00,4095.00,4095.00,,,,,,,,,,,,0,0,0,,-4052,15244,3196,-107,139,-136
6.66,6.45,-0.95,0.87,-2.82,2.40,-5.91,-5.50,2.01,0.00,0.00,799.00,1156.00,534.00,1409.00,429.00,1071.00,4095.00,4095.00,,,,,,,,,,,,0,0,0,,-3928,15220,3456,-89,50,-139
6.723,6.50,-0.99,-3.67,1.93,-3.75,0.29,-1.58,0.26,0.00,0.00,671.00,1218.00,427.00,1522.00,439.00,961.00,4095.00,4095.00,,,,,,,,,,,,0,0,0,,-4020,15100,3432,-143,145,-205
6.785,6.56,-0.78,1.13,-1.72,-1.64,-0.16,3.10,-5.91,0.00,0.00,749.00,1111.00,421.00,1417.00,563.00,942.00,4095.00,4095.00,,,,,,,,,,,,0,0,0,,-3972,15200,3384,-118,129,-125
6.826,6.61,-0.91,-0.11,-2.42,2.89,-5.93,-3.46,-0.48,0.00,0.00,796.00,1189.00,530.00,1383.00,473.00,1056.00,4095.00,4095.00,,,,,,,,,,,,0,0,0,,-4032,15072,3440,-57,130,-165
6.909,6.67,-1.06,-3.33,1.19,-1.80,-1.74,-3.80,2.09,0.00,0.00,694.00,1226.00,460.00,1488.00,414.00,999.00,4095.00,4095.00,,,,,,,,,,,,0,0,0,,-3928,15156,3336,-107,131,-169
6.97,6.72,-0.94,-0.99,-0.43,-4.42,2.92,1.32,-2.44,0.00,0.00,726.00,1167.00,375.00,1457.00,482.00,921.00,4095.00,4095.00,,,,,,,,,,,,0,0,0,,-4032,15096,3276,-126,67,-214
6.99,6.78,-0.84,-1.29,-0.02,0.57,-1.88,1.14,-4.41,0.00,0.00,714.00,1168.00,444.00,1360.00,538.00,978.00,4095.00,4095.00,,,,,,,,,,,,0,0,0,,-4056,15308,3512,-173,112,-96
7.071,6.83,-1.12,0.07,-1.70,1.23,-4.70,-6.43,3.33,0.00,0.00,763.00,1158.00,511.00,1429.00,406.00,1072.00,4095.00,4095.00,,,,,,,,,,,,0,0,0,,-3924,15196,3444,-84,196,-150
7.092,6.89,-1.05,-4.07,1.74,-5.94,3.53,0.14,-1.34,0.00,0.00,683.00,1244.00,373.00,1522.00,464.00,937.00,4095.00,4095.00,,,,,,,,,,,,0,0,0,,-4012,15228,3360,-85,142,-160
7.153,6.94,-0.89,0.23,-0.76,-0.67,-1.00,2.22,-5.97,0.00,0.00,723.00,1122.00,433.00,1395.00,574.00,977.00,4095.00,4095.00,,,,,,,,,,,,0,0,0,,-4056,15232,3508,-113,253,-238
7.215,7.00,-1.09,-0.18,-2.38,2.70,-6.58,-5.00,0.47,0.00,0.00,795.00,1191.00,551.00,1418.00,462.00,1094.00,4095.00,4095.00,,,,,,,,,,,,0,0,0,,-4004,15064,3512,-91,30,-150
7.278,7.05,-1.16,-4.33,1.85,-3.50,-0.39,-2.31,0.38,0.00,0.00,682.00,1253.00,441.00,1535.00,442.00,986.00,4095.00,4095.00,,,,,,,,,,,,0,0,0,,-4044,15120,3768,-30,166,-70
7.339,7.11,-0.94,0.87,-1.88,-2.52,0.63,3.16,-5.40,0.00,0.00,759.00,1127.00,410.00,1437.00,547.00,927.00,4095.00,4095.00,,,,,,,,,,,,0,0,0,,-4064,15240,3348,-61,306,-144
7.402,7.16,-0.97,0.48,-2.34,2.69,-5.01,-1.50,-1.68,0.00,0.00,784.00,1159.00,506.00,1360.00,487.00,1009.00,4095.00,4095.00,,,,,,,,,,,,0,0,0,,-3824,15072,3276,-93,-11,-151
7.443,7.22,-1.16,-1.31,0.01,-0.25,-2.85,-4.91,3.42,0.00,0.00,713.00,1168.00,475.00,1442.00,393.00,1007.00,4095.00,4095.00,,,,,,,,,,,,0,0,0,,-3984,15236,3508,-86,79,-155
7.505,7.27,-1.02,-1.66,0.36,-5.02,3.42,1.64,-1.85,0.00,0.00,704.00,1173.00,369.00,1472.00,464.00,895.00,4095.00,4095.00,,,,,,,,,,,,0,0,0,,-4012,15156,3532,-94,227,-105
7.546,7.33,-0.88,-0.06,-0.07,0.55,-1.41,1.90,-4.84,0.00,0.00,700.00,1114.00,433.00,1344.00,543.00,960.00,4095.00,4095.00,,,,,,,,,,,,0,0,0,,-4032,15204,3400,-17,110,-140
7.608,7.38,-1.16,0.61,-2.08,2.45,-5.71,-6.50,3.54,0.00,0.00,771.00,1145.00,528.00,1399.00,402.00,1069.00,4095.00,4095.00,,,,,,,,,,,,0,0,0,,-3960,15156,3508,-49,106,-156
7.65,7.44,-1.14,-4.56,2.81,-5.42,2.87,-0.78,-0.26,0.00,0.00,650.00,1232.00,383.00,1518.00,445.00,944.00,4095.00,4095.00,,,,,,,,,,,,0,0,0,,-3968,15220,3424,-62,112,-177
7.712,7.49,-0.94,0.27,-0.95,-1.62,-0.07,2.75,-6.02,0.00,0.00,730.00,1126.00,419.00,1413.00,570.00,958.00,4095.00,4095.00,,,,,,,,,,,,0,0,0,,-4104,15140,3284,-86,73,-221
7.754,7.55,-1.13,-0.10,-2.50,3.28,-6.88,-4.56,0.20,0.00,0.00,799.00,1191.00,554.00,1397.00,465.00,1083.00,4095.00,4095.00,,,,,,,,,,,,0,0,0,,-3984,15116,3476,-138,59,-187
7.817,7.60,-1.23,-4.33,1.85,-3.03,-0.79,-3.23,1.03,0.00,0.00,682.00,1253.00,447.00,1523.00,434.00,1005.00,4095.00,4095.00,,,,,,,,,,,,0,0,0,,-4056,15040,3536,-96,172,-87
7.878,7.66,-1.05,-0.19,-1.35,-3.63,1.88,2.40,-4.59,0.00,0.00,752.00,1159.00,391.00,1452.00,531.00,935.00,4095.00,4095.00,,,,,,,,,,,,0,0,0,,-3988,15180,3576,-41,300,-52
7.939,7.71,-1.01,-0.67,-1.50,1.49,-3.59,-0.19,-3.01,0.00,0.00,765.00,1186.00,479.00,1373.00,511.00,993.00,4095.00,4095.00,,,,,,,,,,,,0,0,0,,-3952,15144,3248,-72,97,-272
8.002,7.77,-1.24,-0.39,-0.86,0.86,-4.02,-5.68,3.36,0.00,0.00,735.00,1153.00,496.00,1424.00,400.00,1040.00,4095.00,4095.00,,,,,,,,,,,,0,0,0,,-3980,15120,3496,-102,16,-103
8.084,7.82,-1.11,-2.78,1.09,-5.55,3.65,1.36,-1.55,0.00,0.00,691.00,1203.00,368.00,1494.00,459.00,898.00,4095.00,4095.00,,,,,,,,,,,,0,0,0,,-4004,15148,3644,-75,291,-79
8.106,7.88,-0.91,0.62,-0.43,0.51,-1.36,2.92,-5.72,0.00,0.00,705.00,1095.00,432.00,1344.00,559.00,944.00,4095.00,4095.00,,,,,,,,,,,,0,0,0,,-3916,15256,3324,33,195,-193
8.145,7.93,-1.13,1.13,-2.66,2.83,-6.08,-5.39,2.40,0.00,0.00,788.00,1139.00,535.00,1392.00,419.00,1055.00,4095.00,4095.00,,,,,,,,,,,,0,0,0,,-4008,15140,3304,79,-41,-146
8.207,7.99,-1.14,-3.73,1.89,-3.48,0.46,-1.19,0.38,0.00,0.00,673.00,1222.00,421.00,1499.00,433.00,943.00,4095.00,4095.00,,,,,,,,,,,,0,0,0,,-3968,15148,3512,-31,112,-267
8.248,8.04,-0.89,0.98,-1.27,-1.56,0.13,3.77,-6.13,0.00,0.00,733.00,1104.00,414.00,1402.00,563.00,923.00,4095.00,4095.00,,,,,,,,,,,,0,0,0,,-4036,15240,3380,4,198,-110
8.31,8.10,-1.01,-0.12,-2.28,3.46,-6.23,-3.34,-0.05,0.00,0.00,790.00,1185.00,533.00,1363.00,461.00,1039.00,4095.00,4095.00,,,,,,,,,,,,0,0,0,,-3936,15172,3244,32,115,-164
8.392,8.15,-1.15,-3.18,1.28,-2.01,-1.18,-3.66,2.63,0.00,0.00,689.00,1216.00,448.00,1478.00,401.00,979.00,4095.00,4095.00,,,,,,,,,,,,0,0,0,,-4008,15088,3324,-1,84,-169
8.453,8.21,-0.98,-0.68,-0.41,-3.52,2.52,2.23,-2.20,0.00,0.00,721.00,1152.00,377.00,1421.00,468.00,883.00,4095.00,4095.00,,,,,,,,,,,,0,0,0,,-4036,15224,3404,-40,110,-203
8.475,8.26,-0.87,-0.96,-0.05,0.85,-1.68,1.12,-3.45,0.00,0.00,711.00,1154.00,437.00,1338.00,511.00,954.00,4095.00,4095.00,,,,,,,,,,,,0,0,0,,-3968,15216,3188,-161,67,-219
8.536,8.32,-1.13,0.52,-1.88,1.28,-4.35,-5.99,3.46,0.00,0.00,764.00,1143.00,501.00,1413.00,400.00,1050.00,4095.00,4095.00,,,,,,,,,,,,0,0,0,,-4012,15080,3436,-201,50,-169
8.597,8.37,-1.03,-3.77,1.72,-5.88,3.76,0.85,-1.34,0.00,0.00,680.00,1230.00,368.00,1509.00,458.00,911.00,4095.00,4095.00,,,,,,,,,,,,0,0,0,,-4000,15232,3448,-71,162,-127
8.639,8.43,-0.84,0.66,-0.83,-0.36,-0.80,2.73,-5.98,0.00,0.00,720.00,1105.00,426.00,1371.00,569.00,958.00,4095.00,4095.00,,,,,,,,,,,,0,0,0,,-3976,15396,3276,-31,199,-103
8.699,8.48,-1.03,-0.16,-2.38,3.44,-6.53,-4.69,0.77,0.00,0.00,795.00,1190.00,542.00,1375.00,452.00,1072.00,4095.00,4095.00,,,,,,,,,,,,0,0,0,,-4148,15172,3344,-180,-43,-229
8.761,8.54,-1.07,-3.94,1.72,-3.38,-0.17,-1.73,0.52,0.00,0.00,682.00,1238.00,435.00,1519.00,434.00,960.00,4095.00,4095.00,,,,,,,,,,,,0,0,0,,-3956,15084,3512,-38,31,-115
8.842,8.59,-0.83,1.40,-1.88,-2.33,0.98,3.67,-5.50,0.00,0.00,752.00,1104.00,401.00,1413.00,545.00,911.00,4095.00,4095.00,,,,,,,,,,,,0,0,0,,-4080,15192,3356,-147,212,-207
8.863,8.65,-0.88,0.49,-2.32,2.96,-4.99,-1.85,-0.75,0.00,0.00,783.00,1158.00,503.00,1345.00,466.00,998.00,4095.00,4095.00,,,,,,,,,,,,0,0,0,,-4052,15272,3304,-150,20,-253
8.925,8.70,-1.05,-1.68,0.40,-0.52,-2.25,-4.20,3.47,0.00,0.00,703.00,1173.00,462.00,1434.00,387.00,978.00,4095.00,4095.00,,,,,,,,,,,,0,0,0,,-4040,15124,3440,-6,-5,-211
8.965,8.76,-0.88,-1.27,0.18,-4.86,3.72,2.34,-1.60,0.00,0.00,706.00,1161.00,362.00,1451.00,452.00,865.00,4095.00,4095.00,,,,,,,,,,,,0,0,0,,-4084,15132,3328,-107,178,-192
9.027,8.81,-0.71,-0.18,0.21,1.08,-1.55,2.52,-4.53,0.00,0.00,691.00,1111.00,432.00,1321.00,528.00,929.00,4095.00,4095.00,,,,,,,,,,,,0,0,0,,-3968,15084,3300,53,137,-212
9.09,8.87,-0.97,0.78,-2.04,2.14,-4.93,-5.92,3.72,0.00,0.00,767.00,1136.00,509.00,1387.00,394.00,1040.00,4095.00,4095.00,,,,,,,,,,,,0,0,0,,-4112,15212,3404,16,96,-97
9.213,8.92,-0.88,-4.08,2.60,-4.32,1.83,0.82,-0.92,0.00,0.00,652.00,1216.00,397.00,1494.00,448.00,902.00,4095.00,4095.00,,,,,,,,,,,,0,0,0,,-4140,15092,3288,-91,204,-113
9.234,8.98,-0.66,0.55,-0.79,-1.55,0.35,3.60,-5.88,0.00,0.00,720.00,1109.00,409.00,1393.00,557.00,923.00,4095.00,4095.00,,,,,,,,,,,,0,0,0,,-4024,15148,3380,-69,184,-148
9.275,9.03,-0.85,0.14,-2.44,3.44,-6.63,-4.57,0.77,0.00,0.00,793.00,1178.00,545.00,1379.00,451.00,1067.00,4095.00,4095.00,,,,,,,,,,,,0,0,0,,-4108,15144,3336,-2,47,-239
9.315,9.09,-0.91,-4.23,2.06,-2.97,-0.31,-2.05,0.76,0.00,0.00,673.00,1241.00,435.00,1500.00,431.00,966.00,4095.00,4095.00,,,,,,,,,,,,0,0,0,,-4136,15112,3372,-45,214,-119
9.378,9.14,-0.70,0.36,-1.58,-3.16,1.72,3.24,-4.73,0.00,0.00,754.00,1141.00,391.00,1431.00,527.00,908.00,4095.00,4095.00,,,,,,,,,,,,0,0,0,,-3944,15324,3164,-93,261,-142
9.46,9.20,-0.66,-0.54,-1.78,2.32,-4.10,0.28,-2.88,0.00,0.00,775.00,1189.00,485.00,1347.00,503.00,971.00,4095.00,4095.00,,,,,,,,,,,,0,0,0,,-4024,15448,3096,-114,167,-245
9.481,9.25,-0.87,-0.30,-0.86,0.87,-3.61,-4.94,3.43,0.00,0.00,734.00,1149.00,485.00,1408.00,393.00,1008.00,4095.00,4095.00,,,,,,,,,,,,0,0,0,,-4028,15132,3372,-76,6,-261
9.543,9.31,-0.73,-2.60,1.00,-5.22,3.69,1.96,-1.47,0.00,0.00,692.00,1197.00,365.00,1473.00,452.00,875.00,4095.00,4095.00,,,,,,,,,,,,0,0,0,,-4076,15240,3316,-55,220,-92
9.606,9.36,-0.54,0.58,-0.34,0.68,-1.15,2.99,-5.07,0.00,0.00,702.00,1094.00,426.00,1328.00,539.00,925.00,4095.00,4095.00,,,,,,,,,,,,0,0,0,,-4076,15216,3272,-139,252,-193
9.668,9.42,-0.76,1.59,-2.76,3.00,-5.90,-4.86,2.76,0.00,0.00,786.00,1122.00,528.00,1376.00,407.00,1023.00,4095.00,4095.00,,,,,,,,,,,,0,0,0,,-4204,14940,3312,-142,0,-62
9.69,9.47,-0.74,-3.66,2.34,-4.05,1.51,-0.31,0.13,0.00,0.00,656.00,1204.00,402.00,1491.00,432.00,917.00,4095.00,4095.00,,,,,,,,,,,,0,0,0,,-4132,15144,3532,-189,138,-91
9.749,9.53,-0.48,1.22,-1.45,-1.34,0.23,4.29,-6.41,0.00,0.00,737.00,1099.00,410.00,1386.00,566.00,911.00,4095.00,4095.00,,,,,,,,,,,,0,0,0,,-4020,15216,3288,-69,268,-69
9.811,9.58,-0.60,0.27,-2.41,3.56,-6.26,-2.82,0.02,0.00,0.00,790.00,1171.00,533.00,1359.00,455.00,1016.00,4095.00,4095.00,,,,,,,,,,,,0,0,0,,-4184,15172,3220,-24,128,-175
9.913,9.64,-0.71,-3.20,1.34,-2.07,-0.91,-2.87,2.32,0.00,0.00,687.00,1215.00,442.00,1471.00,402.00,957.00,4095.00,4095.00,,,,,,,,,,,,0,0,0,,-4068,15160,3368,28,139,-167
9.933,9.69,-0.53,0.04,-1.10,-3.87,2.93,3.04,-3.32,0.00,0.00,739.00,1141.00,371.00,1425.00,490.00,881.00,4095.00,4095.00,,,,,,,,,,,,0,0,0,,-4076,15020,3220,-70,165,-235
9.975,9.75,-0.44,-0.47,-0.19,0.95,-1.50,1.23,-3.35,0.00,0.00,710.00,1136.00,432.00,1326.00,507.00,947.00,4095.00,4095.00,,,,,,,,,,,,0,0,0,,-4024,15148,3272,-159,88,-175
10.037,9.80,-0.72,0.48,-1.60,1.56,-4.44,-5.97,4.11,0.00,0.00,753.00,1136.00,501.00,1401.00,386.00,1031.00,4095.00,4095.00,,,,,,,,,,,,0,0,0,,-4028,15172,3420,-166,54,-81
10.098,9.86,-0.62,-3.38,1.50,-5.53,3.64,1.22,-1.30,0.00,0.00,683.00,1218.00,368.00,1493.00,454.00,897.00,4095.00,4095.00,,,,,,,,,,,,0,0,0,,-4088,15140,3416,-81,181,-28
10.12,9.91,-0.46,0.89,-0.83,0.04,-0.94,2.54,-5.15,0.00,0.00,717.00,1095.00,426.00,1354.00,546.00,944.00,4095.00,4095.00,,,,,,,,,,,,0,0,0,,-3928,15168,3284,-69,294,-43
10.181,9.97,-0.66,0.13,-2.46,2.80,-6.04,-4.37,0.54,0.00,0.00,794.00,1179.00,534.00,1392.00,455.00,1065.00,4095.00,4095.00,,,,,,,,,,,,0,0,0,,-4028,15168,3272,-174,117,-219
10.285,10.02,-0.69,-4.03,1.83,-3.53,0.26,-1.33,0.47,0.00,0.00,679.00,1239.00,426.00,1510.00,432.00,946.00,4095.00,4095.00,,,,,,,,,,,,0,0,0,,-4016,15028,3352,-75,-16,-157
10.306,10.08,-0.45,1.46,-1.90,-1.81,0.57,4.18,-5.87,0.00,0.00,752.00,1102.00,406.00,1399.00,551.00,902.00,4095.00,4095.00,,,,,,,,,,,,0,0,0,,-4016,15052,3416,-93,187,-134
10.347,10.13,-0.50,0.31,-2.29,3.31,-5.40,-1.58,-1.04,0.00,0.00,784.00,1165.00,511.00,1341.00,471.00,995.00,4095.00,4095.00,,,,,,,,,,,,0,0,0,,-4088,15280,3304,-80,218,-148
10.408,10.19,-0.65,-1.92,0.69,-0.36,-2.22,-3.49,3.23,0.00,0.00,695.00,1175.00,460.00,1424.00,387.00,957.00,4095.00,4095.00,,,,,,,,,,,,0,0,0,,-3984,15168,3284,-53,68,-70
10.448,10.24,-0.50,-0.76,0.04,-4.36,3.40,2.38,-1.49,0.00,0.00,705.00,1142.00,365.00,1435.00,449.00,861.00,4095.00,4095.00,,,,,,,,,,,,0,0,0,,-3988,15216,3448,-126,94,-267
10.509,10.30,-0.34,0.03,0.14,1.11,-1.26,2.74,-4.53,0.00,0.00,691.00,1104.00,425.00,1309.00,526.00,921.00,4095.00,4095.00,,,,,,,,,,,,0,0,0,,-4096,15168,3408,-81,158,-142
10.572,10.35,-0.59,1.34,-2.13,2.21,-4.74,-5.38,3.87,0.00,0.00,763.00,1114.00,503.00,1376.00,387.00,1014.00,4095.00,4095.00,,,,,,,,,,,,0,0,0,,-4000,15244,3360,-94,197,-85
10.655,10.41,-0.49,-3.84,2.51,-5.46,3.67,1.34,-0.85,0.00,0.00,652.00,1207.00,367.00,1488.00,442.00,882.00,4095.00,4095.00,,,,,,,,,,,,0,0,0,,-4032,15160,3372,-35,119,-159
10.697,10.46,-0.45,1.16,-0.94,-0.74,-0.06,0.50,-1.10,0.00,0.00,718.00,1087.00,412.00,1364.00,455.00,918.00,4095.00,4095.00,,,,,,,,,,,,0,0,0,,-4080,15280,3176,-74,92,-185
10.739,10.52,-0.63,0.69,-2.48,3.42,-6.39,-4.06,0.43,0.00,0.00,787.00,1154.00,538.00,1371.00,455.00,1055.00,4095.00,4095.00,,,,,,,,,,,,0,0,0,,-3992,15240,3252,-162,108,-139
10.8,10.57,-0.68,-4.03,1.91,-3.06,-0.15,-1.67,0.59,0.00,0.00,676.00,1236.00,432.00,1499.00,432.00,956.00,4095.00,4095.00,,,,,,,,,,,,0,0,0,,-4040,15304,3348,-144,120,-151
10.861,10.63,-0.46,0.65,-1.68,-2.74,1.63,3.61,-5.03,0.00,0.00,754.00,1131.00,390.00,1411.00,532.00,902.00,4095.00,4095.00,,,,,,,,,,,,0,0,0,,-3972,15212,3380,-112,111,-81
10.903,10.68,-0.45,-0.31,-2.01,2.79,-4.64,-0.24,-2.41,0.00,0.00,781.00,1185.00,495.00,1341.00,495.00,979.00,4095.00,4095.00,,,,,,,,,,,,0,0,0,,-4116,15236,3436,-110,205,-114
11.026,10.74,-0.66,-0.19,-0.90,0.65,-3.15,-4.57,3.03,0.00,0.00,734.00,1145.00,475.00,1403.00,399.00,1004.00,4095.00,4095.00,,,,,,,,,,,,0,0,0,,-4072,15272,3180,-234,15,-223
11.046,10.79,-0.50,-2.16,0.69,-5.52,4.51,2.44,-1.83,0.00,0.00,698.00,1186.00,351.00,1458.00,457.00,867.00,4095.00,4095.00,,,,,,,,,,,,0,0,0,,-3980,15148,3560,-108,43,-109
11.087,10.85,-0.31,0.63,-0.38,0.80,-1.02,3.33,-5.32,0.00,0.00,703.00,1093.00,422.00,1317.00,543.00,919.00,4095.00,4095.00,,,,,,,,,,,,0,0,0,,-4012,15268,3568,-68,297,-121
11.127,10.90,-0.55,1.45,-2.45,2.97,-5.89,-5.12,3.26,0.00,0.00,775.00,1119.00,528.00,1377.00,398.00,1020.00,4095.00,4095.00,,,,,,,,,,,,0,0,0,,-3996,15220,3280,4,177,-104
11.189,10.96,-0.53,-3.97,2.90,-4.03,1.78,-0.02,-0.10,0.00,0.00,640.00,1201.00,396.00,1479.00,435.00,912.00,4095.00,4095.00,,,,,,,,,,,,0,0,0,,-4028,15132,3312,21,105,-167
11.25,11.01,-0.27,1.24,-1.10,-1.27,0.66,4.67,-6.27,0.00,0.00,723.00,1088.00,400.00,1366.00,558.00,894.00,4095.00,4095.00,,,,,,,,,,,,0,0,0,,-4040,15096,3180,-98,148,-255
11.291,11.07,-0.40,0.75,-2.57,3.92,-6.38,-2.99,0.11,0.00,0.00,790.00,1154.00,533.00,1344.00,454.00,1020.00,4095.00,4095.00,,,,,,,,,,,,0,0,0,,-4092,15196,3348,-112,133,-171
11.412,11.12,-0.51,-2.86,1.57,-1.81,-0.91,-2.63,2.24,0.00,0.00,674.00,1191.00,440.00,1456.00,402.00,950.00,4095.00,4095.00,,,,,,,,,,,,0,0,0,,-4092,15248,3228,-90,119,-150
11.433,11.18,-0.32,0.53,-0.96,-4.42,3.21,3.33,-3.50,0.00,0.00,727.00,1115.00,369.00,1445.00,492.00,875.00,4095.00,4095.00,,,,,,,,,,,,0,0,0,,-4080,15296,3384,-4,136,-161
11.454,11.23,-0.25,-0.39,-0.14,1.54,-2.00,1.18,-3.03,0.00,0.00,707.00,1131.00,439.00,1313.00,499.00,941.00,4095.00,4095.00,,,,,,,,,,,,0,0,0,,-4052,15144,3356,-23,115,-180
11.495,11.29,-0.49,0.54,-1.32,1.49,-3.97,-5.14,3.69,0.00,0.00,741.00,1125.00,489.00,1387.00,389.00,1009.00,4095.00,4095.00,,,,,,,,,,,,0,0,0,,-4008,15104,3136,-210,133,-110
11.557,11.34,-0.39,-2.96,1.66,-5.47,4.07,1.52,-1.16,0.00,0.00,672.00,1193.00,359.00,1472.00,448.00,883.00,4095.00,4095.00,,,,,,,,,,,,0,0,0,,-4072,15208,3380,-190,105,-138
11.619,11.40,-0.22,0.85,-0.53,0.26,-0.71,3.04,-5.89,0.00,0.00,706.00,1088.00,419.00,1334.00,563.00,944.00,4095.00,4095.00,,,,,,,,,,,,0,0,0,,-4032,15300,3292,-60,60,-119
11.679,11.45,-0.46,0.68,-2.57,3.04,-6.36,-4.95,1.23,0.00,0.00,791.00,1157.00,541.00,1391.00,443.00,1070.00,4095.00,4095.00,,,,,,,,,,,,0,0,0,,-4036,15340,3316,-48,179,-149
11.781,11.51,-0.49,-3.71,1.56,-3.17,-0.12,-1.18,0.34,0.00,0.00,685.00,1232.00,432.00,1504.00,434.00,944.00,4095.00,4095.00,,,,,,,,,,,,0,0,0,,-4076,15160,3216,-124,48,-214
11.802,11.56,-0.27,1.42,-1.74,-1.97,0.95,4.01,-6.08,0.00,0.00,746.00,1099.00,399.00,1394.00,559.00,913.00,4095.00,4095.00,,,,,,,,,,,,0,0,0,,-4084,15124,3536,-46,98,-82
11.842,11.62,-0.36,0.28,-2.30,3.55,-5.98,-2.18,-0.64,0.00,0.00,785.00,1167.00,525.00,1349.00,466.00,1008.00,4095.00,4095.00,,,,,,,,,,,,0,0,0,,-4000,15280,3440,-100,319,-78
11.904,11.67,-0.52,-1.77,0.69,-1.03,-1.47,-3.59,3.27,0.00,0.00,693.00,1168.00,447.00,1433.00,387.00,960.00,4095.00,4095.00,,,,,,,,,,,,0,0,0,,-4044,15212,3356,-101,56,-149
11.945,11.73,-0.35,-0.09,-0.32,-4.43,3.72,2.92,-2.12,0.00,0.00,710.00,1123.00,359.00,1426.00,460.00,857.00,4095.00,4095.00,,,,,,,,,,,,0,0,0,,-4032,15292,3316,0,95,-175
12.025,11.78,-0.22,0.36,0.17,1.57,-1.67,2.20,-3.78,0.00,0.00,686.00,1089.00,431.00,1300.00,510.00,922.00,4095.00,4095.00,,,,,,,,,,,,0,0,0,,-4008,15020,3456,-62,237,-194
12.046,11.84,-0.48,1.62,-2.00,2.38,-4.61,-5.35,4.00,0.00,0.00,754.00,1098.00,498.00,1362.00,384.00,1009.00,4095.00,4095.00,,,,,,,,,,,,0,0,0,,-4008,15236,3152,-39,111,-193
12.106,11.89,-0.40,-3.47,2.48,-5.58,4.11,1.04,-0.45,0.00,0.00,649.00,1191.00,359.00,1477.00,435.00,883.00,4095.00,4095.00,,,,,,,,,,,,0,0,0,,-4068,15212,3340,6,89,-154
12.166,11.95,-0.22,1.98,-1.12,-0.38,-0.09,3.30,-5.65,0.00,0.00,714.00,1057.00,410.00,1346.00,553.00,928.00,4095.00,4095.00,,,,,,,,,,,,0,0,0,,-4028,15232,3316,-48,109,-156
12.228,12.00,-0.43,0.91,-2.56,3.47,-6.16,-4.37,0.82,0.00,0.00,787.00,1146.00,531.00,1360.00,448.00,1057.00,4095.00,4095.00,,,,,,,,,,,,0,0,0,,-4008,15136,3100,-89,119,-133
12.29,12.06,-0.48,-3.64,1.92,-2.89,-0.12,-1.59,0.82,0.00,0.00,671.00,1217.00,430.00,1488.00,426.00,947.00,4095.00,4095.00,,,,,,,,,,,,0,0,0,,-3948,15212,3292,-142,103,-163
12.352,12.11,-0.27,1.52,-1.92,-2.38,1.41,3.73,-5.18,0.00,0.00,752.00,1100.00,392.00,1399.00,535.00,901.00,4095.00,4095.00,,,,,,,,,,,,0,0,0,,-3984,15144,3436,-76,44,-181
12.415,12.17,-0.31,0.25,-2.19,2.80,-4.68,-0.94,-2.14,0.00,0.00,781.00,1165.00,496.00,1342.00,494.00,999.00,4095.00,4095.00,,,,,,,,,,,,0,0,0,,-4076,15220,3312,20,114,-118
12.477,12.22,-0.55,-0.24,-0.53,0.36,-2.94,-5.23,3.67,0.00,0.00,720.00,1136.00,472.00,1411.00,390.00,1013.00,4095.00,4095.00,,,,,,,,,,,,0,0,0,,-4128,15272,3408,-40,228,-90
12.498,12.28,-0.44,-1.72,0.20,-4.82,3.35,1.70,-1.34,0.00,0.00,711.00,1181.00,369.00,1463.00,451.00,881.00,4095.00,4095.00,,,,,,,,,,,,0,0,0,,-4060,15180,3280,-175,8,-194
12.54,12.33,-0.29,0.33,-0.07,0.87,-1.35,2.55,-5.09,0.00,0.00,695.00,1097.00,429.00,1325.00,544.00,942.00,4095.00,4095.00,,,,,,,,,,,,0,0,0,,-4008,15148,3396,-15,-7,-142
12.6,12.39,-0.57,1.94,-2.79,3.68,-6.85,-5.78,3.58,0.00,0.00,782.00,1107.00,549.00,1374.00,396.00,1038.00,4095.00,4095.00,,,,,,,,,,,,0,0,0,,-3916,15236,3424,-156,177,-155
12.662,12.44,-0.54,-3.81,2.85,-4.70,2.72,0.02,-0.19,0.00,0.00,640.00,1195.00,381.00,1481.00,437.00,913.00,4095.00,4095.00,,,,,,,,,,,,0,0,0,,-4016,15228,3184,-234,173,-133
12.723,12.50,-0.29,1.76,-1.35,-0.88,-0.10,4.38,-6.17,0.00,0.00,726.00,1073.00,414.00,1373.00,558.00,902.00,4095.00,4095.00,,,,,,,,,,,,0,0,0,,-4032,15292,3408,-18,28,-210
12.786,12.55,-0.43,1.12,-2.60,3.88,-6.30,-3.13,0.28,0.00,0.00,786.00,1138.00,531.00,1343.00,451.00,1021.00,4095.00,4095.00,,,,,,,,,,,,0,0,0,,-3976,15184,3316,-17,37,-253
12.846,12.61,-0.54,-2.48,1.58,-2.17,-0.45,-2.68,2.35,0.00,0.00,669.00,1173.00,432.00,1459.00,400.00,949.00,4095.00,4095.00,,,,,,,,,,,,0,0,0,,-4100,15188,3372,58,174,-185
12.887,12.66,-0.37,0.93,-0.92,-3.61,2.99,3.04,-2.98,0.00,0.00,720.00,1096.00,368.00,1408.00,481.00,873.00,4095.00,4095.00,,,,,,,,,,,,0,0,0,,-3976,15124,3044,56,166,-203
12.929,12.72,-0.30,-0.03,-0.21,1.60,-2.14,0.98,-2.82,0.00,0.00,705.00,1117.00,442.00,1315.00,495.00,943.00,4095.00,4095.00,,,,,,,,,,,,0,0,0,,-4012,15184,3164,34,104,-205
12.99,12.77,-0.56,1.07,-1.40,1.60,-3.86,-5.47,3.99,0.00,0.00,737.00,1104.00,485.00,1377.00,385.00,1014.00,4095.00,4095.00,,,,,,,,,,,,0,0,0,,-4192,15176,3180,-94,108,-155
13.072,12.83,-0.45,-2.38,1.49,-5.54,4.25,1.48,-1.06,0.00,0.00,671.00,1171.00,356.00,1469.00,446.00,882.00,4095.00,4095.00,,,,,,,,,,,,0,0,0,,-4124,15216,3336,-119,92,-129
13.113,12.88,-0.29,1.27,-0.59,0.66,-0.93,2.89,-5.67,0.00,0.00,703.00,1072.00,421.00,1321.00,558.00,944.00,4095.00,4095.00,,,,,,,,,,,,0,0,0,,-4080,15252,3400,-140,61,-182
13.215,12.94,-0.53,1.32,-2.86,3.31,-6.38,-5.08,1.74,0.00,0.00,794.00,1137.00,539.00,1377.00,432.00,1061.00,4095.00,4095.00,,,,,,,,,,,,0,0,0,,-4056,15272,3232,20,120,-123
13.236,12.99,-0.57,-3.38,1.53,-3.20,0.15,-1.34,0.10,0.00,0.00,682.00,1217.00,426.00,1495.00,441.00,956.00,4095.00,4095.00,,,,,,,,,,,,0,0,0,,-3968,15360,3232,-84,227,-137
13.297,13.05,-0.35,1.51,-1.75,-1.91,0.88,3.72,-6.02,0.00,0.00,745.00,1095.00,400.00,1393.00,560.00,922.00,4095.00,4095.00,,,,,,,,,,,,0,0,0,,-4180,15156,3208,-162,67,-222
13.318,13.10,-0.45,0.33,-2.34,3.46,-5.98,-2.28,-1.04,0.00,0.00,786.00,1166.00,526.00,1354.00,477.00,1023.00,4095.00,4095.00,,,,,,,,,,,,0,0,0,,-3968,15124,3344,-33,80,-112
13.379,13.16,-0.61,-2.14,0.95,-1.21,-1.40,-3.57,2.65,0.00,0.00,688.00,1177.00,447.00,1441.00,400.00,975.00,4095.00,4095.00,,,,,,,,,,,,0,0,0,,-4032,15220,3276,-57,293,-115
13.441,13.21,-0.46,0.28,-0.57,-3.91,3.24,2.23,-1.44,0.00,0.00,715.00,1114.00,365.00,1415.00,449.00,865.00,4095.00,4095.00,,,,,,,,,,,,0,0,0,,-4080,15240,3240,-74,213,-145
13.483,13.27,-0.31,0.22,0.16,1.31,-1.24,2.63,-4.53,0.00,0.00,688.00,1095.00,423.00,1298.00,527.00,925.00,4095.00,4095.00,,,,,,,,,,,,0,0,0,,-4012,15312,3232,-29,117,-136
13.587,13.32,-0.57,1.85,-1.93,2.08,-4.25,-5.57,4.02,0.00,0.00,748.00,1086.00,491.00,1365.00,385.00,1017.00,4095.00,4095.00,,,,,,,,,,,,0,0,0,,-4016,15140,3272,-93,181,-188
13.608,13.38,-0.47,-3.00,2.07,-5.22,3.69,1.49,-0.85,0.00,0.00,658.00,1182.00,365.00,1473.00,441.00,877.00,4095.00,4095.00,,,,,,,,,,,,0,0,0,,-4136,15172,3396,-14,189,-136
13.648,13.43,-0.27,2.21,-0.86,-0.03,-0.25,3.61,-5.65,0.00,0.00,701.00,1040.00,411.00,1333.00,550.00,917.00,4095.00,4095.00,,,,,,,,,,,,0,0,0,,-4044,15092,3112,-32,198,-132
13.71,13.49,-0.46,1.09,-2.43,3.47,-6.12,-4.17,0.88,0.00,0.00,779.00,1134.00,530.00,1359.00,445.00,1047.00,4095.00,4095.00,,,,,,,,,,,,0,0,0,,-4016,15164,3176,-89,165,-139
13.751,13.54,-0.50,-3.53,2.16,-3.31,0.50,-1.19,0.43,0.00,0.00,661.00,1204.00,419.00,1488.00,432.00,942.00,4095.00,4095.00,,,,,,,,,,,,0,0,0,,-4116,15216,3112,-155,125,-136
13.811,13.60,-0.31,1.72,-1.82,-2.48,1.73,3.32,-4.90,0.00,0.00,745.00,1088.00,386.00,1393.00,531.00,909.00,4095.00,4095.00,,,,,,,,,,,,0,0,0,,-4052,15312,3240,-177,43,-136
13.872,13.65,-0.35,0.78,-2.23,3.01,-4.60,-1.24,-1.70,0.00,0.00,775.00,1142.00,492.00,1328.00,485.00,999.00,4095.00,4095.00,,,,,,,,,,,,0,0,0,,-4080,15304,3160,-107,128,-147
13.994,13.71,-0.59,-0.29,-0.46,0.66,-3.12,-5.07,3.62,0.00,0.00,718.00,1136.00,474.00,1401.00,390.00,1008.00,4095.00,4095.00,,,,,,,,,,,,0,0,0,,-3960,15264,3332,-51,114,-101
14.014,13.76,-0.64,-1.52,0.32,-4.93,3.69,-1.54,2.15,0.00,0.00,704.00,1168.00,363.00,1456.00,396.00,912.00,4095.00,4095.00,,,,,,,,,,,,0,0,0,,-4084,15340,3308,-52,181,-126
14.056,13.82,-0.49,0.40,-0.40,1.06,-1.33,2.27,-4.76,0.00,0.00,707.00,1104.00,427.00,1314.00,537.00,944.00,4095.00,4095.00,,,,,,,,,,,,0,0,0,,-4096,15160,3224,-240,21,-269
14.098,13.87,-0.77,1.56,-2.49,2.94,-5.74,-6.16,3.75,0.00,0.00,775.00,1115.00,524.00,1373.00,395.00,1049.00,4095.00,4095.00,,,,,,,,,,,,0,0,0,,-4084,15256,3432,-108,-91,-185
14.159,13.93,-0.73,-3.90,2.82,-4.38,2.76,0.20,-0.21,0.00,0.00,642.00,1200.00,378.00,1461.00,436.00,907.00,4095.00,4095.00,,,,,,,,,,,,0,0,0,,-4064,15192,3592,-36,210,-160
14.22,13.98,-0.49,1.63,-1.13,-1.11,0.56,4.08,-6.14,0.00,0.00,719.00,1072.00,401.00,1361.00,560.00,912.00,4095.00,4095.00,,,,,,,,,,,,0,0,0,,-4116,15168,3096,-114,259,-114
14.322,14.04,-0.70,1.10,-2.57,3.83,-6.52,-4.68,0.93,0.00,0.00,785.00,1138.00,538.00,1354.00,448.00,1067.00,4095.00,4095.00,,,,,,,,,,,,0,0,0,,-4060,15292,3244,-1,92,-121
14.342,14.09,-0.75,-2.34,1.54,-2.17,-0.45,-1.88,1.44,0.00,0.00,669.00,1168.00,432.00,1459.00,414.00,942.00,4095.00,4095.00,,,,,,,,,,,,0,0,0,,-4016,15176,3336,-60,149,-291
14.362,14.15,-0.52,1.25,-1.08,-3.26,2.87,3.94,-3.96,0.00,0.00,722.00,1087.00,368.00,1393.00,499.00,865.00,4095.00,4095.00,,,,,,,,,,,,0,0,0,,-4124,15228,3168,-61,130,-172
14.423,14.20,-0.45,0.71,-1.00,2.11,-2.65,0.85,-2.59,0.00,0.00,726.00,1108.00,450.00,1306.00,490.00,942.00,4095.00,4095.00,,,,,,,,,,,,0,0,0,,-4132,15288,3184,-31,126,-184
14.465,14.26,-0.68,1.46,-1.53,1.26,-3.28,-4.97,3.92,0.00,0.00,737.00,1091.00,473.00,1374.00,383.00,996.00,4095.00,4095.00,,,,,,,,,,,,0,0,0,,-4116,15060,3112,5,136,-145
14.528,14.31,-0.56,-2.08,1.31,-5.48,4.55,1.71,-1.10,0.00,0.00,674.00,1163.00,350.00,1454.00,445.00,875.00,4095.00,4095.00,,,,,,,,,,,,0,0,0,,-4188,15120,3192,-37,161,-100
14.59,14.37,-0.37,1.09,-0.30,0.78,-0.70,3.27,-5.63,0.00,0.00,694.00,1071.00,415.00,1307.00,553.00,929.00,4095.00,4095.00,,,,,,,,,,,,0,0,0,,-4084,15216,3212,-122,93,-130
14.674,14.42,-0.62,1.42,-2.68,3.14,-6.05,-5.42,2.37,0.00,0.00,785.00,1127.00,531.00,1374.00,420.00,1057.00,4095.00,4095.00,,,,,,,,,,,,0,0,0,,-4068,15244,3296,-157,112,-121
14.695,14.48,-0.65,-3.42,1.85,-3.46,0.63,-1.16,-0.05,0.00,0.00,671.00,1209.00,417.00,1491.00,443.00,953.00,4095.00,4095.00,,,,,,,,,,,,0,0,0,,-4056,15188,3268,-92,166,-30
14.757,14.53,-0.44,1.47,-1.68,-1.81,0.85,3.55,-6.12,0.00,0.00,743.00,1095.00,400.00,1389.00,565.00,931.00,4095.00,4095.00,,,,,,,,,,,,0,0,0,,-3944,15232,3224,-114,180,-92
14.8,14.59,-0.57,0.16,-2.37,3.61,-6.07,-3.04,-0.35,0.00,0.00,790.00,1175.00,527.00,1349.00,466.00,1035.00,4095.00,4095.00,,,,,,,,,,,,0,0,0,,-3952,15004,3340,-206,-12,-255
14.86,14.64,-0.71,-2.49,1.15,-1.67,-0.83,-3.47,2.66,0.00,0.00,685.00,1187.00,437.00,1445.00,399.00,971.00,4095.00,4095.00,,,,,,,,,,,,0,0,0,,-4100,15108,3380,-157,9,-81
14.941,14.70,-0.55,0.28,-0.57,-4.11,3.31,2.58,-1.96,0.00,0.00,715.00,1114.00,365.00,1424.00,459.00,865.00,4095.00,4095.00,,,,,,,,,,,,0,0,0,,-4060,15320,3256,-109,274,-105
14.963,14.75,-0.39,-0.04,0.25,1.55,-1.62,2.53,-3.89,0.00,0.00,688.00,1104.00,430.00,1299.00,510.00,913.00,4095.00,4095.00,,,,,,,,,,,,0,0,0,,-4072,15268,3224,-61,141,-205
15.065,14.81,-0.69,1.96,-1.92,2.20,-4.29,-6.30,5.67,0.00,0.00,746.00,1081.00,491.00,1360.00,357.00,1002.00,4095.00,4095.00,,,,,,,,,,,,0,0,0,,-4036,15252,3340,28,49,-121
15.086,14.86,-0.56,-2.27,1.87,-5.25,4.21,1.98,-0.68,0.00,0.00,656.00,1154.00,355.00,1454.00,433.00,856.00,4095.00,4095.00,,,,,,,,,,,,0,0,0,,-4028,15220,3272,-47,159,-270
15.126,14.92,-0.33,2.84,-1.10,0.28,0.05,4.04,-5.76,0.00,0.00,702.00,1021.00,402.00,1306.00,549.00,904.00,4095.00,4095.00,,,,,,,,,,,,0,0,0,,-4108,15336,3056,-7,97,-230
15.187,14.97,-0.52,1.63,-2.40,3.77,-6.05,-4.25,1.33,0.00,0.00,770.00,1109.00,525.00,1340.00,435.00,1038.00,4095.00,4095.00,,,,,,,,,,,,0,0,0,,-4112,15152,3264,-18,79,-152
15.249,15.03,-0.54,-3.28,2.13,-3.03,0.53,-0.97,0.79,0.00,0.00,659.00,1193.00,416.00,1470.00,422.00,925.00,4095.00,4095.00,,,,,,,,,,,,0,0,0,,-4128,15156,3160,-91,182,-162
15.289,15.08,-0.30,2.05,-1.68,-2.40,2.38,4.32,-5.58,0.00,0.00,735.00,1070.00,372.00,1364.00,541.00,890.00,4095.00,4095.00,,,,,,,,,,,,0,0,0,,-4116,15272,3108,-35,117,-173
15.351,15.14,-0.37,0.79,-2.21,3.50,-4.84,-1.72,-0.75,0.00,0.00,774.00,1141.00,494.00,1311.00,465.00,993.00,4095.00,4095.00,,,,,,,,,,,,0,0,0,,-4100,15244,3228,-74,120,-148
15.433,15.19,-0.56,-1.38,0.54,-0.27,-1.81,-4.09,3.15,0.00,0.00,694.00,1155.00,449.00,1403.00,393.00,982.00,4095.00,4095.00,,,,,,,,,,,,0,0,0,,-4084,15216,3172,-137,103,-155
15.474,15.25,-0.44,-0.61,0.01,-4.49,4.01,1.88,-1.48,0.00,0.00,704.00,1136.00,354.00,1419.00,453.00,878.00,4095.00,4095.00,,,,,,,,,,,,0,0,0,,-4068,15172,3120,-24,129,-122
15.534,15.30,-0.31,0.22,-0.00,1.15,-1.14,2.06,-4.44,0.00,0.00,694.00,1100.00,422.00,1303.00,530.00,944.00,4095.00,4095.00,,,,,,,,,,,,0,0,0,,-4056,15096,3220,-35,129,-204
15.596,15.36,-0.61,1.42,-2.35,2.37,-4.97,-6.34,4.19,0.00,0.00,771.00,1117.00,508.00,1376.00,387.00,1044.00,4095.00,4095.00,,,,,,,,,,,,0,0,0,,-4032,15224,3100,-48,148,-316
15.637,15.41,-0.54,-3.60,2.38,-5.06,3.63,0.93,-0.46,0.00,0.00,654.00,1200.00,365.00,1466.00,436.00,887.00,4095.00,4095.00,,,,,,,,,,,,0,0,0,,-4172,15172,3384,-110,18,-134
15.678,15.47,-0.31,1.90,-1.17,-0.60,0.39,4.07,-6.00,0.00,0.00,717.00,1062.00,401.00,1340.00,556.00,909.00,4095.00,4095.00,,,,,,,,,,,,0,0,0,,-3980,15140,3384,-93,235,-104
15.74,15.52,-0.46,0.98,-2.22,4.19,-6.33,-3.41,0.63,0.00,0.00,772.00,1133.00,529.00,1328.00,445.00,1023.00,4095.00,4095.00,,,,,,,,,,,,0,0,0,,-4048,15336,3136,-28,222,-162
15.784,15.58,-0.51,-2.78,1.96,-2.67,0.46,-1.43,1.70,0.00,0.00,659.00,1175.00,415.00,1452.00,405.00,919.00,4095.00,4095.00,,,,,,,,,,,,0,0,0,,-4064,15112,3100,51,27,-202
15.866,15.63,-0.26,2.04,-1.70,-2.06,2.02,4.55,-4.42,0.00,0.00,736.00,1071.00,377.00,1359.00,506.00,855.00,4095.00,4095.00,,,,,,,,,,,,0,0,0,,-4096,15272,3200,14,115,-253
15.929,15.69,-0.20,1.18,-1.93,3.22,-3.58,0.80,-1.96,0.00,0.00,757.00,1115.00,464.00,1282.00,474.00,928.00,4095.00,4095.00,,,,,,,,,,,,0,0,0,,-4220,15148,2892,-25,145,-158
15.97,15.74,-0.39,0.83,-0.50,1.30,-2.66,-3.92,3.47,0.00,0.00,705.00,1088.00,457.00,1349.00,385.00,967.00,4095.00,4095.00,,,,,,,,,,,,0,0,0,,-3984,15192,3184,-118,70,-175
16.032,15.80,-0.24,-0.93,0.49,-4.75,4.51,2.66,-1.29,0.00,0.00,690.00,1136.00,346.00,1414.00,442.00,847.00,4095.00,4095.00,,,,,,,,,,,,0,0,0,,-4136,15064,3300,-120,81,-124
16.094,15.85,-0.06,1.56,-0.32,0.78,-0.48,3.25,-4.88,0.00,0.00,689.00,1052.00,410.00,1299.00,531.00,911.00,4095.00,4095.00,,,,,,,,,,,,0,0,0,,-3992,15244,3116,-100,94,-129
16.155,15.91,-0.33,1.89,-2.60,3.54,-5.40,-5.34,3.48,0.00,0.00,775.00,1104.00,509.00,1329.00,395.00,1023.00,4095.00,4095.00,,,,,,,,,,,,0,0,0,,-4080,15296,3152,-79,64,-191
16.175,15.96,-0.34,-3.62,2.81,-4.27,2.72,-0.59,0.23,0.00,0.00,639.00,1187.00,378.00,1456.00,432.00,925.00,4095.00,4095.00,,,,,,,,,,,,0,0,0,,-3968,15160,3184,-101,-14,-229
16.257,16.02,-0.13,1.43,-1.22,-0.96,0.65,3.90,-6.08,0.00,0.00,725.00,1083.00,398.00,1350.00,560.00,917.00,4095.00,4095.00,,,,,,,,,,,,0,0,0,,-4016,15284,3132,-82,28,-228
16.317,16.07,-0.31,1.43,-2.82,3.99,-6.23,-3.77,0.54,0.00,0.00,791.00,1131.00,528.00,1335.00,450.00,1040.00,4095.00,4095.00,,,,,,,,,,,,0,0,0,,-4044,15308,3228,-63,58,-156
16.358,16.13,-0.43,-2.97,1.61,-2.11,-0.47,-2.79,1.66,0.00,0.00,674.00,1195.00,432.00,1456.00,416.00,971.00,4095.00,4095.00,,,,,,,,,,,,0,0,0,,-4128,15332,3272,-120,140,-153
16.42,16.18,-0.25,0.85,-1.17,-3.50,3.31,3.25,-3.58,0.00,0.00,731.00,1107.00,361.00,1390.00,495.00,880.00,4095.00,4095.00,,,,,,,,,,,,0,0,0,,-4036,15204,3176,-205,-35,-192
16.461,16.24,-0.21,0.17,-0.30,1.63,-1.47,0.49,-2.80,0.00,0.00,706.00,1111.00,426.00,1290.00,499.00,961.00,4095.00,4095.00,,,,,,,,,,,,0,0,0,,-4052,15156,3324,-32,18,-173
16.543,16.29,-0.44,1.43,-1.42,1.98,-3.79,-4.84,4.07,0.00,0.00,733.00,1089.00,480.00,1354.00,379.00,987.00,4095.00,4095.00,,,,,,,,,,,,0,0,0,,-4068,15272,3128,-129,202,-213
16.563,16.35,-0.31,-1.70,1.29,-5.05,4.78,2.17,-0.75,0.00,0.00,670.00,1146.00,343.00,1421.00,433.00,851.00,4095.00,4095.00,,,,,,,,,,,,0,0,0,,-4120,15232,3112,-140,60,-233
16.625,16.40,-0.11,2.15,-0.44,0.75,0.03,3.84,-5.42,0.00,0.00,686.00,1031.00,399.00,1283.00,541.00,903.00,4095.00,4095.00,,,,,,,,,,,,0,0,0,,-4052,15172,3200,-77,-41,-164
16.665,16.46,-0.33,2.31,-2.89,3.65,-5.51,-4.70,2.53,0.00,0.00,781.00,1094.00,511.00,1327.00,411.00,1023.00,4095.00,4095.00,,,,,,,,,,,,0,0,0,,-4128,15096,3300,-86,158,-132
16.728,16.51,-0.34,-2.50,1.70,-3.27,1.25,-0.51,0.59,0.00,0.00,665.00,1170.00,402.00,1456.00,423.00,913.00,4095.00,4095.00,,,,,,,,,,,,0,0,0,,-3940,15204,3216,-31,181,-129
16.79,16.57,-0.10,2.05,-1.32,-1.58,1.81,4.55,-5.96,0.00,0.00,721.00,1060.00,378.00,1341.00,550.00,891.00,4095.00,4095.00,,,,,,,,,,,,0,0,0,,-4072,15268,3068,-39,109,-122
16.831,16.62,-0.20,0.96,-2.34,3.92,-5.31,-2.21,-0.67,0.00,0.00,777.00,1137.00,503.00,1306.00,467.00,1010.00,4095.00,4095.00,,,,,,,,,,,,0,0,0,,-4016,15216,3104,-22,96,-175
16.893,16.68,-0.37,-1.91,0.93,-0.97,-0.90,-3.51,3.14,0.00,0.00,686.00,1167.00,433.00,1408.00,389.00,960.00,4095.00,4095.00,,,,,,,,,,,,0,0,0,,-4120,15152,3092,-38,86,-234
16.975,16.73,-0.25,0.24,-0.51,-3.96,3.93,2.08,-1.30,0.00,0.00,713.00,1114.00,352.00,1392.00,447.00,867.00,4095.00,4095.00,,,,,,,,,,,,0,0,0,,-4184,15144,3252,-95,146,-163
16.996,16.79,-0.16,-0.07,0.12,1.32,-1.11,1.50,-3.58,0.00,0.00,693.00,1109.00,420.00,1293.00,511.00,943.00,4095.00,4095.00,,,,,,,,,,,,0,0,0,,-4064,15252,3144,-101,160,-123
17.059,16.84,-0.46,1.41,-1.93,2.03,-3.93,-6.25,4.30,0.00,0.00,754.00,1105.00,483.00,1356.00,384.00,1037.00,4095.00,4095.00,,,,,,,,,,,,0,0,0,,-4116,15172,3228,-49,169,-156
17.12,16.90,-0.39,-2.92,1.59,-5.27,4.27,0.93,-0.83,0.00,0.00,674.00,1193.00,354.00,1453.00,445.00,896.00,4095.00,4095.00,,,,,,,,,,,,0,0,0,,-4044,15168,3308,-44,249,-119
17.162,16.95,-0.21,1.87,-0.95,0.07,0.17,3.30,-5.84,0.00,0.00,709.00,1057.00,401.00,1313.00,559.00,933.00,4095.00,4095.00,,,,,,,,,,,,0,0,0,,-4004,15148,2936,-110,129,-240
17.264,17.01,-0.43,1.27,-2.56,3.84,-6.04,-4.70,1.31,0.00,0.00,782.00,1130.00,524.00,1336.00,439.00,1057.00,4095.00,4095.00,,,,,,,,,,,,0,0,0,,-4088,15072,3404,-1,80,-208
17.284,17.06,-0.46,-3.23,1.84,-2.29,0.46,-0.99,0.49,0.00,0.00,669.00,1200.00,412.00,1430.00,429.00,933.00,4095.00,4095.00,,,,,,,,,,,,0,0,0,,-4096,15208,3336,-48,221,-168
17.326,17.12,-0.24,2.17,-1.72,-1.81,2.04,4.01,-5.37,0.00,0.00,735.00,1066.00,375.00,1345.00,538.00,896.00,4095.00,4095.00,,,,,,,,,,,,0,0,0,,-4152,15236,3084,-56,179,-200
17.388,17.17,-0.30,1.04,-2.13,2.70,-4.07,-1.39,-0.87,0.00,0.00,767.00,1127.00,481.00,1326.00,465.00,983.00,4095.00,4095.00,,,,,,,,,,,,0,0,0,,-4128,15224,3320,-56,95,-107
17.451,17.23,-0.49,-0.94,0.47,0.14,-1.65,-4.19,3.61,0.00,0.00,691.00,1137.00,442.00,1375.00,384.00,974.00,4095.00,4095.00,,,,,,,,,,,,0,0,0,,-4120,15188,3248,-142,156,-257
17.513,17.28,-0.34,-0.06,-0.20,-3.82,3.73,2.57,-1.47,0.00,0.00,705.00,1118.00,355.00,1392.00,447.00,854.00,4095.00,4095.00,,,,,,,,,,,,0,0,0,,-4200,15220,3272,-51,209,-146
17.575,17.34,-0.21,0.87,-0.01,1.82,-0.96,2.20,-3.82,0.00,0.00,686.00,1072.00,413.00,1263.00,511.00,923.00,4095.00,4095.00,,,,,,,,,,,,0,0,0,,-4076,15248,3144,-5,161,-166
17.636,17.39,-0.52,2.03,-2.26,3.27,-4.83,-6.34,4.33,0.00,0.00,759.00,1088.00,496.00,1323.00,384.00,1040.00,4095.00,4095.00,,,,,,,,,,,,0,0,0,,-4116,15168,3144,-13,140,-143
17.657,17.45,-0.46,-3.76,2.72,-5.13,4.12,0.63,-0.32,0.00,0.00,644.00,1197.00,356.00,1451.00,435.00,894.00,4095.00,4095.00,,,,,,,,,,,,0,0,0,,-4120,15152,3044,-69,162,-103
17.72,17.50,-0.28,2.14,-1.25,-0.29,0.34,3.18,-5.50,0.00,0.00,717.00,1054.00,400.00,1326.00,550.00,929.00,4095.00,4095.00,,,,,,,,,,,,0,0,0,,-4040,15112,3068,-129,145,-120
17.782,17.56,-0.50,0.82,-2.46,4.10,-6.20,-4.78,1.00,0.00,0.00,784.00,1147.00,526.00,1328.00,447.00,1069.00,4095.00,4095.00,,,,,,,,,,,,0,0,0,,-4080,15156,3220,-173,136,-83
17.842,17.61,-0.59,-3.45,1.83,-2.76,0.44,-2.28,1.09,0.00,0.00,672.00,1211.00,416.00,1458.00,425.00,966.00,4095.00,4095.00,,,,,,,,,,,,0,0,0,,-4044,15172,3232,-109,103,-128
17.905,17.67,-0.40,1.19,-1.54,-2.05,1.68,3.30,-5.03,0.00,0.00,741.00,1103.00,384.00,1371.00,535.00,913.00,4095.00,4095.00,,,,,,,,,,,,0,0,0,,-4128,15212,3056,-61,139,-164
17.986,17.72,-0.43,0.20,-1.89,3.45,-4.33,-1.00,-2.00,0.00,0.00,769.00,1158.00,481.00,1296.00,491.00,998.00,4095.00,4095.00,,,,,,,,,,,,0,0,0,,-4144,15268,2840,-93,233,-261
18.007,17.78,-0.66,0.01,-0.43,1.16,-2.69,-5.02,3.56,0.00,0.00,713.00,1122.00,459.00,1358.00,391.00,1008.00,4095.00,4095.00,,,,,,,,,,,,0,0,0,,-4080,15180,3312,-97,18,-199
18.048,17.83,-0.54,-1.12,0.18,-4.77,4.36,1.70,-1.30,0.00,0.00,704.00,1154.00,349.00,1421.00,450.00,880.00,4095.00,4095.00,,,,,,,,,,,,0,0,0,,-4140,15128,3456,6,134,-146
18.11,17.89,-0.38,0.80,-0.04,-1.17,2.89,2.69,-5.10,0.00,0.00,688.00,1076.00,354.00,1282.00,543.00,937.00,4095.00,4095.00,,,,,,,,,,,,0,0,0,,-4028,15212,3144,-15,284,-185
18.171,17.94,-0.65,1.81,-2.55,4.28,-6.33,-5.88,3.47,0.00,0.00,774.00,1106.00,528.00,1323.00,399.00,1045.00,4095.00,4095.00,,,,,,,,,,,,0,0,0,,-4088,15148,2876,-24,39,-236
18.212,18.00,-0.62,-3.55,2.91,-4.72,3.77,-0.06,0.00,0.00,0.00,635.00,1181.00,360.00,1441.00,433.00,911.00,4095.00,4095.00,,,,,,,,,,,,0,0,0,,-4116,15312,3080,-2,53,-192
18.292,18.05,-0.40,1.63,-1.13,-0.71,0.90,3.85,-5.96,0.00,0.00,719.00,1072.00,391.00,1328.00,557.00,916.00,4095.00,4095.00,,,,,,,,,,,,0,0,0,,-4196,15148,3148,-95,161,-175
18.373,18.11,-0.58,1.27,-2.82,4.59,-6.47,-3.92,0.55,0.00,0.00,793.00,1138.00,529.00,1312.00,451.00,1046.00,4095.00,4095.00,,,,,,,,,,,,0,0,0,,-4132,15196,3088,-44,122,-157
18.394,18.16,-0.60,-3.08,2.09,-2.32,0.38,-1.07,1.22,0.00,0.00,658.00,1185.00,414.00,1435.00,413.00,918.00,4095.00,4095.00,,,,,,,,,,,,0,0,0,,-4044,15296,3060,-43,121,-167
18.435,18.22,-0.39,2.31,-2.89,-2.68,2.78,3.68,-4.81,0.00,0.00,781.00,1094.00,366.00,1365.00,525.00,894.00,4095.00,4095.00,,,,,,,,,,,,0,0,0,,-4144,15168,3128,-50,109,-179
18.498,18.27,-0.34,0.41,-1.43,2.93,-3.12,0.57,-2.75,0.00,0.00,747.00,1134.00,455.00,1281.00,497.00,957.00,4095.00,4095.00,,,,,,,,,,,,0,0,0,,-4080,15208,3092,-88,110,-124
18.538,18.33,-0.60,0.74,-1.11,1.42,-2.94,-5.61,3.94,0.00,0.00,730.00,1110.00,463.00,1353.00,387.00,1021.00,4095.00,4095.00,,,,,,,,,,,,0,0,0,,-4128,15308,3140,-134,105,-137
18.6,18.38,-0.51,-2.20,0.97,-5.31,4.92,1.33,-0.97,0.00,0.00,688.00,1179.00,342.00,1430.00,445.00,885.00,4095.00,4095.00,,,,,,,,,,,,0,0,0,,-4136,15224,3184,-115,72,-150
18.661,18.44,-0.44,0.63,-0.38,1.13,-0.82,0.87,-2.97,0.00,0.00,703.00,1093.00,415.00,1293.00,500.00,951.00,4095.00,4095.00,,,,,,,,,,,,0,0,0,,-3972,15276,3200,-68,110,-60
18.722,18.49,-0.72,1.24,-2.72,3.62,-5.97,-6.19,2.80,0.00,0.00,789.00,1136.00,524.00,1345.00,416.00,1077.00,4095.00,4095.00,,,,,,,,,,,,0,0,0,,-4080,15420,3048,-21,237,-89
18.784,18.55,-0.77,-4.04,2.05,-4.01,2.10,-1.73,0.39,0.00,0.00,671.00,1232.00,389.00,1465.00,437.00,963.00,4095.00,4095.00,,,,,,,,,,,,0,0,0,,-4168,15164,2936,-166,54,-235
18.866,18.60,-0.56,1.84,-2.05,-1.20,0.92,3.55,-6.29,0.00,0.00,753.00,1090.00,394.00,1353.00,570.00,935.00,4095.00,4095.00,,,,,,,,,,,,0,0,0,,-4124,15160,3368,-37,24,-109
18.887,18.66,-0.72,1.00,-2.98,4.25,-6.42,-3.74,0.24,0.00,0.00,804.00,1155.00,531.00,1328.00,457.00,1047.00,4095.00,4095.00,,,,,,,,,,,,0,0,0,,-4140,15236,3224,-59,317,-140
18.928,18.71,-0.84,-2.63,1.58,-2.03,0.11,-3.19,2.52,0.00,0.00,671.00,1180.00,418.00,1429.00,400.00,964.00,4095.00,4095.00,,,,,,,,,,,,0,0,0,,-4064,15296,2952,-33,167,-176
19.012,18.77,-0.64,0.98,-1.07,-3.37,3.63,3.25,-3.54,0.00,0.00,725.00,1098.00,354.00,1371.00,494.00,879.00,4095.00,4095.00,,,,,,,,,,,,0,0,0,,-3984,15276,3044,-25,61,-159
19.114,18.82,-0.55,0.33,-0.43,2.52,-2.03,1.09,-2.82,0.00,0.00,709.00,1108.00,432.00,1264.00,494.00,939.00,4095.00,4095.00,,,,,,,,,,,,0,0,0,,-4168,15232,2960,-120,153,-244
19.134,18.88,-0.81,1.55,-1.66,2.13,-3.57,-5.70,4.41,0.00,0.00,741.00,1091.00,473.00,1338.00,378.00,1012.00,4095.00,4095.00,,,,,,,,,,,,0,0,0,,-4172,15108,2972,-46,114,-190
19.176,18.93,-0.71,-2.05,1.30,-5.46,5.29,1.19,-0.59,0.00,0.00,674.00,1162.00,336.00,1424.00,437.00,881.00,4095.00,4095.00,,,,,,,,,,,,0,0,0,,-3976,15332,3060,-49,115,-130
19.196,18.99,-0.51,1.43,-0.41,0.86,-0.05,3.21,-5.75,0.00,0.00,694.00,1060.00,400.00,1280.00,557.00,934.00,4095.00,4095.00,,,,,,,,,,,,0,0,0,,-4040,15324,2824,-55,116,-157
19.257,19.04,-0.76,1.46,-2.74,3.88,-5.88,-5.39,2.36,0.00,0.00,787.00,1127.00,519.00,1328.00,420.00,1056.00,4095.00,4095.00,,,,,,,,,,,,0,0,0,,-4088,15140,2956,-86,89,-163
19.319,19.10,-0.80,-3.30,1.92,-3.15,1.07,-1.57,0.51,0.00,0.00,667.00,1201.00,405.00,1456.00,433.00,954.00,4095.00,4095.00,,,,,,,,,,,,0,0,0,,-4176,15216,3068,-176,122,-111
19.361,19.15,-0.57,1.63,-1.71,-1.25,1.08,3.80,-6.34,0.00,0.00,742.00,1089.00,391.00,1350.00,569.00,927.00,4095.00,4095.00,,,,,,,,,,,,0,0,0,,-4088,15204,3196,-208,87,-128
19.463,19.21,-0.72,0.07,-2.37,3.56,-5.41,-3.68,-0.06,0.00,0.00,791.00,1179.00,509.00,1328.00,464.00,1053.00,4095.00,4095.00,,,,,,,,,,,,0,0,0,,-4080,15220,3252,-87,71,-146
19.484,19.26,-0.90,-2.97,1.15,-1.58,-0.86,-4.22,2.41,0.00,0.00,691.00,1210.00,437.00,1441.00,410.00,1007.00,4095.00,4095.00,,,,,,,,,,,,0,0,0,,-4044,15156,3112,-87,122,-134
19.545,19.32,-0.78,-0.16,-1.01,-4.22,3.91,1.48,-2.26,0.00,0.00,738.00,1147.00,354.00,1407.00,476.00,911.00,4095.00,4095.00,,,,,,,,,,,,0,0,0,,-4000,15356,3032,-106,197,-273
19.585,19.37,-0.69,-0.58,0.00,1.56,-1.23,0.91,-3.38,0.00,0.00,704.00,1135.00,421.00,1285.00,511.00,960.00,4095.00,4095.00,,,,,,,,,,,,0,0,0,,-4144,15248,3096,-127,-39,-187
19.646,19.43,-0.98,1.10,-1.78,0.53,-1.74,-6.39,4.59,0.00,0.00,752.00,1114.00,441.00,1357.00,379.00,1035.00,4095.00,4095.00,,,,,,,,,,,,0,0,0,,-4136,15248,3480,-40,155,-116
19.707,19.48,-0.87,-2.79,1.71,-5.74,5.12,1.11,-0.43,0.00,0.00,668.00,1183.00,341.00,1447.00,434.00,880.00,4095.00,4095.00,,,,,,,,,,,,0,0,0,,-4044,15344,3008,-26,316,-156
19.769,19.54,-0.64,1.64,-0.51,0.67,0.06,3.75,-5.89,0.00,0.00,695.00,1054.00,399.00,1286.00,556.00,918.00,4095.00,4095.00,,,,,,,,,,,,0,0,0,,-4076,15320,2884,21,21,-199
19.83,19.59,-0.85,1.62,-2.68,3.60,-5.50,-4.69,1.69,0.00,0.00,782.00,1118.00,511.00,1329.00,430.00,1046.00,4095.00,4095.00,,,,,,,,,,,,0,0,0,,-4064,15268,3024,39,138,-211
19.871,19.65,-0.87,-3.15,1.75,-2.72,0.43,-1.29,0.85,0.00,0.00,671.00,1199.00,416.00,1456.00,423.00,935.00,4095.00,4095.00,,,,,,,,,,,,0,0,0,,-4196,15148,3088,-73,154,-206
19.912,19.70,-0.64,2.17,-1.92,-1.34,1.54,3.78,-5.74,0.00,0.00,743.00,1072.00,382.00,1338.00,551.00,913.00,4095.00,4095.00,,,,,,,,,,,,0,0,0,,-4064,15244,3000,-41,82,-187
19.972,19.76,-0.73,0.60,-2.36,3.85,-5.22,-2.45,-0.43,0.00,0.00,783.00,1154.00,501.00,1306.00,463.00,1013.00,4095.00,4095.00,,,,,,,,,,,,0,0,0,,-4192,15208,3048,-35,105,-159
20.034,19.81,-0.89,-2.31,1.01,-0.92,-1.00,-3.97,3.20,0.00,0.00,688.00,1183.00,435.00,1409.00,391.00,976.00,4095.00,4095.00,,,,,,,,,,,,0,0,0,,-4200,15232,2960,-84,134,-149
20.075,19.87,-0.76,0.11,-0.64,-4.31,4.47,1.66,-1.33,0.00,0.00,720.00,1124.00,344.00,1391.00,451.00,882.00,4095.00,4095.00,,,,,,,,,,,,0,0,0,,-4072,15232,3048,-143,74,-149
20.195,19.92,-0.63,-0.31,-0.04,1.46,-0.93,1.87,-4.17,0.00,0.00,702.00,1124.00,415.00,1280.00,524.00,944.00,4095.00,4095.00,,,,,,,,,,,,0,0,0,,-4148,15200,3112,-199,75,-171
20.215,19.98,-0.91,1.12,-1.91,2.29,-4.16,-6.32,3.95,0.00,0.00,757.00,1117.00,487.00,1351.00,392.00,1050.00,4095.00,4095.00,,,,,,,,,,,,0,0,0,,-4140,15348,3132,-126,106,-154
20.278,20.03,-0.84,-3.42,1.90,-5.59,4.58,0.64,-0.61,0.00,0.00,669.00,1207.00,350.00,1459.00,442.00,901.00,4095.00,4095.00,,,,,,,,,,,,0,0,0,,-4044,15232,3152,-39,120,-95
20.298,20.09,-0.65,1.22,-0.94,0.21,-0.06,2.88,-5.93,0.00,0.00,717.00,1084.00,405.00,1314.00,566.00,951.00,4095.00,4095.00,,,,,,,,,,,,0,0,0,,-3996,15136,3124,-71,141,-142
20.361,20.14,-0.86,0.72,-2.82,3.77,-6.16,-4.83,0.98,0.00,0.00,801.00,1163.00,528.00,1344.00,448.00,1072.00,4095.00,4095.00,,,,,,,,,,,,0,0,0,,-4028,15372,2948,-190,49,-292
20.421,20.20,-0.90,-3.68,1.82,-3.24,0.56,-1.74,0.61,0.00,0.00,675.00,1222.00,417.00,1481.00,432.00,958.00,4095.00,4095.00,,,,,,,,,,,,0,0,0,,-4172,15156,3316,-104,-29,-142
20.463,20.25,-0.67,0.43,0.09,-1.62,1.34,3.73,-5.62,0.00,0.00,688.00,1088.00,388.00,1360.00,548.00,912.00,4095.00,4095.00,,,,,,,,,,,,0,0,0,,-4136,15252,3248,-49,138,-177
20.564,20.31,-0.72,0.57,-2.35,3.79,-5.01,-1.61,-1.15,0.00,0.00,783.00,1155.00,496.00,1302.00,474.00,999.00,4095.00,4095.00,,,,,,,,,,,,0,0,0,,-4296,15244,3004,-71,192,-177
20.584,20.36,-0.88,-1.71,0.54,-0.29,-1.34,-4.01,3.26,0.00,0.00,698.00,1170.00,438.00,1387.00,390.00,976.00,4095.00,4095.00,,,,,,,,,,,,0,0,0,,-4152,15188,3100,-15,13,-91
20.626,20.42,-0.73,-0.27,-0.26,-4.14,4.26,2.27,-1.41,0.00,0.00,710.00,1129.00,347.00,1390.00,448.00,863.00,4095.00,4095.00,,,,,,,,,,,,0,0,0,,-4144,15224,3096,-61,11,-261
20.687,20.47,-0.57,0.01,0.20,1.75,-0.81,2.47,-4.30,0.00,0.00,689.00,1103.00,410.00,1261.00,522.00,925.00,4095.00,4095.00,,,,,,,,,,,,0,0,0,,-4172,15244,2988,-121,98,-162
20.749,20.53,-0.82,1.25,-1.46,3.05,-4.65,-5.63,4.19,0.00,0.00,737.00,1098.00,493.00,1328.00,382.00,1015.00,4095.00,4095.00,,,,,,,,,,,,0,0,0,,-4076,15336,3120,-95,69,-143
20.811,20.58,-0.73,-3.24,2.20,-5.49,4.92,0.86,-0.43,0.00,0.00,656.00,1189.00,343.00,1440.00,436.00,889.00,4095.00,4095.00,,,,,,,,,,,,0,0,0,,-4092,15244,3248,-31,102,-222
20.934,20.64,-0.56,2.11,-1.06,0.13,0.20,2.84,-5.72,0.00,0.00,710.00,1050.00,400.00,1309.00,560.00,947.00,4095.00,4095.00,,,,,,,,,,,,0,0,0,,-4104,15144,2996,-39,79,-184
20.954,20.69,-0.75,0.94,-2.50,4.12,-6.17,-4.40,0.83,0.00,0.00,784.00,1143.00,525.00,1326.00,448.00,1058.00,4095.00,4095.00,,,,,,,,,,,,0,0,0,,-4056,15216,3120,-131,80,-117
20.995,20.75,-0.78,-3.66,1.95,-3.05,0.76,-1.31,0.73,0.00,0.00,670.00,1217.00,411.00,1462.00,426.00,939.00,4095.00,4095.00,,,,,,,,,,,,0,0,0,,-4156,15268,3032,-228,130,-150
21.015,20.80,-0.56,1.61,-1.95,-1.91,1.78,3.63,-5.52,0.00,0.00,752.00,1097.00,381.00,1360.00,546.00,913.00,4095.00,4095.00,,,,,,,,,,,,0,0,0,,-4120,15272,3096,-108,85,-149
21.077,20.86,-0.62,-0.02,-2.17,3.65,-4.89,-1.89,-1.32,0.00,0.00,784.00,1177.00,494.00,1305.00,481.00,1015.00,4095.00,4095.00,,,,,,,,,,,,0,0,0,,-4120,15372,3132,-118,152,-111
21.138,20.91,-0.83,-1.35,-0.03,-0.20,-1.83,-4.78,3.19,0.00,0.00,715.00,1171.00,449.00,1400.00,397.00,1008.00,4095.00,4095.00,,,,,,,,,,,,0,0,0,,-4036,15408,3108,-154,246,-183
21.179,20.97,-0.71,-1.25,0.15,-4.68,4.71,1.59,-1.14,0.00,0.00,707.00,1161.00,342.00,1403.00,447.00,880.00,4095.00,4095.00,,,,,,,,,,,,0,0,0,,-4180,15212,3032,-205,2,-178
21.241,21.02,-0.56,0.12,0.00,1.39,-0.69,2.37,-4.51,0.00,0.00,695.00,1104.00,410.00,1275.00,529.00,934.00,4095.00,4095.00,,,,,,,,,,,,0,0,0,,-4052,15144,3176,-131,103,-115
21.302,21.08,-0.83,1.61,-2.29,3.01,-4.71,-6.12,4.26,0.00,0.00,766.00,1107.00,495.00,1332.00,384.00,1033.00,4095.00,4095.00,,,,,,,,,,,,0,0,0,,-4140,15336,3240,-234,337,-131
21.364,21.13,-0.74,-3.31,2.42,-5.25,4.42,0.96,-0.30,0.00,0.00,649.00,1185.00,351.00,1446.00,432.00,882.00,4095.00,4095.00,,,,,,,,,,,,0,0,0,,-4120,15224,3028,-106,149,-200
21.426,21.19,-0.51,2.23,-1.20,1.46,-1.72,3.92,-5.79,0.00,0.00,714.00,1049.00,433.00,1307.00,551.00,909.00,4095.00,4095.00,,,,,,,,,,,,0,0,0,,-4072,15260,3256,-34,163,-191
21.489,21.24,-0.69,1.38,-2.95,3.95,-5.61,-4.10,0.77,0.00,0.00,797.00,1137.00,511.00,1315.00,447.00,1047.00,4095.00,4095.00,,,,,,,,,,,,0,0,0,,-4092,15064,3328,-6,299,-147
21.51,21.30,-0.71,-3.44,1.96,-2.70,0.74,-1.20,1.04,0.00,0.00,667.00,1206.00,409.00,1443.00,418.00,927.00,4095.00,4095.00,,,,,,,,,,,,0,0,0,,-3980,15220,3076,187,248,-132
21.572,21.35,-0.47,2.11,-2.05,-1.49,2.13,4.14,-5.07,0.00,0.00,749.00,1078.00,371.00,1325.00,528.00,884.00,4095.00,4095.00,,,,,,,,,,,,0,0,0,,-4064,15240,3028,61,231,-237
21.675,21.41,-0.51,0.91,-2.22,3.52,-4.00,-1.15,-1.22,0.00,0.00,773.00,1136.00,472.00,1281.00,472.00,983.00,4095.00,4095.00,,,,,,,,,,,,0,0,0,,-4212,15128,3024,-70,65,-242
21.696,21.46,-0.70,-0.31,-0.32,0.59,-1.89,-4.39,3.63,0.00,0.00,713.00,1133.00,444.00,1359.00,385.00,981.00,4095.00,4095.00,,,,,,,,,,,,0,0,0,,-4100,15228,3180,-147,84,-117
21.737,21.52,-0.58,-0.86,-0.14,-4.73,4.78,1.74,-1.11,0.00,0.00,713.00,1152.00,341.00,1403.00,445.00,874.00,4095.00,4095.00,,,,,,,,,,,,0,0,0,,-4180,15216,3252,-212,214,-93
21.8,21.57,-0.44,0.23,-0.06,1.74,-1.03,2.12,-4.53,0.00,0.00,696.00,1101.00,415.00,1269.00,532.00,944.00,4095.00,4095.00,,,,,,,,,,,,0,0,0,,-4204,15220,3264,-90,150,-99
21.841,21.63,-0.74,1.50,-2.64,3.05,-5.02,-6.32,3.67,0.00,0.00,782.00,1122.00,503.00,1341.00,398.00,1058.00,4095.00,4095.00,,,,,,,,,,,,0,0,0,,-4280,15308,2980,46,168,-68
21.901,21.68,-0.70,-4.33,2.54,-5.43,4.43,-0.09,-0.07,0.00,0.00,657.00,1230.00,352.00,1456.00,435.00,914.00,4095.00,4095.00,,,,,,,,,,,,0,0,0,,-4120,15180,3060,-5,212,-145
21.963,21.74,-0.51,0.89,-1.14,-0.56,0.47,3.27,-6.03,0.00,0.00,729.00,1104.00,399.00,1335.00,565.00,939.00,4095.00,4095.00,,,,,,,,,,,,0,0,0,,-4088,15248,2956,-109,148,-285
22.045,21.79,-0.70,0.90,-2.83,4.31,-6.37,-4.47,0.90,0.00,0.00,799.00,1155.00,529.00,1323.00,447.00,1059.00,4095.00,4095.00,,,,,,,,,,,,0,0,0,,-4236,15180,3312,-171,-30,-191
22.066,21.85,-0.73,-3.78,2.16,-2.60,0.43,-1.30,0.55,0.00,0.00,664.00,1216.00,415.00,1449.00,430.00,943.00,4095.00,4095.00,,,,,,,,,,,,0,0,0,,-4184,15168,3212,-126,173,-66
22.127,21.90,-0.48,1.17,-0.90,-2.13,2.34,4.29,-5.12,0.00,0.00,716.00,1085.00,371.00,1351.00,528.00,880.00,4095.00,4095.00,,,,,,,,,,,,0,0,0,,-4180,15352,3024,-83,268,-79
22.188,21.96,-0.47,1.01,-2.14,3.66,-3.73,-0.31,-1.55,0.00,0.00,768.00,1129.00,464.00,1265.00,473.00,959.00,4095.00,4095.00,,,,,,,,,,,,0,0,0,,-4144,15268,3056,-9,57,-87
22.271,22.01,-0.67,0.40,-0.51,1.27,-2.28,-4.41,3.92,0.00,0.00,711.00,1107.00,448.00,1337.00,379.00,974.00,4095.00,4095.00,,,,,,,,,,,,0,0,0,,-4212,15244,2944,-110,46,-215
22.292,22.07,-0.50,-0.61,0.01,-4.52,4.81,2.70,-1.35,0.00,0.00,704.00,1136.00,339.00,1390.00,443.00,847.00,4095.00,4095.00,,,,,,,,,,,,0,0,0,,-4228,15360,3136,-106,168,-159
22.334,22.12,-0.26,0.95,-0.09,1.48,-0.07,4.29,-5.12,0.00,0.00,688.00,1071.00,396.00,1250.00,528.00,880.00,4095.00,4095.00,,,,,,,,,,,,0,0,0,,-4096,15292,3120,-69,119,-169
22.396,22.18,-0.57,1.91,-2.47,3.49,-4.91,-6.47,4.52,0.00,0.00,769.00,1099.00,496.00,1314.00,381.00,1040.00,4095.00,4095.00,,,,,,,,,,,,0,0,0,,-4144,15196,3016,-80,98,-149
22.457,22.23,-0.52,-3.78,2.84,-5.02,4.29,0.56,-0.16,0.00,0.00,640.00,1194.00,352.00,1438.00,432.00,893.00,4095.00,4095.00,,,,,,,,,,,,0,0,0,,-4164,15224,3032,-83,138,-178
22.518,22.29,-0.29,1.19,-0.93,-0.76,1.06,3.95,-6.03,0.00,0.00,717.00,1085.00,388.00,1325.00,558.00,914.00,4095.00,4095.00,,,,,,,,,,,,0,0,0,,-4176,15264,2976,-74,121,-150
22.58,22.34,-0.47,1.06,-2.84,4.68,-6.46,-3.85,0.44,0.00,0.00,797.00,1148.00,528.00,1307.00,453.00,1046.00,4095.00,4095.00,,,,,,,,,,,,0,0,0,,-3988,15220,2944,-189,111,-157
22.64,22.40,-0.56,-3.58,1.93,-2.81,0.96,-2.20,1.59,0.00,0.00,670.00,1214.00,405.00,1441.00,413.00,950.00,4095.00,4095.00,,,,,,,,,,,,0,0,0,,-4144,15260,3112,-145,99,-136
22.68,22.45,-0.35,1.40,-1.88,-2.55,2.63,3.64,-4.83,0.00,0.00,752.00,1104.00,368.00,1363.00,526.00,896.00,4095.00,4095.00,,,,,,,,,,,,0,0,0,,-4128,15352,3076,-79,118,-111
22.804,22.51,-0.36,0.39,-1.98,3.21,-3.66,-0.64,-1.93,0.00,0.00,770.00,1152.00,466.00,1285.00,486.00,982.00,4095.00,4095.00,,,,,,,,,,,,0,0,0,,-4052,15416,3032,-66,180,-140
22.826,22.56,-0.67,-0.08,-0.73,1.65,-2.98,-6.54,4.30,0.00,0.00,726.00,1135.00,462.00,1342.00,386.00,1049.00,4095.00,4095.00,,,,,,,,,,,,0,0,0,,-4196,15188,2916,-244,-11,-230
22.846,22.62,-0.55,-1.40,0.30,-5.23,5.33,1.75,-0.90,0.00,0.00,703.00,1163.00,334.00,1410.00,440.00,869.00,4095.00,4095.00,,,,,,,,,,,,0,0,0,,-4092,15240,3216,-89,41,-106
22.909,22.67,-0.37,0.81,-0.10,1.52,-0.55,3.03,-4.63,0.00,0.00,690.00,1077.00,406.00,1264.00,526.00,913.00,4095.00,4095.00,,,,,,,,,,,,0,0,0,,-4112,15264,3208,-15,264,-140
22.969,22.73,-0.63,2.32,-2.79,3.59,-5.05,-5.55,3.78,0.00,0.00,777.00,1091.00,499.00,1314.00,390.00,1023.00,4095.00,4095.00,,,,,,,,,,,,0,0,0,,-4152,15356,3032,-50,99,-164
23.01,22.78,-0.59,-3.55,2.88,-4.68,4.23,0.25,0.37,0.00,0.00,636.00,1182.00,351.00,1421.00,422.00,891.00,4095.00,4095.00,,,,,,,,,,,,0,0,0,,-4088,15328,3104,13,116,-160
23.071,22.84,-0.33,1.79,-1.18,-0.59,1.14,4.46,-6.00,0.00,0.00,719.00,1067.00,385.00,1313.00,552.00,895.00,4095.00,4095.00,,,,,,,,,,,,0,0,0,,-4064,15072,3100,-93,155,-248
23.133,22.89,-0.48,1.48,-3.01,5.22,-6.50,-3.31,0.55,0.00,0.00,798.00,1134.00,524.00,1281.00,446.00,1021.00,4095.00,4095.00,,,,,,,,,,,,0,0,0,,-4180,15212,3092,-72,115,-119
23.175,22.95,-0.54,-3.44,1.99,-1.96,0.53,-1.74,1.71,0.00,0.00,666.00,1205.00,408.00,1409.00,407.00,930.00,4095.00,4095.00,,,,,,,,,,,,0,0,0,,-4120,15312,3108,-67,154,-185
23.215,23.00,-0.32,1.64,-1.59,-2.50,3.23,3.96,-4.34,0.00,0.00,737.00,1085.00,356.00,1339.00,509.00,873.00,4095.00,4095.00,,,,,,,,,,,,0,0,0,,-4152,15156,2892,-25,107,-163
23.276,23.06,-0.28,1.01,-2.04,3.48,-3.15,0.38,-2.01,0.00,0.00,764.00,1126.00,451.00,1254.00,479.00,945.00,4095.00,4095.00,,,,,,,,,,,,0,0,0,,-4264,15168,2936,-42,51,-194
23.338,23.11,-0.51,0.63,-0.82,1.42,-2.33,-4.89,3.99,0.00,0.00,720.00,1106.00,448.00,1331.00,381.00,991.00,4095.00,4095.00,,,,,,,,,,,,0,0,0,,-4120,15144,3120,-88,167,-131
23.379,23.17,-0.40,-1.33,0.33,-4.64,5.02,1.75,-0.78,0.00,0.00,701.00,1159.00,336.00,1389.00,437.00,866.00,4095.00,4095.00,,,,,,,,,,,,0,0,0,,-4176,15192,3020,-149,130,-150
23.441,23.22,-0.24,0.49,-0.07,1.26,-0.04,2.92,-5.08,0.00,0.00,693.00,1090.00,397.00,1260.00,540.00,928.00,4095.00,4095.00,,,,,,,,,,,,0,0,0,,-4232,15212,3080,-50,65,-159
23.565,23.28,-0.56,1.65,-2.85,3.54,-5.15,-6.70,3.98,0.00,0.00,789.00,1122.00,502.00,1320.00,394.00,1065.00,4095.00,4095.00,,,,,,,,,,,,0,0,0,,-4044,15296,3036,-73,108,-131
23.585,23.33,-0.56,-4.05,2.59,-4.77,3.74,-0.66,0.21,0.00,0.00,652.00,1215.00,361.00,1445.00,433.00,928.00,4095.00,4095.00,,,,,,,,,,,,0,0,0,,-4064,15440,2996,-104,199,-221
23.625,23.39,-0.34,1.24,-1.30,-0.94,1.26,3.86,-6.07,0.00,0.00,731.00,1094.00,385.00,1327.00,560.00,918.00,4095.00,4095.00,,,,,,,,,,,,0,0,0,,-4212,15196,3128,-177,-38,-223
23.667,23.44,-0.52,1.11,-2.97,4.15,-5.68,-3.91,0.75,0.00,0.00,802.00,1150.00,511.00,1307.00,446.00,1040.00,4095.00,4095.00,,,,,,,,,,,,0,0,0,,-4140,15204,3276,-103,87,-119
23.73,23.50,-0.59,-3.15,2.00,-2.13,0.41,-1.91,1.77,0.00,0.00,662.00,1191.00,412.00,1423.00,407.00,935.00,4095.00,4095.00,,,,,,,,,,,,0,0,0,,-4112,15168,3180,-123,307,-92
23.793,23.55,-0.36,1.66,-1.55,-2.50,3.23,3.99,-4.13,0.00,0.00,735.00,1083.00,356.00,1339.00,503.00,867.00,4095.00,4095.00,,,,,,,,,,,,0,0,0,,-4024,15296,3044,-38,87,-165
23.877,23.61,-0.28,1.20,-1.79,3.48,-2.94,1.19,-2.28,0.00,0.00,751.00,1110.00,446.00,1247.00,479.00,922.00,4095.00,4095.00,,,,,,,,,,,,0,0,0,,-4016,15192,3120,59,97,-228
23.896,23.66,-0.51,1.15,-0.97,1.78,-2.41,-4.73,4.33,0.00,0.00,719.00,1088.00,447.00,1315.00,373.00,976.00,4095.00,4095.00,,,,,,,,,,,,0,0,0,,-4140,15168,3216,51,194,-216
23.936,23.72,-0.36,-0.93,0.49,-4.57,5.11,2.41,-0.74,0.00,0.00,690.00,1136.00,334.00,1382.00,431.00,843.00,4095.00,4095.00,,,,,,,,,,,,0,0,0,,-4064,15224,3000,-14,98,-181
23.998,23.77,-0.19,1.22,-0.20,1.70,0.13,3.12,-4.73,0.00,0.00,689.00,1063.00,390.00,1232.00,528.00,912.00,4095.00,4095.00,,,,,,,,,,,,0,0,0,,-4192,15212,2964,-105,-8,-178
24.059,23.83,-0.48,2.19,-2.92,3.85,-4.92,-5.97,3.97,0.00,0.00,784.00,1100.00,493.00,1296.00,389.00,1035.00,4095.00,4095.00,,,,,,,,,,,,0,0,0,,-4204,15220,3128,-85,112,-167
24.12,23.88,-0.48,-3.97,2.93,-4.41,3.62,-0.51,0.63,0.00,0.00,639.00,1200.00,361.00,1429.00,422.00,912.00,4095.00,4095.00,,,,,,,,,,,,0,0,0,,-4156,15296,2992,-134,159,-172
24.243,23.94,-0.27,1.56,-1.26,-0.87,1.72,3.72,-5.85,0.00,0.00,725.00,1079.00,375.00,1307.00,555.00,918.00,4095.00,4095.00,,,,,,,,,,,,0,0,0,,-4100,15264,3036,-171,-55,-224
24.264,23.99,-0.46,0.46,-2.57,4.32,-5.70,-4.16,0.79,0.00,0.00,794.00,1167.00,510.00,1299.00,447.00,1049.00,4095.00,4095.00,,,,,,,,,,,,0,0,0,,-4128,15356,3132,-153,-113,-224
24.284,24.05,-0.57,-3.22,1.67,-2.20,0.57,-2.53,1.89,0.00,0.00,675.00,1205.00,409.00,1421.00,409.00,955.00,4095.00,4095.00,,,,,,,,,,,,0,0,0,,-4112,15156,3328,-67,21,-171
24.327,24.10,-0.36,1.10,-1.78,-2.92,3.27,3.54,-4.27,0.00,0.00,752.00,1114.00,358.00,1360.00,511.00,886.00,4095.00,4095.00,,,,,,,,,,,,0,0,0,,-4132,15140,2888,-69,22,-321
24.368,24.16,-0.33,0.20,-1.70,3.02,-2.91,0.17,-2.24,0.00,0.00,761.00,1152.00,449.00,1269.00,487.00,959.00,4095.00,4095.00,,,,,,,,,,,,0,0,0,,-4184,15232,3048,-65,75,-296
24.431,24.21,-0.57,0.42,-0.98,1.82,-2.83,-5.02,4.03,0.00,0.00,729.00,1120.00,457.00,1328.00,381.00,995.00,4095.00,4095.00,,,,,,,,,,,,0,0,0,,-4124,15244,3224,-178,55,-143
24.493,24.27,-0.44,-3.27,2.87,-5.12,5.57,2.05,-1.13,0.00,0.00,633.00,1169.00,329.00,1395.00,443.00,864.00,4095.00,4095.00,,,,,,,,,,,,0,0,0,,-4028,15220,3048,-126,192,-94
24.555,24.32,-0.26,0.99,-0.18,1.61,-0.21,3.16,-4.74,0.00,0.00,691.00,1072.00,398.00,1248.00,528.00,911.00,4095.00,4095.00,,,,,,,,,,,,0,0,0,,-4104,15216,3116,-148,142,-204
24.616,24.38,-0.53,2.04,-2.87,3.99,-5.34,-5.65,4.01,0.00,0.00,784.00,1105.00,503.00,1303.00,386.00,1021.00,4095.00,4095.00,,,,,,,,,,,,0,0,0,,-4068,15188,3176,-130,5,-76
24.657,24.43,-0.52,-3.50,2.80,-3.82,3.01,-0.32,0.35,0.00,0.00,638.00,1182.00,369.00,1419.00,427.00,912.00,4095.00,4095.00,,,,,,,,,,,,0,0,0,,-4108,15356,3180,-84,131,-194
24.697,24.49,-0.28,1.88,-1.39,-0.72,1.33,4.26,-5.87,0.00,0.00,726.00,1069.00,382.00,1313.00,550.00,899.00,4095.00,4095.00,,,,,,,,,,,,0,0,0,,-4236,15188,3064,-20,191,-152
24.78,24.54,-0.42,1.27,-2.96,4.34,-5.56,-3.17,0.75,0.00,0.00,799.00,1142.00,506.00,1293.00,440.00,1010.00,4095.00,4095.00,,,,,,,,,,,,0,0,0,,-4200,15240,3276,-47,108,-110
24.821,24.60,-0.53,-2.62,1.46,-1.51,0.15,-2.48,2.38,0.00,0.00,675.00,1183.00,413.00,1398.00,398.00,941.00,4095.00,4095.00,,,,,,,,,,,,0,0,0,,-4128,15236,3032,-38,141,-114
24.881,24.65,-0.32,1.38,-1.48,-1.13,1.37,3.62,-3.74,0.00,0.00,736.00,1093.00,384.00,1333.00,496.00,871.00,4095.00,4095.00,,,,,,,,,,,,0,0,0,,-4228,15108,3004,-82,143,-118
24.985,24.71,-0.27,0.59,-1.39,2.58,-1.79,0.73,-2.13,0.00,0.00,743.00,1125.00,426.00,1253.00,479.00,935.00,4095.00,4095.00,,,,,,,,,,,,0,0,0,,-4168,15240,2928,-121,82,-103
25.005,24.76,-0.53,0.70,-1.22,1.90,-2.90,-5.46,4.28,0.00,0.00,735.00,1115.00,458.00,1326.00,379.00,1006.00,4095.00,4095.00,,,,,,,,,,,,0,0,0,,-4072,15300,3116,-146,134,-156
25.047,24.82,-0.43,-1.54,0.64,-5.05,5.38,1.41,-0.66,0.00,0.00,692.00,1159.00,332.00,1398.00,437.00,875.00,4095.00,4095.00,,,,,,,,,,,,0,0,0,,-4096,15204,3092,-50,189,-140
25.087,24.87,-0.29,0.81,-0.46,1.35,-0.12,2.45,-4.99,0.00,0.00,704.00,1088.00,398.00,1258.00,542.00,943.00,4095.00,4095.00,,,,,,,,,,,,0,0,0,,-4084,15224,3056,0,202,-78
25.15,24.93,-0.61,1.34,-2.87,3.85,-5.58,-6.79,4.39,0.00,0.00,794.00,1136.00,511.00,1319.00,386.00,1057.00,4095.00,4095.00,,,,,,,,,,,,0,0,0,,-4160,15392,3052,-62,271,-114
25.211,24.98,-0.63,-4.01,2.38,-4.19,3.19,-1.04,0.21,0.00,0.00,659.00,1220.00,368.00,1433.00,436.00,942.00,4095.00,4095.00,,,,,,,,,,,,0,0,0,,-4124,15172,3092,-193,60,-211
25.254,25.04,-0.40,1.54,-1.50,-0.82,1.32,3.91,-6.02,0.00,0.00,735.00,1087.00,383.00,1319.00,558.00,915.00,4095.00,4095.00,,,,,,,,,,,,0,0,0,,-4056,15120,3096,-41,93,-129
25.358,25.09,-0.55,0.57,-2.70,4.50,-5.65,-3.38,0.66,0.00,0.00,798.00,1166.00,507.00,1288.00,444.00,1021.00,4095.00,4095.00,,,,,,,,,,,,0,0,0,,-4092,15296,3060,-102,318,-176
25.379,25.15,-0.65,-2.75,1.54,-2.01,0.82,-2.43,2.22,0.00,0.00,674.00,1187.00,402.00,1401.00,401.00,943.00,4095.00,4095.00,,,,,,,,,,,,0,0,0,,-4232,15200,3052,-9,205,-201
25.44,25.20,-0.44,1.42,-1.54,-3.23,4.27,3.44,-3.31,0.00,0.00,738.00,1093.00,341.00,1340.00,486.00,867.00,4095.00,4095.00,,,,,,,,,,,,0,0,0,,-4056,15188,2964,2,121,-144
25.481,25.26,-0.36,0.18,-0.62,2.50,-1.37,1.18,-2.36,0.00,0.00,718.00,1120.00,417.00,1243.00,481.00,924.00,4095.00,4095.00,,,,,,,,,,,,0,0,0,,-4152,15224,3072,-21,227,-265
25.543,25.31,-0.58,0.92,-1.17,2.27,-2.82,-4.79,4.15,0.00,0.00,730.00,1104.00,453.00,1304.00,377.00,983.00,4095.00,4095.00,,,,,,,,,,,,0,0,0,,-4236,15132,2964,-28,122,-183
25.584,25.37,-0.44,-1.78,0.83,-4.83,5.93,2.28,-1.12,0.00,0.00,688.00,1164.00,321.00,1366.00,441.00,856.00,4095.00,4095.00,,,,,,,,,,,,0,0,0,,-4192,15224,2996,-62,130,-139
25.646,25.42,-0.25,1.11,-0.33,1.54,-0.05,3.28,-5.16,0.00,0.00,695.00,1071.00,395.00,1246.00,539.00,917.00,4095.00,4095.00,,,,,,,,,,,,0,0,0,,-4052,15132,2848,1,175,-199
25.727,25.48,-0.53,1.90,-3.12,4.46,-5.67,-5.69,3.41,0.00,0.00,797.00,1119.00,508.00,1291.00,399.00,1039.00,4095.00,4095.00,,,,,,,,,,,,0,0,0,,-4260,15136,3024,-95,117,-151
25.748,25.53,-0.55,-3.81,2.48,-3.48,2.45,-0.96,0.56,0.00,0.00,653.00,1207.00,378.00,1421.00,427.00,930.00,4095.00,4095.00,,,,,,,,,,,,0,0,0,,-4144,15264,2980,-140,113,-117
25.809,25.59,-0.32,1.52,-1.73,-0.64,1.30,3.97,-6.10,0.00,0.00,744.00,1094.00,382.00,1310.00,560.00,915.00,4095.00,4095.00,,,,,,,,,,,,0,0,0,,-4172,15180,3016,-158,112,-145
25.87,25.64,-0.50,0.63,-2.97,4.38,-5.76,-3.86,0.57,0.00,0.00,809.00,1172.00,511.00,1298.00,450.00,1043.00,4095.00,4095.00,,,,,,,,,,,,0,0,0,,-4048,15132,3060,-94,114,-86
25.91,25.70,-0.69,-3.22,1.40,-1.74,0.23,-4.27,3.68,0.00,0.00,685.00,1214.00,413.00,1408.00,383.00,975.00,4095.00,4095.00,,,,,,,,,,,,0,0,0,,-4068,15124,3008,-94,161,-129
25.972,25.75,-0.50,0.53,-1.56,-3.40,4.11,3.08,-3.97,0.00,0.00,751.00,1133.00,345.00,1355.00,507.00,895.00,4095.00,4095.00,,,,,,,,,,,,0,0,0,,-4084,15256,2980,-153,119,-296
26.034,25.81,-0.44,-0.30,-0.51,2.42,-1.52,0.72,-2.43,0.00,0.00,720.00,1138.00,421.00,1252.00,487.00,943.00,4095.00,4095.00,,,,,,,,,,,,0,0,0,,-4180,15144,3028,-131,-12,-162
26.139,25.86,-0.68,1.09,-1.43,1.90,-2.70,-5.20,4.19,0.00,0.00,738.00,1104.00,453.00,1319.00,379.00,998.00,4095.00,4095.00,,,,,,,,,,,,0,0,0,,-4116,15192,3192,-76,198,-120
26.158,25.92,-0.53,-2.03,1.24,-5.18,5.87,2.24,-0.98,0.00,0.00,676.00,1163.00,324.00,1387.00,438.00,854.00,4095.00,4095.00,,,,,,,,,,,,0,0,0,,-4084,15240,3104,-57,224,-168
26.199,25.97,-0.32,1.39,-0.53,1.69,-0.01,3.73,-5.42,0.00,0.00,699.00,1065.00,393.00,1237.00,542.00,907.00,4095.00,4095.00,,,,,,,,,,,,0,0,0,,-4196,15148,3016,-32,22,-128
26.26,26.03,-0.56,2.01,-2.86,4.00,-5.12,-5.22,3.62,0.00,0.00,784.00,1106.00,497.00,1295.00,391.00,1014.00,4095.00,4095.00,,,,,,,,,,,,0,0,0,,-4140,15240,3208,-78,70,-219
26.322,26.08,-0.56,-3.00,2.09,-3.39,2.77,-0.48,0.75,0.00,0.00,657.00,1181.00,371.00,1404.00,419.00,908.00,4095.00,4095.00,,,,,,,,,,,,0,0,0,,-4152,15236,3084,-120,189,-125
26.384,26.14,-0.32,1.96,-1.55,0.06,1.31,4.28,-5.74,0.00,0.00,731.00,1070.00,377.00,1274.00,546.00,895.00,4095.00,4095.00,,,,,,,,,,,,0,0,0,,-4164,15268,3088,-130,127,-132
26.446,26.19,-0.45,1.05,-2.53,4.53,-5.26,-2.89,0.45,0.00,0.00,784.00,1139.00,496.00,1273.00,445.00,1007.00,4095.00,4095.00,,,,,,,,,,,,0,0,0,,-4072,15272,3204,-124,81,-130
26.467,26.25,-0.56,-2.23,1.14,-1.11,-0.02,-2.75,2.60,0.00,0.00,682.00,1175.00,414.00,1383.00,395.00,945.00,4095.00,4095.00,,,,,,,,,,,,0,0,0,,-4120,15128,3072,-95,109,-141
26.508,26.30,-0.37,1.09,-1.45,-3.29,4.51,3.32,-2.96,0.00,0.00,739.00,1105.00,337.00,1335.00,478.00,863.00,4095.00,4095.00,,,,,,,,,,,,0,0,0,,-4208,15252,3116,-114,93,-164
26.569,26.36,-0.27,-0.02,-0.29,2.21,-0.92,1.56,-3.31,0.00,0.00,708.00,1119.00,409.00,1242.00,503.00,934.00,4095.00,4095.00,,,,,,,,,,,,0,0,0,,-4088,15188,3176,-163,69,-132
26.631,26.41,-0.54,1.19,-1.64,2.19,-3.04,-5.57,4.37,0.00,0.00,745.00,1106.00,459.00,1316.00,378.00,1008.00,4095.00,4095.00,,,,,,,,,,,,0,0,0,,-4144,15224,3052,-130,89,-144
26.692,26.47,-0.44,-2.11,0.76,-5.12,5.57,1.30,-0.58,0.00,0.00,695.00,1182.00,329.00,1395.00,436.00,877.00,4095.00,4095.00,,,,,,,,,,,,0,0,0,,-4200,15240,3036,-93,58,-103
26.753,26.52,-0.27,0.95,-0.64,1.33,-0.21,3.01,-5.41,0.00,0.00,709.00,1087.00,400.00,1262.00,549.00,933.00,4095.00,4095.00,,,,,,,,,,,,0,0,0,,-4096,15332,3132,-154,186,-176
26.814,26.58,-0.53,1.65,-3.31,4.30,-5.59,-5.47,3.01,0.00,0.00,809.00,1136.00,507.00,1296.00,406.00,1041.00,4095.00,4095.00,,,,,,,,,,,,0,0,0,,-4172,15264,3056,-179,13,-195
26.854,26.63,-0.54,-3.11,1.66,-3.09,1.89,-0.82,0.47,0.00,0.00,674.00,1200.00,387.00,1421.00,428.00,927.00,4095.00,4095.00,,,,,,,,,,,,0,0,0,,-4224,15212,3360,-14,111,-114
26.896,26.69,-0.30,2.01,-1.69,-0.70,1.47,4.34,-5.83,0.00,0.00,736.00,1072.00,379.00,1307.00,548.00,895.00,4095.00,4095.00,,,,,,,,,,,,0,0,0,,-4124,15240,3024,26,266,-170
26.958,26.74,-0.41,1.28,-2.78,4.77,-5.38,-2.48,0.39,0.00,0.00,791.00,1136.00,497.00,1265.00,443.00,992.00,4095.00,4095.00,,,,,,,,,,,,0,0,0,,-4104,15188,2916,0,51,-191
27.019,26.80,-0.52,-1.76,0.91,-0.87,0.07,-2.54,3.05,0.00,0.00,685.00,1161.00,410.00,1366.00,384.00,926.00,4095.00,4095.00,,,,,,,,,,,,0,0,0,,-4012,15240,3120,-62,119,-149
27.082,26.85,-0.30,1.11,-0.98,-3.14,4.57,3.79,-2.61,0.00,0.00,720.00,1090.00,335.00,1325.00,465.00,839.00,4095.00,4095.00,,,,,,,,,,,,0,0,0,,-4044,15160,2936,-104,186,-181
27.125,26.91,-0.21,0.70,-0.38,2.49,-0.60,1.51,-2.31,0.00,0.00,702.00,1090.00,400.00,1218.00,477.00,911.00,4095.00,4095.00,,,,,,,,,,,,0,0,0,,-4164,15236,3088,-88,109,-171
27.187,26.96,-0.45,1.67,-1.50,2.45,-2.68,-5.07,4.79,0.00,0.00,733.00,1081.00,448.00,1290.00,366.00,977.00,4095.00,4095.00,,,,,,,,,,,,0,0,0,,-4172,15336,3000,-94,90,-149
27.227,27.02,-0.31,-2.19,1.38,-6.58,6.52,2.45,-0.63,0.00,0.00,673.00,1166.00,321.00,1441.00,428.00,839.00,4095.00,4095.00,,,,,,,,,,,,0,0,0,,-4216,15256,3084,-76,126,-157
27.289,27.07,-0.11,1.79,-0.56,1.73,0.36,3.55,-5.12,0.00,0.00,695.00,1049.00,385.00,1223.00,535.00,906.00,4095.00,4095.00,,,,,,,,,,,,0,0,0,,-4112,15264,3128,-28,107,-177
27.371,27.13,-0.35,1.63,-2.73,4.27,-5.17,-4.88,2.90,0.00,0.00,784.00,1119.00,496.00,1283.00,404.00,1020.00,4095.00,4095.00,,,,,,,,,,,,0,0,0,,-4056,15204,3028,-143,92,-200
27.392,27.18,-0.36,-3.07,1.75,-2.94,1.98,-0.57,0.48,0.00,0.00,670.00,1195.00,384.00,1409.00,426.00,918.00,4095.00,4095.00,,,,,,,,,,,,0,0,0,,-4188,15168,2992,-207,75,-128
27.454,27.24,-0.14,1.93,-1.81,-0.54,1.46,4.11,-5.62,0.00,0.00,742.00,1079.00,378.00,1299.00,544.00,898.00,4095.00,4095.00,,,,,,,,,,,,0,0,0,,-4176,15276,3300,-74,87,-86
27.558,27.29,-0.28,0.38,-2.45,4.48,-5.24,-2.87,0.15,0.00,0.00,790.00,1167.00,496.00,1275.00,452.00,1014.00,4095.00,4095.00,,,,,,,,,,,,0,0,0,,-4084,15160,3208,-13,202,-126
27.578,27.35,-0.42,-2.50,1.10,-0.87,-0.19,-3.09,2.95,0.00,0.00,687.00,1189.00,416.00,1376.00,390.00,949.00,4095.00,4095.00,,,,,,,,,,,,0,0,0,,-4156,15136,2912,-85,67,-293
27.62,27.40,-0.23,0.71,-1.10,-3.25,4.39,3.36,-2.51,0.00,0.00,730.00,1111.00,339.00,1337.00,466.00,851.00,4095.00,4095.00,,,,,,,,,,,,0,0,0,,-4116,15124,3176,-27,14,-126
27.68,27.46,-0.13,0.37,-0.37,2.27,-0.53,1.75,-2.70,0.00,0.00,706.00,1104.00,400.00,1226.00,485.00,912.00,4095.00,4095.00,,,,,,,,,,,,0,0,0,,-4084,15244,3148,-55,257,-99
27.721,27.51,-0.38,1.90,-1.70,2.52,-2.99,-5.13,4.91,0.00,0.00,738.00,1077.00,455.00,1297.00,364.00,976.00,4095.00,4095.00,,,,,,,,,,,,0,0,0,,-4120,15220,3064,-67,163,-181
27.783,27.57,-0.23,-1.92,1.40,-4.83,5.93,2.61,-0.64,0.00,0.00,669.00,1153.00,321.00,1366.00,427.00,834.00,4095.00,4095.00,,,,,,,,,,,,0,0,0,,-4196,15172,3056,24,59,-107
27.846,27.62,-0.01,2.48,-0.92,1.61,0.69,4.09,-5.13,0.00,0.00,700.00,1031.00,379.00,1218.00,530.00,887.00,4095.00,4095.00,,,,,,,,,,,,0,0,0,,-4204,15312,3208,-57,151,-244
27.928,27.68,-0.24,2.22,-2.93,4.76,-5.34,-4.47,2.81,0.00,0.00,784.00,1099.00,496.00,1264.00,403.00,1006.00,4095.00,4095.00,,,,,,,,,,,,0,0,0,,-4080,15300,2888,-56,156,-157
27.948,27.73,-0.26,-2.51,1.59,-2.38,1.84,-0.63,1.38,0.00,0.00,669.00,1174.00,383.00,1383.00,406.00,898.00,4095.00,4095.00,,,,,,,,,,,,0,0,0,,-4100,15204,3104,-94,83,-175
28.05,27.79,-0.03,2.50,-1.88,-0.39,1.91,4.21,-5.16,0.00,0.00,737.00,1057.00,368.00,1276.00,530.00,884.00,4095.00,4095.00,,,,,,,,,,,,0,0,0,,-4176,15172,3124,-106,68,-191
28.07,27.84,-0.18,0.94,-2.50,4.93,-5.02,-3.06,0.84,0.00,0.00,784.00,1143.00,486.00,1245.00,437.00,1003.00,4095.00,4095.00,,,,,,,,,,,,0,0,0,,-4164,15172,3040,-133,42,-172
28.132,27.90,-0.34,-1.89,0.87,-0.48,-0.06,-3.36,3.67,0.00,0.00,688.00,1168.00,410.00,1350.00,377.00,941.00,4095.00,4095.00,,,,,,,,,,,,0,0,0,,-4096,15180,2968,-119,93,-157
28.172,27.95,-0.20,0.80,-1.03,-3.17,4.52,2.50,-1.32,0.00,0.00,726.00,1105.00,336.00,1328.00,444.00,853.00,4095.00,4095.00,,,,,,,,,,,,0,0,0,,-4172,15164,3144,-117,113,-174
28.234,28.01,-0.13,-0.97,1.24,2.31,-0.68,1.29,-2.47,0.00,0.00,663.00,1115.00,403.00,1229.00,483.00,923.00,4095.00,4095.00,,,,,,,,,,,,0,0,0,,-4160,15188,3076,-18,81,-138
28.296,28.06,-0.41,1.40,-1.88,2.80,-3.28,-5.77,4.88,0.00,0.00,752.00,1104.00,460.00,1293.00,369.00,1002.00,4095.00,4095.00,,,,,,,,,,,,0,0,0,,-4156,15332,2968,31,84,-125
28.357,28.12,-0.30,-2.70,1.52,-4.12,4.52,1.68,-0.54,0.00,0.00,674.00,1185.00,342.00,1379.00,432.00,863.00,4095.00,4095.00,,,,,,,,,,,,0,0,0,,-4160,15324,3064,-11,106,-162
28.399,28.17,-0.12,1.74,-0.83,1.63,0.40,3.31,-4.97,0.00,0.00,706.00,1059.00,385.00,1227.00,533.00,911.00,4095.00,4095.00,,,,,,,,,,,,0,0,0,,-4088,15168,3132,-111,-22,-256
28.461,28.23,-0.33,1.54,-2.70,4.41,-5.10,-4.19,2.22,0.00,0.00,784.00,1122.00,493.00,1274.00,414.00,1011.00,4095.00,4095.00,,,,,,,,,,,,0,0,0,,-4164,15292,3172,43,40,-166
28.523,28.28,-0.33,-2.57,1.59,-2.36,1.98,-0.48,1.33,0.00,0.00,670.00,1177.00,380.00,1377.00,406.00,894.00,4095.00,4095.00,,,,,,,,,,,,0,0,0,,-4144,15216,2952,26,174,-162
28.564,28.34,-0.08,2.81,-1.98,0.06,2.01,4.81,-5.16,0.00,0.00,737.00,1047.00,363.00,1250.00,524.00,863.00,4095.00,4095.00,,,,,,,,,,,,0,0,0,,-4088,15244,2916,-85,57,-227
28.709,28.39,-0.16,0.90,-2.15,5.01,-4.23,-1.81,0.59,0.00,0.00,770.00,1134.00,465.00,1215.00,433.00,961.00,4095.00,4095.00,,,,,,,,,,,,0,0,0,,-4176,15348,3112,-78,-51,-160
28.73,28.45,-0.28,-1.32,0.86,-0.36,0.68,-2.42,3.45,0.00,0.00,681.00,1142.00,393.00,1317.00,375.00,912.00,4095.00,4095.00,,,,,,,,,,,,0,0,0,,-4200,15160,3240,-123,91,-215
28.75,28.50,-0.10,0.92,-0.74,-2.96,5.41,3.22,-1.19,0.00,0.00,713.00,1091.00,319.00,1286.00,435.00,826.00,4095.00,4095.00,,,,,,,,,,,,0,0,0,,-4200,15336,2976,-126,135,-179
28.771,28.56,0.03,0.51,-0.13,3.03,-0.03,2.55,-3.31,0.00,0.00,695.00,1091.00,384.00,1174.00,494.00,898.00,4095.00,4095.00,,,,,,,,,,,,0,0,0,,-4160,15172,3036,-83,123,-124
28.834,28.61,-0.23,2.13,-2.10,3.50,-3.03,-5.24,5.31,0.00,0.00,751.00,1079.00,448.00,1249.00,357.00,970.00,4095.00,4095.00,,,,,,,,,,,,0,0,0,,-4144,15168,2880,-130,91,-144
28.895,28.67,-0.11,-2.07,1.42,-4.89,6.59,2.22,-0.11,0.00,0.00,670.00,1159.00,310.00,1345.00,418.00,835.00,4095.00,4095.00,,,,,,,,,,,,0,0,0,,-4252,15048,2928,-238,-10,-151
28.936,28.72,0.08,2.34,-1.01,1.83,0.86,3.70,-4.93,0.00,0.00,705.00,1039.00,374.00,1202.00,528.00,896.00,4095.00,4095.00,,,,,,,,,,,,0,0,0,,-4056,15184,3136,-303,27,-99
29.038,28.78,-0.18,1.28,-2.61,4.22,-4.35,-5.09,3.58,0.00,0.00,784.00,1131.00,475.00,1258.00,391.00,1010.00,4095.00,4095.00,,,,,,,,,,,,0,0,0,,-4244,15276,3112,-284,147,-77
29.058,28.83,-0.22,-2.91,1.65,-2.51,1.93,-0.98,1.32,0.00,0.00,672.00,1191.00,382.00,1387.00,410.00,912.00,4095.00,4095.00,,,,,,,,,,,,0,0,0,,-4052,15160,3120,-217,165,-73
29.099,28.89,-0.02,2.09,-2.11,-0.71,2.47,3.71,-4.89,0.00,0.00,752.00,1081.00,359.00,1273.00,527.00,895.00,4095.00,4095.00,,,,,,,,,,,,0,0,0,,-4200,15236,3052,-326,69,-104
29.16,28.94,-0.14,0.37,-2.40,4.40,-4.18,-2.34,0.31,0.00,0.00,788.00,1166.00,469.00,1243.00,444.00,989.00,4095.00,4095.00,,,,,,,,,,,,0,0,0,,-4096,15188,3076,-347,56,-207
29.222,29.00,-0.31,-1.72,0.65,0.10,-0.30,-3.59,3.85,0.00,0.00,694.00,1167.00,411.00,1328.00,375.00,945.00,4095.00,4095.00,,,,,,,,,,,,0,0,0,,-4168,15020,3244,-328,31,-91
29.282,29.05,-0.16,0.54,-0.71,-3.41,5.33,2.75,-1.15,0.00,0.00,717.00,1107.00,323.00,1312.00,438.00,841.00,4095.00,4095.00,,,,,,,,,,,,0,0,0,,-4156,15180,3372,-318,169,-47
29.323,29.11,-0.01,0.51,-0.10,2.47,-0.08,2.81,-3.73,0.00,0.00,694.00,1090.00,389.00,1202.00,503.00,899.00,4095.00,4095.00,,,,,,,,,,,,0,0,0,,-4044,15252,3236,-319,266,-66
29.384,29.16,-0.28,2.16,-2.11,3.36,-3.27,-5.52,5.46,0.00,0.00,751.00,1078.00,455.00,1264.00,356.00,977.00,4095.00,4095.00,,,,,,,,,,,,0,0,0,,-4056,15196,3332,-211,110,31
29.446,29.22,-0.17,-2.29,2.14,-4.73,6.30,2.07,0.21,0.00,0.00,647.00,1147.00,314.00,1347.00,412.00,833.00,4095.00,4095.00,,,,,,,,,,,,0,0,0,,-4012,15320,3340,-89,55,-226
29.508,29.27,0.04,3.10,-1.08,1.86,0.61,4.05,-4.97,0.00,0.00,698.00,1010.00,379.00,1209.00,526.00,885.00,4095.00,4095.00,,,,,,,,,,,,0,0,0,,-4052,15276,3288,-40,153,-214
29.549,29.33,-0.14,1.78,-2.45,4.59,-4.52,-3.65,1.86,0.00,0.00,770.00,1104.00,476.00,1245.00,418.00,999.00,4095.00,4095.00,,,,,,,,,,,,0,0,0,,-4000,15148,3196,38,194,-149
29.611,29.38,-0.17,-2.71,1.88,-2.21,2.03,-0.76,1.70,0.00,0.00,661.00,1174.00,378.00,1367.00,400.00,895.00,4095.00,4095.00,,,,,,,,,,,,0,0,0,,-4104,15172,3184,-62,203,-133
29.673,29.44,0.04,2.44,-1.84,-0.64,2.66,4.13,-4.28,0.00,0.00,736.00,1058.00,355.00,1263.00,506.00,866.00,4095.00,4095.00,,,,,,,,,,,,0,0,0,,-4088,15160,3164,-205,176,-114
29.757,29.49,-0.05,0.70,-1.91,4.87,-3.90,-1.81,0.26,0.00,0.00,763.00,1136.00,458.00,1211.00,441.00,970.00,4095.00,4095.00,,,,,,,,,,,,0,0,0,,-3956,15124,3236,-308,154,-133
29.778,29.55,-0.24,-1.64,0.78,0.47,-0.42,-3.76,4.25,0.00,0.00,688.00,1159.00,411.00,1313.00,368.00,941.00,4095.00,4095.00,,,,,,,,,,,,0,0,0,,-4116,15236,3396,-243,162,-120
29.819,29.60,-0.10,-0.13,-0.23,-3.54,5.32,2.40,-0.95,0.00,0.00,707.00,1122.00,324.00,1319.00,436.00,848.00,4095.00,4095.00,,,,,,,,,,,,0,0,0,,-4044,15240,3236,-183,117,-134
29.88,29.66,-0.00,0.25,0.15,2.63,-0.32,1.96,-3.30,0.00,0.00,688.00,1094.00,393.00,1202.00,499.00,919.00,4095.00,4095.00,,,,,,,,,,,,0,0,0,,-3964,15300,3424,-40,187,-159
29.94,29.71,-0.28,1.55,-2.10,3.32,-3.62,-5.57,4.51,0.00,0.00,759.00,1104.00,464.00,1278.00,375.00,1004.00,4095.00,4095.00,,,,,,,,,,,,0,0,0,,-4048,15300,3152,-47,234,-151
29.982,29.77,-0.18,-3.24,2.20,-4.79,5.97,1.64,-0.22,0.00,0.00,656.00,1189.00,320.00,1362.00,425.00,857.00,4095.00,4095.00,,,,,,,,,,,,0,0,0,,-4188,15176,3348,-196,62,-162
30.045,29.82,0.01,2.25,-1.24,2.71,1.12,3.75,-5.11,0.00,0.00,715.00,1049.00,363.00,1153.00,533.00,899.00,4095.00,4095.00,,,,,,,,,,,,1,0,0,,-4024,15096,3500,-141,147,-30
30.127,29.88,-0.17,1.11,-2.29,4.71,-5.06,-3.62,1.90,0.00,0.00,773.00,1129.00,489.00,1257.00,417.00,997.00,4095.00,4095.00,,,,,,,,,,,,1,0,0,,-4036,15244,3372,-100,269,-100
30.148,29.93,-0.17,-3.00,2.09,-2.21,1.98,-0.23,1.25,0.00,0.00,657.00,1181.00,379.00,1369.00,406.00,887.00,4095.00,4095.00,,,,,,,,,,,,1,0,0,,-4008,15196,3236,-105,112,-162
30.21,29.99,0.06,2.44,-2.01,-0.62,2.60,4.43,-4.42,0.00,0.00,743.00,1063.00,356.00,1264.00,507.00,859.00,4095.00,4095.00,,,,,,,,,,,,1,0,0,,-3920,15208,3404,-4,113,-141
30.25,30.04,0.00,1.18,-2.12,5.01,-4.07,-1.02,-0.09,0.00,0.00,765.00,1121.00,461.00,1210.00,443.00,949.00,4095.00,4095.00,,,,,,,,,,,,1,0,0,,-4068,15060,3428,-87,178,-194
30.312,30.10,-0.17,-0.61,0.25,0.90,-0.56,-3.49,4.41,0.00,0.00,695.00,1129.00,411.00,1296.00,363.00,927.00,4095.00,4095.00,,,,,,,,,,,,1,0,0,,-4076,15180,3344,-11,88,-143
30.375,30.15,0.00,-0.11,-0.02,-4.00,6.23,3.31,-1.09,0.00,0.00,699.00,1115.00,311.00,1311.00,432.00,821.00,4095.00,4095.00,,,,,,,,,,,,1,0,0,,-4100,15200,3316,36,163,-172
30.436,30.21,0.14,0.13,0.19,2.72,0.27,2.77,-3.38,0.00,0.00,688.00,1098.00,380.00,1179.00,494.00,892.00,4095.00,4095.00,,,,,,,,,,,,1,0,0,,-3988,15200,3296,6,196,-182
30.499,30.26,-0.14,1.59,-1.99,3.78,-3.66,-5.52,5.30,0.00,0.00,754.00,1099.00,461.00,1256.00,359.00,981.00,4095.00,4095.00,,,,,,,,,,,,1,0,0,,-4120,15116,3268,-16,89,-225
30.541,30.32,-0.04,-3.39,2.45,-4.84,6.10,1.83,-0.20,0.00,0.00,649.00,1188.00,318.00,1360.00,423.00,850.00,4095.00,4095.00,,,,,,,,,,,,1,0,0,,-4020,15200,3188,-201,100,-142
30.581,30.37,0.10,2.05,-1.22,0.83,1.30,2.87,-3.49,0.00,0.00,717.00,1057.00,372.00,1236.00,496.00,891.00,4095.00,4095.00,,,,,,,,,,,,1,0,0,,-4056,15352,3436,-156,84,-132
30.643,30.43,-0.11,0.53,-2.22,4.49,-4.79,-4.23,1.84,0.00,0.00,778.00,1153.00,484.00,1259.00,423.00,1023.00,4095.00,4095.00,,,,,,,,,,,,1,0,0,,-3956,15292,3272,30,78,-140
30.706,30.48,-0.16,-3.43,1.79,-2.44,1.96,-0.97,1.18,0.00,0.00,673.00,1211.00,381.00,1382.00,413.00,915.00,4095.00,4095.00,,,,,,,,,,,,1,0,0,,-4116,15212,3396,30,159,-191
30.768,30.54,0.04,1.62,-1.91,-1.19,2.95,3.76,-4.12,0.00,0.00,750.00,1095.00,353.00,1281.00,505.00,875.00,4095.00,4095.00,,,,,,,,,,,,1,0,0,,-4044,15180,3036,-181,-6,-299
30.809,30.59,-0.01,0.59,-2.12,4.34,-3.48,-0.91,-0.46,0.00,0.00,773.00,1147.00,452.00,1223.00,451.00,954.00,4095.00,4095.00,,,,,,,,,,,,1,0,0,,-4168,15024,3540,-153,-67,-135
30.87,30.65,-0.21,-0.31,-0.06,1.38,-0.82,-4.13,4.89,0.00,0.00,703.00,1125.00,413.00,1280.00,358.00,939.00,4095.00,4095.00,,,,,,,,,,,,1,0,0,,-4096,15128,3464,-195,177,-83
30.911,30.70,-0.04,-0.25,-0.08,-3.67,6.00,3.25,-0.76,0.00,0.00,703.00,1123.00,313.00,1302.00,425.00,816.00,4095.00,4095.00,,,,,,,,,,,,1,0,0,,-4100,15280,3252,-150,113,-132
30.971,30.76,0.12,0.93,0.22,3.65,-0.24,3.23,-3.39,0.00,0.00,677.00,1063.00,384.00,1152.00,490.00,876.00,4095.00,4095.00,,,,,,,,,,,,1,0,0,,-4048,15144,3332,-63,-139,-126
31.031,30.81,-0.17,2.21,-1.98,4.31,-3.22,-5.67,6.25,0.00,0.00,745.00,1072.00,446.00,1216.00,342.00,962.00,4095.00,4095.00,,,,,,,,,,,,1,0,0,,-4128,15364,3124,-204,-71,-250
31.092,30.87,-0.06,-2.69,2.85,-3.51,6.49,1.98,0.87,0.00,0.00,627.00,1143.00,304.00,1277.00,398.00,821.00,4095.00,4095.00,,,,,,,,,,,,1,0,0,,-4184,15300,2704,71,-75,-301
31.134,30.92,0.22,3.28,-0.63,2.78,3.43,5.44,-4.32,0.00,0.00,679.00,991.00,320.00,1081.00,495.00,823.00,4095.00,4095.00,,,,,,,,,,,,1,0,0,,-4144,15212,2212,192,-138,-440
31.296,30.98,0.09,2.38,-1.07,10.31,-2.48,-2.23,3.05,0.00,0.00,707.00,1039.00,384.00,940.00,382.00,915.00,4095.00,4095.00,,,,,,,,,,,,1,0,0,,-4012,15096,1916,-460,-795,-595
31.317,31.03,0.04,-1.19,3.91,2.34,8.88,-0.94,5.09,0.00,0.00,576.00,1047.00,240.00,950.00,334.00,823.00,4095.00,4095.00,,,,,,,,,,,,1,0,0,,-3588,14192,2824,-1737,-2166,-896
31.337,31.09,0.29,3.45,0.93,-0.69,12.46,5.00,-2.33,0.00,0.00,622.00,944.00,209.00,973.00,448.00,794.00,4095.00,4095.00,,,,,,,,,,,,1,0,0,,-4224,15456,5128,-1847,-1848,-219
31.358,31.14,0.28,3.36,-0.21,7.10,-0.46,0.07,0.30,0.00,0.00,663.00,977.00,365.00,1011.00,425.00,899.00,4095.00,4095.00,,,,,,,,,,,,1,0,0,,-4296,15676,6184,-166,162,-586
31.419,31.20,0.01,1.67,1.89,3.62,0.76,-5.07,7.27,0.00,0.00,610.00,987.00,364.00,1123.00,320.00,914.00,4095.00,4095.00,,,,,,,,,,,,1,0,0,,-4156,15300,4260,701,887,-579
31.48,31.25,0.17,0.67,2.63,-3.65,11.05,3.24,0.22,0.00,0.00,597.00,1007.00,238.00,1136.00,403.00,795.00,4095.00,4095.00,,,,,,,,,,,,1,0,0,,-4188,14396,2936,-30,415,-431
31.52,31.31,0.28,2.96,1.46,5.80,2.58,2.34,-2.12,0.00,0.00,610.00,949.00,317.00,981.00,465.00,877.00,4095.00,4095.00,,,,,,,,,,,,1,0,0,,-4364,14644,2820,-726,-302,77
31.583,31.36,-0.03,2.64,0.19,6.30,-1.46,-5.92,6.66,0.00,0.00,657.00,994.00,391.00,1072.00,336.00,961.00,4095.00,4095.00,,,,,,,,,,,,1,0,0,,-4340,15084,3948,-1028,-718,355
31.645,31.42,0.00,-2.16,5.12,-3.82,9.27,0.63,1.65,0.00,0.00,549.00,1053.00,263.00,1200.00,391.00,848.00,4095.00,4095.00,,,,,,,,,,,,1,0,0,,-4148,14944,4640,-188,-118,345
31.706,31.47,0.24,3.43,0.88,1.13,4.87,4.71,-3.96,0.00,0.00,624.00,946.00,305.00,1110.00,492.00,839.00,4095.00,4095.00,,,,,,,,,,,,1,0,0,,-4116,15036,4576,235,426,374
31.768,31.53,0.09,3.27,-0.24,6.81,-2.42,-2.75,2.37,0.00,0.00,665.00,981.00,408.00,1078.00,400.00,951.00,4095.00,4095.00,,,,,,,,,,,,1,0,0,,-4164,14976,4004,12,683,378
31.81,31.58,0.01,-1.05,3.96,-0.25,4.21,-1.47,3.63,0.00,0.00,573.00,1040.00,324.00,1193.00,365.00,874.00,4095.00,4095.00,,,,,,,,,,,,1,0,0,,-4016,15112,3796,-265,581,341
31.871,31.64,0.29,3.38,0.96,-1.71,8.63,5.52,-3.15,0.00,0.00,622.00,946.00,262.00,1123.00,464.00,795.00,4095.00,4095.00,,,,,,,,,,,,1,0,0,,-3804,15248,3896,-373,214,245
31.953,31.69,0.32,3.82,-0.20,6.33,-0.70,1.00,-0.57,0.00,0.00,657.00,959.00,375.00,1049.00,438.00,887.00,4095.00,4095.00,,,,,,,,,,,,1,0,0,,-4056,15132,4112,-184,23,139
31.973,31.75,0.05,2.66,1.35,3.28,0.38,-5.17,7.02,0.00,0.00,617.00,963.00,374.00,1150.00,325.00,924.00,4095.00,4095.00,,,,,,,,,,,,1,0,0,,-3936,14880,3840,-371,190,255
32.035,31.80,0.20,0.56,3.23,-4.69,10.64,3.11,-0.10,0.00,0.00,579.00,995.00,248.00,1197.00,411.00,806.00,4095.00,4095.00,,,,,,,,,,,,1,0,0,,-3752,14856,3504,-394,202,270
32.096,31.86,0.30,3.41,1.55,4.35,2.44,2.18,-2.27,0.00,0.00,602.00,930.00,328.00,1043.00,470.00,886.00,4095.00,4095.00,,,,,,,,,,,,1,0,0,,-3908,15096,3416,-356,84,399
32.137,31.91,0.00,3.29,-0.08,4.58,-1.58,-5.67,5.72,0.00,0.00,659.00,976.00,406.00,1151.00,352.00,976.00,4095.00,4095.00,,,,,,,,,,,,1,0,0,,-3676,15040,3528,-330,-75,456
32.199,31.97,-0.02,-2.25,5.09,-3.23,6.51,-0.53,1.53,0.00,0.00,551.00,1058.00,302.00,1262.00,402.00,891.00,4095.00,4095.00,,,,,,,,,,,,1,0,0,,-3580,14796,3404,-354,-337,437
32.26,32.02,0.15,3.12,0.99,0.57,3.60,3.44,-3.90,0.00,0.00,624.00,955.00,330.00,1174.00,502.00,881.00,4095.00,4095.00,,,,,,,,,,,,1,0,0,,-3464,14568,3596,-747,-550,698
32.342,32.08,0.00,3.00,-0.78,5.62,-3.20,-2.81,0.93,0.00,0.00,688.00,1006.00,435.00,1154.00,433.00,991.00,4095.00,4095.00,,,,,,,,,,,,1,0,0,,-3540,15404,4388,-1372,-89,686
32.362,32.13,-0.16,-1.21,3.70,-0.42,2.22,-3.14,4.14,0.00,0.00,583.00,1054.00,362.00,1267.00,366.00,921.00,4095.00,4095.00,,,,,,,,,,,,1,0,0,,-3152,15020,4188,-1126,-81,569
32.403,32.19,0.08,2.62,1.45,-2.61,6.87,4.67,-2.86,0.00,0.00,614.00,962.00,293.00,1220.00,464.00,816.00,4095.00,4095.00,,,,,,,,,,,,1,0,0,,-3072,14912,4092,-943,-726,598
32.464,32.24,0.13,3.81,0.29,5.07,-0.71,1.07,-1.13,0.00,0.00,640.00,947.00,384.00,1103.00,451.00,898.00,4095.00,4095.00,,,,,,,,,,,,1,0,0,,-2752,15348,4808,-1109,-755,506
32.505,32.30,-0.14,2.70,1.48,2.83,-0.76,-5.39,7.09,0.00,0.00,612.00,958.00,401.00,1207.00,325.00,930.00,4095.00,4095.00,,,,,,,,,,,,1,0,0,,-2864,15188,5240,-585,-198,28
32.586,32.35,0.08,0.76,3.61,-5.10,9.63,4.29,-0.72,0.00,0.00,565.00,977.00,264.00,1250.00,416.00,782.00,4095.00,4095.00,,,,,,,,,,,,1,0,0,,-2820,15208,5172,-537,31,191
32.628,32.41,0.22,4.65,1.10,4.53,0.56,2.98,-2.38,0.00,0.00,603.00,896.00,362.00,1089.00,466.00,861.00,4095.00,4095.00,,,,,,,,,,,,1,0,0,,-2768,15184,5072,-465,78,-60
32.71,32.46,-0.01,3.74,0.22,4.65,-2.09,-4.52,5.86,0.00,0.00,643.00,951.00,417.00,1164.00,342.00,929.00,4095.00,4095.00,,,,,,,,,,,,1,0,0,,-2748,14976,5140,-439,20,-381
32.751,32.52,0.02,-0.38,4.70,-2.07,5.70,0.59,1.76,0.00,0.00,544.00,993.00,309.00,1232.00,389.00,847.00,4095.00,4095.00,,,,,,,,,,,,1,0,0,,-2660,14940,5008,-193,-42,-347
32.813,32.57,0.26,3.94,1.50,1.54,4.13,4.78,-2.98,0.00,0.00,598.00,912.00,315.00,1114.00,466.00,815.00,4095.00,4095.00,,,,,,,,,,,,1,0,0,,-2808,14764,5172,-866,-268,62
32.874,32.63,0.17,4.21,-0.19,6.67,-2.00,-1.53,1.69,0.00,0.00,652.00,944.00,400.00,1072.00,406.00,923.00,4095.00,4095.00,,,,,,,,,,,,1,0,0,,-2760,15032,5160,-1101,90,73
32.916,32.68,-0.01,0.18,3.94,0.90,2.30,-3.39,5.53,0.00,0.00,561.00,991.00,352.00,1200.00,341.00,896.00,4095.00,4095.00,,,,,,,,,,,,1,0,0,,-2600,15008,5168,-779,-383,-127
32.979,32.74,0.21,2.72,2.41,-3.91,9.30,4.50,-2.20,0.00,0.00,582.00,934.00,263.00,1203.00,449.00,807.00,4095.00,4095.00,,,,,,,,,,,,1,0,0,,-2724,14840,5628,-330,-465,-276
33.06,32.79,0.23,3.58,1.62,4.31,0.38,0.53,-0.82,0.00,0.00,598.00,922.00,367.00,1104.00,448.00,910.00,4095.00,4095.00,,,,,,,,,,,,1,0,0,,-2692,14700,5928,-548,-96,-186
33.081,32.85,-0.09,2.60,1.79,2.77,-1.01,-6.08,7.33,0.00,0.00,603.00,954.00,407.00,1218.00,325.00,950.00,4095.00,4095.00,,,,,,,,,,,,1,0,0,,-2716,14920,5652,-491,123,-319
33.143,32.90,0.08,0.65,4.01,-5.40,9.04,3.25,-0.76,0.00,0.00,554.00,971.00,274.00,1285.00,425.00,816.00,4095.00,4095.00,,,,,,,,,,,,1,0,0,,-2648,14608,6244,-228,82,21
33.163,32.96,0.21,4.83,1.51,2.93,0.79,2.75,-2.81,0.00,0.00,588.00,880.00,368.00,1153.00,479.00,879.00,4095.00,4095.00,,,,,,,,,,,,1,0,0,,-2736,14776,5952,240,251,-398
33.226,33.01,0.01,4.26,0.14,3.63,-2.53,-3.91,4.40,0.00,0.00,640.00,934.00,435.00,1226.00,366.00,943.00,4095.00,4095.00,,,,,,,,,,,,1,0,0,,-2916,14868,5664,565,661,-542
33.288,33.07,-0.00,0.84,3.65,0.12,0.81,-0.22,2.13,0.00,0.00,563.00,973.00,387.00,1288.00,387.00,866.00,4095.00,4095.00,,,,,,,,,,,,1,0,0,,-2908,14592,5144,350,504,-139
33.37,33.12,0.22,4.51,1.27,-0.37,3.58,4.52,-3.36,0.00,0.00,599.00,897.00,336.00,1219.00,478.00,832.00,4095.00,4095.00,,,,,,,,,,,,1,0,0,,-2892,14836,5064,184,442,-206
33.452,33.18,0.14,4.26,-0.07,5.64,-3.08,-1.49,1.27,0.00,0.00,647.00,939.00,432.00,1149.00,415.00,932.00,4095.00,4095.00,,,,,,,,,,,,1,0,0,,-3016,14812,4928,-476,91,-63
33.473,33.23,-0.05,0.76,3.58,0.46,0.84,-3.64,5.78,0.00,0.00,566.00,978.00,384.00,1270.00,338.00,899.00,4095.00,4095.00,,,,,,,,,,,,1,0,0,,-2920,14940,5384,-300,173,-233
33.536,33.29,0.19,3.20,2.06,-4.42,8.51,4.70,-1.47,0.00,0.00,588.00,925.00,277.00,1254.00,430.00,785.00,4095.00,4095.00,,,,,,,,,,,,1,0,0,,-3008,14820,5148,-86,216,-170
33.578,33.34,0.25,3.69,1.86,3.88,0.47,1.51,-1.32,0.00,0.00,589.00,912.00,368.00,1120.00,452.00,887.00,4095.00,4095.00,,,,,,,,,,,,1,0,0,,-2948,14780,5032,95,-128,-302
33.64,33.40,-0.05,3.44,1.42,2.79,-1.11,-5.70,7.60,0.00,0.00,606.00,932.00,409.00,1220.00,318.00,929.00,4095.00,4095.00,,,,,,,,,,,,1,0,0,,-3116,14712,5240,-72,-127,-385
33.661,33.45,0.12,0.60,4.20,-5.39,9.17,3.31,-0.08,0.00,0.00,549.00,968.00,272.00,1280.00,409.00,799.00,4095.00,4095.00,,,,,,,,,,,,1,0,0,,-2980,14880,5164,-223,41,-494
33.721,33.51,0.25,5.00,1.14,3.04,0.86,2.64,-2.77,0.00,0.00,598.00,883.00,366.00,1146.00,479.00,882.00,4095.00,4095.00,,,,,,,,,,,,1,0,0,,-2968,14984,5104,-399,-107,-420
33.824,33.56,0.06,3.72,0.15,3.84,-2.56,-3.54,3.15,0.00,0.00,646.00,954.00,434.00,1217.00,389.00,961.00,4095.00,4095.00,,,,,,,,,,,,1,0,0,,-3004,14740,5208,-366,95,-531
33.844,33.62,0.01,0.01,3.67,-1.25,2.86,-0.98,2.48,0.00,0.00,571.00,1005.00,355.00,1287.00,385.00,884.00,4095.00,4095.00,,,,,,,,,,,,1,0,0,,-3080,14836,5192,-330,-139,-497
33.885,33.67,0.23,4.52,0.72,-0.86,3.91,4.48,-3.35,0.00,0.00,617.00,910.00,333.00,1232.00,478.00,833.00,4095.00,4095.00,,,,,,,,,,,,1,0,0,,-3080,14588,5568,-31,-71,-338
33.946,33.73,0.19,4.18,-0.38,4.25,-1.37,-0.50,0.41,0.00,0.00,659.00,950.00,404.00,1160.00,427.00,917.00,4095.00,4095.00,,,,,,,,,,,,1,0,0,,-3244,14728,5656,-116,140,-269
34.007,33.78,-0.01,0.92,3.27,0.98,0.19,-3.81,6.28,0.00,0.00,574.00,980.00,394.00,1266.00,330.00,893.00,4095.00,4095.00,,,,,,,,,,,,1,0,0,,-3120,14768,5276,-4,140,-199
34.068,33.84,0.23,3.09,2.38,-4.05,7.99,4.71,-0.37,0.00,0.00,579.00,921.00,283.00,1253.00,405.00,762.00,4095.00,4095.00,,,,,,,,,,,,1,0,0,,-3116,14728,5504,120,64,-230
34.108,33.89,0.33,4.42,1.49,4.07,-0.04,2.19,-1.30,0.00,0.00,593.00,895.00,377.00,1127.00,446.00,863.00,4095.00,4095.00,,,,,,,,,,,,1,0,0,,-3072,14748,5180,108,36,-385
34.169,33.95,0.04,4.38,0.56,2.84,-1.40,-5.46,7.93,0.00,0.00,624.00,919.00,415.00,1227.00,311.00,912.00,4095.00,4095.00,,,,,,,,,,,,1,0,0,,-3216,14732,5688,40,103,-418
34.231,34.00,0.22,0.81,3.96,-4.91,8.08,3.57,0.29,0.00,0.00,554.00,966.00,286.00,1293.00,399.00,783.00,4095.00,4095.00,,,,,,,,,,,,1,0,0,,-3136,14596,5484,21,135,-225
34.272,34.06,0.38,5.59,0.94,2.15,1.06,3.43,-2.68,0.00,0.00,598.00,867.00,368.00,1181.00,470.00,853.00,4095.00,4095.00,,,,,,,,,,,,1,0,0,,-3244,14928,5428,445,460,-298
34.333,34.11,0.24,4.06,-0.17,4.04,-2.92,-2.38,2.34,0.00,0.00,653.00,949.00,441.00,1219.00,398.00,938.00,4095.00,4095.00,,,,,,,,,,,,1,0,0,,-3344,14580,5196,434,570,-184
34.393,34.17,0.18,0.09,3.55,-1.17,2.02,-0.84,3.22,0.00,0.00,574.00,1005.00,371.00,1312.00,369.00,862.00,4095.00,4095.00,,,,,,,,,,,,1,0,0,,-3276,14764,4972,169,393,59
34.435,34.22,0.37,4.29,0.77,-1.17,4.47,3.99,-2.68,0.00,0.00,618.00,917.00,325.00,1229.00,465.00,834.00,4095.00,4095.00,,,,,,,,,,,,1,0,0,,-3016,14836,4824,118,148,-72
34.538,34.28,0.33,3.69,-0.24,5.25,-2.95,-0.57,0.43,0.00,0.00,660.00,965.00,432.00,1163.00,427.00,919.00,4095.00,4095.00,,,,,,,,,,,,1,0,0,,-3268,14760,5124,43,225,-324
34.559,34.33,0.07,0.44,2.70,1.06,0.07,-4.87,7.26,0.00,0.00,597.00,1014.00,396.00,1266.00,319.00,907.00,4095.00,4095.00,,,,,,,,,,,,1,0,0,,-3176,14856,4748,-331,104,-173
34.599,34.39,0.28,1.90,2.59,-4.99,8.63,4.37,-0.21,0.00,0.00,585.00,960.00,278.00,1278.00,404.00,769.00,4095.00,4095.00,,,,,,,,,,,,1,0,0,,-3224,14980,5348,-106,257,-167
34.661,34.44,0.39,4.13,1.22,3.59,-0.22,2.45,-1.67,0.00,0.00,605.00,912.00,384.00,1154.00,453.00,863.00,4095.00,4095.00,,,,,,,,,,,,1,0,0,,-3096,14744,4916,-142,365,-282
34.764,34.50,0.13,3.93,0.30,2.85,-2.48,-4.76,7.52,0.00,0.00,638.00,942.00,440.00,1263.00,314.00,897.00,4095.00,4095.00,,,,,,,,,,,,1,0,0,,-3256,14532,4824,-122,168,-203
34.784,34.55,0.31,0.18,4.51,-4.53,6.95,3.75,0.51,0.00,0.00,544.00,976.00,302.00,1313.00,393.00,773.00,4095.00,4095.00,,,,,,,,,,,,1,0,0,,-3192,14592,5048,-261,-47,-195
34.847,34.61,0.52,5.34,0.84,1.58,1.30,4.43,-2.78,0.00,0.00,604.00,878.00,367.00,1200.00,464.00,822.00,4095.00,4095.00,,,,,,,,,,,,1,0,0,,-3284,14892,5236,-115,183,-309
34.907,34.66,0.39,4.21,-0.30,4.03,-3.33,-2.05,2.70,0.00,0.00,656.00,947.00,451.00,1233.00,388.00,917.00,4095.00,4095.00,,,,,,,,,,,,1,0,0,,-3368,14756,5304,245,383,-182
34.928,34.72,0.36,0.22,3.47,-1.34,2.08,-0.24,3.17,0.00,0.00,575.00,1002.00,371.00,1319.00,366.00,843.00,4095.00,4095.00,,,,,,,,,,,,1,0,0,,-3272,14736,4940,-29,406,-128
34.991,34.77,0.72,4.80,0.51,-1.29,4.34,7.60,-3.25,0.00,0.00,621.00,905.00,328.00,1239.00,449.00,734.00,4095.00,4095.00,,,,,,,,,,,,1,0,0,,-3220,14804,4812,-329,-157,-113
35.073,34.83,0.71,5.05,-0.76,5.12,-2.82,0.59,0.17,0.00,0.00,662.00,927.00,430.00,1165.00,424.00,884.00,4095.00,4095.00,,,,,,,,,,,,1,0,1,,-3268,14768,5176,-518,-161,-169
35.094,34.88,0.44,2.09,2.27,1.20,-0.35,-4.88,7.74,0.00,0.00,593.00,961.00,404.00,1273.00,311.00,896.00,4095.00,4095.00,,,,,,,,,,,,1,0,1,,-3204,14600,5256,-577,-271,-169
35.156,34.94,0.64,1.88,2.85,-5.35,8.56,4.59,-0.19,0.00,0.00,577.00,954.00,281.00,1299.00,402.00,762.00,4095.00,4095.00,,,,,,,,,,,,1,0,1,,-3344,14812,5676,-225,-108,-180
35.218,34.99,0.74,4.33,1.12,3.77,-0.80,2.62,-1.98,0.00,0.00,606.00,907.00,395.00,1164.00,459.00,864.00,4095.00,4095.00,,,,,,,,,,,,1,0,1,,-3348,14708,5312,-261,201,-107
35.259,35.05,0.18,3.61,0.18,2.95,-2.72,-10.58,14.67,0.00,0.00,646.00,957.00,445.00,1266.00,237.00,932.00,4095.00,4095.00,,,,,,,,,,,,1,0,1,,-3248,14860,5004,20,264,-116
35.32,35.10,0.32,-0.44,4.48,-4.64,6.87,3.12,0.40,0.00,0.00,551.00,1001.00,304.00,1322.00,400.00,795.00,4095.00,4095.00,,,,,,,,,,,,1,0,1,,-3144,14716,5288,36,-195,-172
35.382,35.16,0.54,5.01,0.62,1.76,0.69,4.63,-2.85,0.00,0.00,615.00,895.00,378.00,1211.00,464.00,817.00,4095.00,4095.00,,,,,,,,,,,,1,0,1,,-3168,14736,5392,-42,-66,-85
35.443,35.21,0.46,4.46,-0.64,4.78,-3.54,-1.05,1.80,0.00,0.00,665.00,946.00,450.00,1204.00,400.00,903.00,4095.00,4095.00,,,,,,,,,,,,1,0,1,,-3332,14884,5664,-59,294,-282
35.483,35.27,0.42,1.11,3.33,-0.22,1.16,-0.38,3.73,0.00,0.00,570.00,971.00,382.00,1293.00,356.00,835.00,4095.00,4095.00,,,,,,,,,,,,1,0,1,,-3124,14744,5132,133,201,-189
35.544,35.32,0.74,4.60,0.97,-2.10,5.59,6.80,-2.81,0.00,0.00,608.00,901.00,311.00,1237.00,445.00,749.00,4095.00,4095.00,,,,,,,,,,,,1,0,1,,-3240,14636,5152,131,233,-216
35.648,35.38,0.80,5.05,-0.39,5.24,-2.02,2.03,-0.27,0.00,0.00,649.00,918.00,411.00,1135.00,423.00,845.00,4095.00,4095.00,,,,,,,,,,,,1,0,1,,-3216,14520,5308,102,306,-67
35.669,35.43,0.56,3.41,1.70,2.58,-0.68,-3.94,7.84,0.00,0.00,597.00,926.00,401.00,1216.00,304.00,861.00,4095.00,4095.00,,,,,,,,,,,,1,0,1,,-3156,14768,4880,56,212,-126
35.71,35.49,0.85,2.40,2.48,-4.71,8.88,6.22,-0.65,0.00,0.00,583.00,944.00,273.00,1256.00,400.00,723.00,4095.00,4095.00,,,,,,,,,,,,1,0,1,,-3336,14828,5040,-21,55,-106
35.771,35.54,1.01,5.00,1.05,4.03,0.42,4.05,-2.09,0.00,0.00,601.00,885.00,368.00,1115.00,450.00,819.00,4095.00,4095.00,,,,,,,,,,,,1,0,1,,-3316,14772,5176,-16,127,-192
35.812,35.60,0.74,4.26,0.05,3.81,-2.42,-4.28,6.89,0.00,0.00,643.00,936.00,431.00,1214.00,322.00,895.00,4095.00,4095.00,,,,,,,,,,,,1,0,1,,-3228,14796,5132,-9,211,-234
35.873,35.65,0.86,-0.12,4.58,-3.29,5.76,3.12,0.91,0.00,0.00,545.00,986.00,315.00,1291.00,389.00,784.00,4095.00,4095.00,,,,,,,,,,,,1,0,1,,-3320,14788,5240,-92,105,-173
35.936,35.71,1.07,4.47,0.59,0.79,2.13,5.00,-3.18,0.00,0.00,622.00,915.00,356.00,1211.00,469.00,812.00,4095.00,4095.00,,,,,,,,,,,,1,0,1,,-3288,14752,5324,167,264,-141
36.039,35.76,0.95,4.10,-0.85,5.01,-3.41,-1.38,1.96,0.00,0.00,677.00,965.00,445.00,1189.00,399.00,911.00,4095.00,4095.00,,,,,,,,,,,,1,0,1,,-3308,14656,5048,62,420,-171
36.059,35.82,0.80,0.30,3.32,-0.21,1.06,-1.96,5.22,0.00,0.00,579.00,1003.00,384.00,1296.00,338.00,854.00,4095.00,4095.00,,,,,,,,,,,,1,0,1,,-3348,14732,4988,54,180,-241
36.099,35.87,1.10,4.02,0.89,-2.34,5.91,6.80,-2.81,0.00,0.00,617.00,924.00,307.00,1238.00,445.00,749.00,4095.00,4095.00,,,,,,,,,,,,1,0,1,,-3324,14800,5244,126,281,-144
36.16,35.93,1.19,4.87,-0.53,4.97,-1.52,2.82,-0.18,0.00,0.00,656.00,928.00,402.00,1132.00,415.00,817.00,4095.00,4095.00,,,,,,,,,,,,1,0,1,,-3196,14820,4832,-104,186,-254
36.221,35.98,0.97,4.04,1.19,2.99,-0.90,-3.11,7.44,0.00,0.00,607.00,916.00,403.00,1204.00,306.00,842.00,4095.00,4095.00,,,,,,,,,,,,1,0,1,,-3256,14640,4908,-134,-111,-207
36.262,36.04,1.24,2.49,2.74,-6.32,11.19,6.25,0.10,0.00,0.00,574.00,934.00,248.00,1258.00,384.00,708.00,4095.00,4095.00,,,,,,,,,,,,1,0,1,,-3268,14736,5176,-51,18,-129
36.303,36.09,1.39,5.36,0.99,4.53,0.06,4.42,-1.72,0.00,0.00,599.00,874.00,372.00,1104.00,438.00,799.00,4095.00,4095.00,,,,,,,,,,,,1,0,2,,-3216,14708,4980,-168,113,-254
36.385,36.15,1.15,4.91,0.06,2.07,0.54,-3.48,7.03,0.00,0.00,635.00,912.00,379.00,1201.00,315.00,864.00,4095.00,4095.00,,,,,,,,,,,,1,0,2,,-3268,14836,5040,57,143,-232
36.425,36.20,1.23,0.46,4.45,-3.59,6.57,2.69,1.83,0.00,0.00,543.00,967.00,303.00,1278.00,373.00,778.00,4095.00,4095.00,,,,,,,,,,,,1,0,2,,-3432,14580,5116,-58,105,-126
36.467,36.26,1.48,5.13,0.61,0.56,2.46,6.18,-3.17,0.00,0.00,614.00,891.00,351.00,1211.00,459.00,775.00,4095.00,4095.00,,,,,,,,,,,,1,0,2,,-3256,14788,5140,-71,153,-47
36.529,36.31,1.38,4.72,-0.95,4.78,-3.42,-0.45,1.88,0.00,0.00,673.00,944.00,447.00,1200.00,394.00,880.00,4095.00,4095.00,,,,,,,,,,,,1,0,2,,-3220,14852,4984,-47,184,-75
36.59,36.37,1.25,0.77,3.03,-0.21,1.21,-1.24,5.08,0.00,0.00,583.00,992.00,381.00,1291.00,336.00,833.00,4095.00,4095.00,,,,,,,,,,,,1,0,2,,-3132,14968,4920,-109,-38,-205
36.63,36.42,1.52,4.21,0.89,-2.94,6.17,6.71,-2.23,0.00,0.00,615.00,917.00,306.00,1259.00,432.00,740.00,4095.00,4095.00,,,,,,,,,,,,1,0,2,,-3260,14756,4964,83,-22,-388
36.732,36.48,1.59,4.71,-0.33,4.53,-1.24,2.84,-0.76,0.00,0.00,651.00,929.00,399.00,1143.00,428.00,829.00,4095.00,4095.00,,,,,,,,,,,,1,0,2,,-3452,14752,5176,75,223,-155
36.753,36.53,1.30,4.75,-0.90,2.39,-0.98,-4.09,7.71,0.00,0.00,671.00,942.00,409.00,1235.00,307.00,869.00,4095.00,4095.00,,,,,,,,,,,,1,0,2,,-3416,15128,5084,192,562,-180
36.795,36.59,1.54,1.53,3.29,-4.62,8.91,6.12,-0.29,0.00,0.00,567.00,956.00,272.00,1250.00,393.00,719.00,4095.00,4095.00,,,,,,,,,,,,1,0,2,,-3548,14748,4860,-433,212,-122
36.856,36.64,1.72,5.57,0.67,3.69,0.39,5.12,-2.37,0.00,0.00,607.00,874.00,371.00,1131.00,448.00,791.00,4095.00,4095.00,,,,,,,,,,,,1,0,2,,-3276,14964,4728,-323,96,5
36.917,36.70,1.51,4.93,-0.38,4.16,-2.45,-2.59,6.15,0.00,0.00,650.00,922.00,429.00,1198.00,325.00,854.00,4095.00,4095.00,,,,,,,,,,,,1,0,2,,-3180,15056,5088,-511,-123,-145
36.979,36.75,1.57,0.58,4.61,-2.29,5.07,2.85,2.03,0.00,0.00,537.00,958.00,321.00,1264.00,368.00,769.00,4095.00,4095.00,,,,,,,,,,,,1,0,2,,-3324,14856,5048,-207,-82,-387
37.04,36.81,1.85,5.60,0.84,0.58,3.43,7.03,-3.26,0.00,0.00,601.00,869.00,333.00,1179.00,454.00,751.00,4095.00,4095.00,,,,,,,,,,,,1,0,2,,-3308,14992,5084,-68,-77,-312
37.101,36.86,1.80,5.41,-0.88,5.89,-3.25,0.85,1.82,0.00,0.00,662.00,917.00,434.00,1143.00,386.00,837.00,4095.00,4095.00,,,,,,,,,,,,1,0,2,,-3332,14660,5132,-120,-128,-104
37.142,36.92,1.70,1.27,3.44,0.39,1.65,-0.12,4.71,0.00,0.00,565.00,962.00,368.00,1246.00,336.00,805.00,4095.00,4095.00,,,,,,,,,,,,1,0,2,,-3280,15020,5184,34,-48,-212
37.183,36.97,2.02,4.52,1.30,-3.06,7.53,8.13,-2.14,0.00,0.00,598.00,896.00,285.00,1220.00,419.00,698.00,4095.00,4095.00,,,,,,,,,,,,1,0,2,,-3308,14836,5064,-52,-30,-208
37.245,37.03,2.12,5.07,0.36,5.03,-0.65,3.93,-0.38,0.00,0.00,623.00,899.00,383.00,1103.00,411.00,786.00,4095.00,4095.00,,,,,,,,,,,,1,0,2,,-3256,14816,5108,-166,75,-160
37.287,37.08,1.83,4.34,0.90,3.06,-0.88,-3.58,8.28,0.00,0.00,613.00,912.00,402.00,1200.00,295.00,839.00,4095.00,4095.00,,,,,,,,,,,,1,0,3,,-3280,14800,5004,-72,97,-112
37.37,37.14,2.06,1.71,3.26,-4.85,8.99,6.35,0.11,0.00,0.00,566.00,950.00,272.00,1259.00,383.00,705.00,4095.00,4095.00,,,,,,,,,,,,1,0,3,,-3312,14756,5172,-110,47,-67
37.474,37.19,2.21,5.48,0.76,3.45,1.07,5.12,-2.37,0.00,0.00,605.00,875.00,359.00,1121.00,448.00,791.00,4095.00,4095.00,,,,,,,,,,,,1,0,3,,-3256,14808,5120,-16,222,-89
37.495,37.25,1.94,4.68,-0.49,4.15,-2.41,-3.23,6.14,0.00,0.00,657.00,934.00,428.00,1197.00,329.00,876.00,4095.00,4095.00,,,,,,,,,,,,1,0,3,,-3320,14808,5064,-43,209,-55
37.515,37.30,1.94,0.19,3.97,-1.68,4.08,1.96,2.53,0.00,0.00,560.00,990.00,335.00,1267.00,364.00,786.00,4095.00,4095.00,,,,,,,,,,,,1,0,3,,-3180,14912,4992,-28,27,-241
37.576,37.36,2.20,5.17,0.30,0.30,3.52,7.05,-3.42,0.00,0.00,624.00,897.00,333.00,1189.00,458.00,754.00,4095.00,4095.00,,,,,,,,,,,,1,0,3,,-3312,14688,5264,-17,68,-155
37.637,37.41,2.13,4.96,-0.87,5.88,-3.20,0.90,1.76,0.00,0.00,667.00,933.00,433.00,1142.00,387.00,837.00,4095.00,4095.00,,,,,,,,,,,,1,0,3,,-3228,14912,4964,27,178,-165
37.678,37.47,1.97,1.56,2.89,0.78,1.47,-1.09,6.46,0.00,0.00,579.00,965.00,369.00,1233.00,311.00,798.00,4095.00,4095.00,,,,,,,,,,,,1,0,3,,-3140,14652,4796,-152,104,-131
37.74,37.52,2.28,4.70,1.24,-3.10,8.20,8.23,-1.60,0.00,0.00,598.00,891.00,275.00,1200.00,406.00,685.00,4095.00,4095.00,,,,,,,,,,,,1,0,3,,-3380,14756,4972,-111,41,-157
37.844,37.58,2.40,5.40,0.67,4.70,0.65,4.59,-0.82,0.00,0.00,609.00,880.00,359.00,1079.00,416.00,775.00,4095.00,4095.00,,,,,,,,,,,,1,0,3,,-3220,14996,5296,-155,6,-98
37.864,37.63,2.11,5.02,0.55,3.28,-0.77,-3.40,8.72,0.00,0.00,617.00,896.00,398.00,1186.00,287.00,823.00,4095.00,4095.00,,,,,,,,,,,,1,0,3,,-3260,15048,5144,-164,107,-274
37.904,37.69,2.36,1.94,3.31,-4.38,8.83,7.10,-0.14,0.00,0.00,562.00,940.00,272.00,1241.00,383.00,689.00,4095.00,4095.00,,,,,,,,,,,,1,0,3,,-3288,14964,5168,155,-39,-434
37.966,37.74,2.52,6.19,0.80,4.13,0.95,5.63,-2.46,0.00,0.00,596.00,850.00,357.00,1095.00,446.00,777.00,4095.00,4095.00,,,,,,,,,,,,1,0,3,,-3336,14668,5116,79,-107,-425
38.007,37.80,2.30,5.35,-0.63,4.66,-2.75,-1.98,5.11,0.00,0.00,654.00,913.00,432.00,1184.00,340.00,857.00,4095.00,4095.00,,,,,,,,,,,,1,0,3,,-3392,14736,4932,-150,89,-268
38.068,37.85,2.31,1.27,2.86,-1.50,2.95,2.59,2.21,0.00,0.00,583.00,977.00,355.00,1297.00,366.00,773.00,4095.00,4095.00,,,,,,,,,,,,1,0,3,,-3512,14596,5224,-12,113,-158
38.13,37.91,2.53,4.74,0.44,0.26,2.72,6.74,-3.36,0.00,0.00,624.00,909.00,348.00,1217.00,459.00,762.00,4095.00,4095.00,,,,,,,,,,,,1,0,3,,-3336,14624,5164,-74,209,22
38.211,37.96,2.43,4.66,-1.09,5.36,-3.49,0.43,1.30,0.00,0.00,679.00,950.00,444.00,1175.00,400.00,863.00,4095.00,4095.00,,,,,,,,,,,,1,0,3,,-3228,14740,5204,-282,246,-115
38.232,38.02,2.22,0.82,2.54,0.38,0.25,-1.74,5.87,0.00,0.00,598.00,1003.00,397.00,1294.00,325.00,832.00,4095.00,4095.00,,,,,,,,,,,,1,0,3,,-3204,14820,4948,-52,142,-294
38.294,38.07,2.48,4.02,1.13,-3.77,7.70,7.42,-1.37,0.00,0.00,609.00,918.00,286.00,1249.00,407.00,703.00,4095.00,4095.00,,,,,,,,,,,,1,0,3,,-3424,14752,5188,132,-31,-179
38.335,38.13,2.57,4.90,0.77,4.10,0.35,4.22,-1.18,0.00,0.00,611.00,895.00,369.00,1114.00,427.00,794.00,4095.00,4095.00,,,,,,,,,,,,1,0,3,,-3448,14460,5016,-56,166,-154
38.397,38.18,2.24,4.54,0.57,3.38,-1.35,-3.86,9.27,0.00,0.00,622.00,913.00,410.00,1200.00,281.00,826.00,4095.00,4095.00,,,,,,,,,,,,1,0,3,,-3432,14696,4860,-333,285,0
38.459,38.24,2.49,1.89,3.23,-4.43,9.33,7.19,-0.22,0.00,0.00,565.00,944.00,265.00,1227.00,384.00,688.00,4095.00,4095.00,,,,,,,,,,,,1,0,3,,-3036,15172,4768,-515,-197,-46
38.501,38.29,2.69,6.30,0.45,4.31,0.99,6.52,-2.55,0.00,0.00,606.00,854.00,355.00,1086.00,441.00,752.00,4095.00,4095.00,,,,,,,,,,,,1,0,3,,-2568,15824,5040,-186,-267,-961
38.583,38.35,2.52,5.72,-0.47,6.70,-2.01,-0.75,5.82,0.00,0.00,644.00,896.00,400.00,1071.00,320.00,801.00,4095.00,4095.00,,,,,,,,,,,,1,0,3,,-2416,16004,4372,-654,-785,-3315
38.645,38.40,2.53,1.77,3.80,0.94,6.38,2.66,4.62,0.00,0.00,549.00,934.00,282.00,1074.00,321.00,723.00,4095.00,4095.00,,,,,,,,,,,,1,0,3,,-3412,14816,5364,-1181,-1718,-4612
38.686,38.46,2.80,6.04,0.98,0.05,7.96,8.00,-2.75,0.00,0.00,592.00,851.00,263.00,1066.00,434.00,713.00,4095.00,4095.00,,,,,,,,,,,,1,0,3,,-4884,13200,6528,-859,-1416,-3567
38.768,38.51,2.69,5.42,-0.66,6.52,-2.09,0.53,2.66,0.00,0.00,654.00,911.00,403.00,1081.00,371.00,829.00,4095.00,4095.00,,,,,,,,,,,,1,0,3,,-5168,13140,5912,-33,-623,-1370
38.789,38.57,2.46,1.57,3.28,1.30,2.75,-1.85,7.82,0.00,0.00,567.00,955.00,341.00,1167.00,293.00,793.00,4095.00,4095.00,,,,,,,,,,,,1,0,3,,-5000,13764,5796,102,-787,47
38.831,38.62,2.70,3.97,1.99,-3.86,10.97,7.23,0.21,0.00,0.00,582.00,899.00,240.00,1148.00,375.00,679.00,4095.00,4095.00,,,,,,,,,,,,1,0,3,,-4568,14076,6036,132,118,122
38.935,38.68,2.75,4.92,1.29,5.50,1.83,3.70,0.11,0.00,0.00,594.00,882.00,332.00,1013.00,402.00,783.00,4095.00,4095.00,,,,,,,,,,,,1,0,3,,-4156,14256,5384,-192,669,194
38.956,38.73,2.44,4.72,0.51,4.20,0.36,-3.51,8.89,0.00,0.00,622.00,908.00,368.00,1109.00,285.00,823.00,4095.00,4095.00,,,,,,,,,,,,1,0,3,,-4296,14432,5420,-330,486,255
39.019,38.79,2.66,1.34,3.62,-4.76,11.27,6.83,0.64,0.00,0.00,559.00,955.00,240.00,1180.00,369.00,682.00,4095.00,4095.00,,,,,,,,,,,,1,0,3,,-4316,14504,5608,-389,164,-102
39.102,38.84,2.84,6.32,0.70,3.74,2.87,6.41,-2.38,0.00,0.00,598.00,848.00,324.00,1056.00,438.00,752.00,4095.00,4095.00,,,,,,,,,,,,1,0,3,,-4296,14196,5740,-134,242,41
39.122,38.90,2.65,5.60,-0.46,5.65,-1.66,-0.96,4.45,0.00,0.00,645.00,900.00,400.00,1106.00,346.00,838.00,4095.00,4095.00,,,,,,,,,,,,1,0,3,,-4468,14008,5760,-193,385,240
39.162,38.95,2.63,2.09,2.94,-0.47,4.00,2.28,3.95,0.00,0.00,572.00,944.00,329.00,1210.00,335.00,747.00,4095.00,4095.00,,,,,,,,,,,,1,0,3,,-4216,14128,5464,-193,527,507
39.223,39.01,2.93,5.66,0.58,0.04,5.91,8.48,-3.25,0.00,0.00,609.00,873.00,294.00,1127.00,442.00,709.00,4095.00,4095.00,,,,,,,,,,,,1,0,3,,-4068,14412,5588,-176,365,701
39.304,39.06,2.87,5.45,-0.69,6.89,-2.53,1.72,1.62,0.00,0.00,655.00,911.00,410.00,1078.00,384.00,813.00,4095.00,4095.00,,,,,,,,,,,,1,0,3,,-4128,14628,5828,67,642,382
39.326,39.12,2.63,2.42,2.41,0.77,2.18,-1.89,8.54,0.00,0.00,585.00,945.00,355.00,1210.00,282.00,779.00,4095.00,4095.00,,,,,,,,,,,,1,0,3,,-4024,14504,5700,-377,837,327
39.387,39.17,2.89,4.27,1.66,-3.74,9.74,7.77,0.03,0.00,0.00,589.00,896.00,256.00,1181.00,375.00,668.00,4095.00,4095.00,,,,,,,,,,,,1,0,3,,-4160,14344,5468,-198,672,129
39.448,39.23,2.98,5.08,1.14,4.81,1.09,4.76,-0.83,0.00,0.00,597.00,880.00,350.00,1062.00,415.00,770.00,4095.00,4095.00,,,,,,,,,,,,1,0,3,,-4284,14088,5548,-484,674,448
39.488,39.28,2.63,5.17,0.30,3.51,-0.47,-3.94,9.42,0.00,0.00,624.00,897.00,390.00,1166.00,279.00,825.00,4095.00,4095.00,,,,,,,,,,,,1,0,3,,-4312,14012,5576,-643,1033,753
39.55,39.34,2.82,1.89,3.43,-4.40,9.53,6.29,0.57,0.00,0.00,559.00,939.00,262.00,1219.00,374.00,698.00,4095.00,4095.00,,,,,,,,,,,,1,0,3,,-4080,14172,5496,-1268,1170,1194
39.612,39.39,2.96,6.42,0.51,2.93,1.77,5.69,-2.93,0.00,0.00,603.00,849.00,349.00,1123.00,457.00,785.00,4095.00,4095.00,,,,,,,,,,,,1,0,3,,-3624,14760,5932,-346,1276,1053
39.674,39.45,2.74,4.76,-0.49,4.29,-2.92,-1.37,3.45,0.00,0.00,656.00,931.00,439.00,1207.00,368.00,875.00,4095.00,4095.00,,,,,,,,,,,,1,0,3,,-3548,14788,6032,825,940,426
39.736,39.50,2.68,0.63,3.46,-0.81,2.10,1.44,3.06,0.00,0.00,571.00,986.00,367.00,1291.00,357.00,791.00,4095.00,4095.00,,,,,,,,,,,,1,0,3,,-3500,14768,5172,893,432,330
39.798,39.56,2.93,5.21,0.40,-0.31,4.58,7.64,-3.30,0.00,0.00,620.00,893.00,318.00,1184.00,450.00,734.00,4095.00,4095.00,,,,,,,,,,,,1,0,3,,-3332,14340,4948,46,-328,243
39.839,39.61,2.86,5.16,-0.88,6.06,-2.61,1.59,1.01,0.00,0.00,665.00,926.00,418.00,1116.00,398.00,831.00,4095.00,4095.00,,,,,,,,,,,,1,0,3,,-3452,14544,5608,-243,-492,-434
