Time_Host,Time_Arduino,easingdata,CH1_Oxy,CH1_Deoxy,CH2_Oxy,CH2_Deoxy,CH3_Oxy,CH3_Deoxy,CH4_Oxy,CH4_Deoxy,CH1_PD730,CH1_PD850,CH2_PD730,CH2_PD850,CH3_PD730,CH3_PD850,CH4_PD730,CH4_PD850,Answers,airplane_playstate,trail_times,frameRate,Airplane X,Airplane Y,Correct,Wrong,Slow,AnswerRate,CorrectRate,VFTstates,VFTchoose,VFTCount,Culfstates,ax,ay,az,gx,gy,gz
1.155,0.04,0.00,0.00,0.00,0.00,0.00,0.00,0.00,0.00,0.00,525.00,1165.00,176.00,219.00,416.00,1270.00,570.00,885.00,,,,,,,,,,,,0,1,0,,-1376,15272,3916,-165,-22,-177
1.176,0.10,0.00,0.00,0.00,0.00,0.00,0.00,0.00,0.00,0.00,410.00,1177.00,69.00,292.00,451.00,1186.00,653.00,837.00,,,,,,,,,,,,0,1,0,,-1316,15360,3876,-348,-93,-221
1.197,0.15,0.00,0.00,0.00,0.00,0.00,0.00,0.00,0.00,0.00,528.00,1115.00,102.00,211.00,578.00,1182.00,685.00,883.00,,,,,,,,,,,,0,1,0,,-1276,15444,4248,-148,-118,-190
1.217,0.21,0.00,0.00,0.00,0.00,0.00,0.00,0.00,0.00,0.00,503.00,1187.00,236.00,185.00,464.00,1320.00,625.00,951.00,,,,,,,,,,,,0,1,0,,-1280,15336,3880,-257,-86,-38
1.239,0.26,0.00,0.00,0.00,0.00,0.00,0.00,0.00,0.00,0.00,475.00,1170.00,107.00,334.00,432.00,1215.00,607.00,883.00,,,,,,,,,,,,0,1,0,,-1212,15352,4184,-161,-12,-80
1.258,0.32,0.00,0.00,0.00,0.00,0.00,0.00,0.00,0.00,0.00,496.00,1163.00,54.00,229.00,560.00,1135.00,694.00,851.00,,,,,,,,,,,,0,1,0,,-1088,15508,4052,-179,131,-69
1.278,1.06,0.00,0.00,0.00,0.00,0.00,0.00,0.00,0.00,0.00,510.00,1187.00,225.00,199.00,462.00,1280.00,597.00,911.00,,,,,,,,,,,,0,1,0,,-868,15524,3856,20,157,-85
1.298,1.11,0.00,0.00,0.00,0.00,0.00,0.00,0.00,0.00,0.00,454.00,1168.00,102.00,354.00,425.00,1165.00,640.00,850.00,,,,,,,,,,,,0,1,0,,-1028,15524,3720,-68,87,-153
1.319,1.17,0.00,0.00,0.00,0.00,0.00,0.00,0.00,0.00,0.00,527.00,1136.00,80.00,208.00,569.00,1111.00,715.00,831.00,,,,,,,,,,,,0,1,0,,-860,15572,3708,-6,56,85
1.382,1.22,0.00,0.00,0.00,0.00,0.00,0.00,0.00,0.00,0.00,499.00,1138.00,225.00,131.00,458.00,1261.00,615.00,919.00,,,,,,,,,,,,0,1,0,,-872,15688,3856,37,202,188
1.444,1.28,-0.14,0.81,-0.40,-7.08,6.02,-2.86,4.66,-0.03,1.39,496.00,1136.00,113.00,266.00,394.00,1198.00,594.00,849.00,,,,,,,,,,,,0,1,0,,-888,15624,3528,139,235,-53
1.505,1.33,0.09,-1.53,1.98,-24.42,35.73,4.52,-2.18,4.18,-1.86,455.00,1169.00,31.00,238.00,499.00,1075.00,656.00,784.00,,,,,,,,,,,,0,1,0,,-808,15676,3692,71,88,-143
1.567,1.39,0.14,1.76,-0.19,23.57,-8.90,1.14,-1.44,-0.39,0.54,482.00,1088.00,145.00,118.00,510.00,1205.00,626.00,881.00,,,,,,,,,,,,0,1,0,,-844,15636,3628,0,24,-306
1.587,1.45,-0.11,0.66,-0.90,3.26,-3.65,-4.89,5.87,-1.04,2.01,511.00,1158.00,158.00,229.00,383.00,1257.00,585.00,869.00,,,,,,,,,,,,0,1,0,,-912,15608,3584,-206,-11,-343
1.648,1.50,-0.02,-3.70,4.06,-26.51,33.17,1.76,-0.46,2.38,-0.83,423.00,1205.00,37.00,277.00,478.00,1145.00,641.00,819.00,,,,,,,,,,,,0,1,0,,-944,15512,3632,-264,37,-299
1.709,1.55,0.16,2.63,-1.95,8.04,-1.94,3.42,-3.94,0.61,-1.02,522.00,1102.00,132.00,181.00,560.00,1177.00,669.00,883.00,,,,,,,,,,,,0,1,0,,-952,15540,3680,-291,94,-194
1.771,1.61,-0.05,-0.77,-0.41,11.62,-12.41,-4.05,2.69,-2.92,1.54,511.00,1210.00,218.00,208.00,448.00,1324.00,621.00,948.00,,,,,,,,,,,,0,1,0,,-976,15544,3824,-63,68,-62
1.854,1.66,-0.09,-1.27,1.53,-15.36,9.30,-0.72,2.46,0.86,0.12,464.00,1171.00,110.00,338.00,427.00,1168.00,626.00,848.00,,,,,,,,,,,,0,1,0,,-836,15480,3740,-177,140,-188
1.873,1.72,0.20,0.95,-0.70,-8.23,17.79,5.65,-5.18,3.36,-2.54,503.00,1139.00,61.00,203.00,575.00,1114.00,691.00,825.00,,,,,,,,,,,,0,1,0,,-864,15656,3556,-89,79,-147
1.934,1.77,0.15,0.32,-0.19,25.71,-15.09,-0.88,0.98,-1.60,1.04,495.00,1152.00,195.00,128.00,464.00,1223.00,623.00,912.00,,,,,,,,,,,,0,1,0,,-868,15636,3644,-199,15,-84
1.974,1.83,-0.05,1.46,-1.06,-3.55,3.11,-3.83,6.10,-0.44,1.91,508.00,1127.00,124.00,250.00,371.00,1198.00,582.00,851.00,,,,,,,,,,,,0,1,0,,-952,15412,3872,-246,68,-99
2.035,1.88,0.18,-1.53,1.86,-27.35,40.69,4.60,-2.02,4.27,-1.89,458.00,1173.00,25.00,234.00,494.00,1067.00,656.00,782.00,,,,,,,,,,,,0,1,0,,-928,15568,3524,-121,83,-241
2.097,1.94,0.27,2.89,-1.10,24.19,-8.85,1.92,-2.35,0.04,-0.10,496.00,1066.00,143.00,115.00,528.00,1197.00,643.00,881.00,,,,,,,,,,,,0,1,0,,-844,15476,3884,-186,-68,-47
2.158,2.00,0.05,0.77,-1.54,6.30,-6.97,-4.09,4.89,-1.77,3.00,528.00,1173.00,179.00,222.00,398.00,1250.00,562.00,871.00,,,,,,,,,,,,0,1,0,,-928,15460,3940,-193,17,-73
2.259,2.05,0.11,-3.19,4.24,-20.17,21.21,1.25,0.07,1.62,-0.74,415.00,1175.00,63.00,297.00,469.00,1152.00,647.00,842.00,,,,,,,,,,,,0,1,0,,-864,15540,3688,-145,35,-82
2.279,2.10,0.31,2.82,-2.44,0.26,5.26,4.24,-4.70,1.20,-1.47,534.00,1108.00,103.00,203.00,575.00,1163.00,678.00,873.00,,,,,,,,,,,,0,1,0,,-832,15532,3864,-112,24,-31
2.319,2.16,0.14,-0.39,-0.54,13.18,-14.71,-3.21,1.88,-2.97,1.89,511.00,1196.00,240.00,208.00,461.00,1309.00,610.00,941.00,,,,,,,,,,,,0,1,0,,-932,15608,3676,-169,-9,-54
2.36,2.21,0.06,-1.40,1.54,-15.80,10.84,-1.49,3.11,0.78,0.24,465.00,1177.00,102.00,330.00,418.00,1183.00,623.00,848.00,,,,,,,,,,,,0,1,0,,-740,15732,3884,-271,67,52
2.443,2.27,0.35,0.31,-0.38,-13.66,23.66,6.00,-5.33,3.21,-2.60,500.00,1158.00,49.00,215.00,576.00,1103.00,695.00,831.00,,,,,,,,,,,,0,1,0,,-792,15540,3796,-245,221,-156
2.484,2.33,0.35,-0.26,1.12,24.94,-13.96,0.19,-0.24,-0.87,1.12,466.00,1138.00,186.00,128.00,486.00,1211.00,612.00,884.00,,,,,,,,,,,,0,1,0,,-748,15532,3780,-290,125,-131
2.525,2.38,0.14,1.58,-1.17,-2.50,2.18,-3.73,5.92,-0.44,2.16,510.00,1125.00,128.00,246.00,374.00,1199.00,574.00,845.00,,,,,,,,,,,,0,1,0,,-848,15452,3484,-261,-177,-58
2.608,2.43,0.35,-2.37,3.48,-39.05,56.70,4.22,-2.15,3.99,-1.34,426.00,1161.00,13.00,242.00,501.00,1087.00,640.00,779.00,,,,,,,,,,,,0,1,0,,-752,15448,3716,-409,-444,-92
2.669,2.49,0.42,3.20,-1.09,22.95,-8.30,1.77,-2.19,0.39,-0.44,493.00,1053.00,142.00,119.00,525.00,1199.00,651.00,877.00,,,,,,,,,,,,0,1,0,,-704,15852,3868,-144,-736,-348
2.71,2.54,0.21,1.18,-1.43,5.96,-7.47,-3.66,3.84,-1.43,2.11,521.00,1151.00,185.00,228.00,418.00,1264.00,586.00,880.00,,,,,,,,,,,,0,1,0,,-712,15412,3924,-271,-651,-227
2.751,2.60,0.26,-2.06,3.25,-13.81,10.73,1.18,-0.38,1.89,-0.69,429.00,1154.00,99.00,306.00,481.00,1169.00,642.00,832.00,,,,,,,,,,,,0,1,0,,-700,15488,4060,-396,-550,-239
2.812,2.65,0.48,2.70,-2.12,0.88,4.35,4.68,-5.51,1.17,-1.89,526.00,1104.00,107.00,203.00,596.00,1168.00,694.00,884.00,,,,,,,,,,,,0,1,0,,-768,15504,4040,-295,-540,-254
2.854,2.71,0.29,0.04,-0.36,18.70,-17.24,-3.33,1.61,-3.15,1.80,502.00,1170.00,249.00,179.00,469.00,1325.00,615.00,950.00,,,,,,,,,,,,0,1,0,,-788,15408,3980,-263,-551,-253
2.913,2.77,0.21,-0.27,0.81,-12.80,6.99,-1.42,2.48,-0.30,0.96,474.00,1148.00,119.00,325.00,432.00,1200.00,611.00,868.00,,,,,,,,,,,,0,1,0,,-808,15216,4068,-352,-329,-82
2.975,2.82,0.43,0.17,-0.07,-13.58,21.84,4.61,-4.34,3.21,-2.54,493.00,1155.00,54.00,225.00,560.00,1135.00,693.00,830.00,,,,,,,,,,,,0,1,0,,-720,15448,4220,-366,-126,85
3.037,2.87,0.41,0.60,0.90,19.05,-7.25,0.08,-0.83,-0.54,0.50,464.00,1106.00,144.00,135.00,503.00,1236.00,629.00,887.00,,,,,,,,,,,,0,1,0,,-636,15564,4012,-310,-58,217
3.078,2.93,0.16,1.10,-0.53,-2.03,-0.16,-4.53,5.99,-1.12,2.81,497.00,1127.00,144.00,257.00,378.00,1235.00,561.00,853.00,,,,,,,,,,,,0,1,0,,-712,15436,4200,-243,-192,-141
3.141,2.98,0.33,-3.42,5.00,-17.31,20.54,3.53,-1.55,4.56,-2.13,400.00,1162.00,62.00,270.00,491.00,1099.00,661.00,778.00,,,,,,,,,,,,0,1,0,,-612,15484,4336,-65,-158,-48
3.202,3.04,0.40,2.87,-0.67,19.29,-7.33,1.73,-2.60,0.86,-0.80,485.00,1055.00,144.00,134.00,537.00,1214.00,658.00,869.00,,,,,,,,,,,,0,1,0,,-652,15372,4316,69,122,-28
3.244,3.10,0.23,-0.13,-0.04,7.92,-8.53,-3.07,2.57,-0.81,0.95,495.00,1168.00,189.00,217.00,443.00,1278.00,617.00,886.00,,,,,,,,,,,,0,1,0,,-668,15364,4048,145,337,93
3.326,3.15,0.24,-1.41,2.52,-19.74,15.97,0.54,0.50,1.59,-0.56,441.00,1147.00,83.00,336.00,464.00,1171.00,641.00,839.00,,,,,,,,,,,,0,1,0,,-500,15564,3928,46,243,255
3.346,3.20,0.48,1.83,-1.15,1.83,3.69,5.05,-5.61,2.46,-2.51,507.00,1113.00,109.00,199.00,595.00,1154.00,701.00,854.00,,,,,,,,,,,,0,1,0,,-468,15584,4108,-46,247,143
3.407,3.26,0.30,0.45,-0.35,19.40,-16.80,-3.23,1.57,-3.01,1.90,498.00,1151.00,240.00,172.00,469.00,1321.00,610.00,942.00,,,,,,,,,,,,0,1,0,,-500,15536,3948,-106,253,-37
3.51,3.31,0.19,0.65,-0.15,-11.24,5.85,-1.83,2.75,-0.28,1.32,491.00,1136.00,123.00,315.00,429.00,1211.00,599.00,859.00,,,,,,,,,,,,0,1,0,,-420,15436,3820,-352,58,-136
3.53,3.37,0.38,-1.10,1.52,-16.75,25.87,3.89,-3.01,1.54,-0.97,463.00,1164.00,46.00,229.00,528.00,1127.00,656.00,850.00,,,,,,,,,,,,0,1,0,,-600,15472,4048,-313,-42,-130
3.571,3.42,0.36,0.88,0.77,20.88,-7.08,0.05,-1.11,-1.22,0.88,465.00,1098.00,138.00,125.00,511.00,1247.00,624.00,902.00,,,,,,,,,,,,0,1,0,,-464,15536,4448,-177,119,-281
3.653,3.48,0.11,1.17,-1.03,1.18,-3.86,-4.55,5.28,-1.91,3.24,510.00,1139.00,166.00,250.00,393.00,1260.00,556.00,870.00,,,,,,,,,,,,0,1,0,,-540,15416,4072,-74,210,-116
3.716,3.54,0.25,-3.67,5.08,-26.20,32.57,2.92,-1.68,3.26,-1.06,400.00,1171.00,38.00,278.00,500.00,1130.00,639.00,796.00,,,,,,,,,,,,0,1,0,,-552,15396,3876,-7,54,-76
3.757,3.59,0.37,3.53,-1.79,11.24,-4.10,2.66,-3.85,0.80,-0.58,509.00,1059.00,140.00,169.00,565.00,1210.00,651.00,866.00,,,,,,,,,,,,0,1,0,,-508,15624,4132,-34,95,-109
3.818,3.64,0.21,0.10,-0.19,9.03,-10.67,-2.85,1.40,-1.87,1.43,497.00,1162.00,208.00,220.00,470.00,1307.00,613.00,912.00,,,,,,,,,,,,0,1,0,,-444,15604,3996,-10,181,87
3.879,3.70,0.19,-1.43,2.20,-16.39,8.99,-0.27,0.98,1.04,-0.14,449.00,1158.00,114.00,355.00,459.00,1194.00,633.00,848.00,,,,,,,,,,,,0,1,0,,-424,15516,4044,-136,153,21
3.9,3.75,0.43,1.70,-1.24,-5.72,11.94,5.07,-5.86,3.27,-2.86,511.00,1122.00,80.00,215.00,603.00,1161.00,704.00,835.00,,,,,,,,,,,,0,1,0,,-344,15568,3944,-108,149,-64
3.962,3.81,0.29,0.61,-0.33,21.27,-16.15,-2.47,1.16,-2.53,1.80,496.00,1143.00,224.00,157.00,473.00,1296.00,608.00,927.00,,,,,,,,,,,,0,1,0,,-376,15520,4036,-82,159,-113
4.023,3.87,0.14,0.80,-0.28,-6.57,4.43,-2.69,3.43,-0.59,1.09,493.00,1133.00,122.00,272.00,420.00,1230.00,610.00,875.00,,,,,,,,,,,,0,1,0,,-452,15428,4120,12,91,-59
4.063,3.92,0.29,-1.69,2.04,-30.87,45.10,3.10,-2.14,2.91,-1.43,455.00,1175.00,21.00,239.00,511.00,1136.00,656.00,815.00,,,,,,,,,,,,0,1,0,,-424,15632,4052,-79,153,-77
4.126,3.98,0.28,2.18,-0.25,23.34,-8.56,0.21,-1.77,-0.77,0.26,480.00,1072.00,143.00,118.00,528.00,1261.00,640.00,901.00,,,,,,,,,,,,0,1,0,,-448,15416,4068,-53,161,18
4.187,4.03,0.07,0.59,-0.73,1.74,-5.13,-3.97,4.58,-2.41,2.76,507.00,1156.00,176.00,253.00,404.00,1255.00,576.00,899.00,,,,,,,,,,,,0,1,0,,-320,15620,3988,16,252,-132
4.248,4.08,0.16,-4.08,4.90,-25.00,27.48,1.77,-1.22,1.96,-0.66,407.00,1196.00,49.00,304.00,498.00,1168.00,640.00,829.00,,,,,,,,,,,,0,1,0,,-460,15344,3944,-40,141,-116
4.29,4.14,0.31,3.08,-2.21,7.71,-4.79,3.28,-4.95,0.51,-1.12,525.00,1090.00,155.00,198.00,593.00,1216.00,674.00,889.00,,,,,,,,,,,,0,1,0,,-452,15476,3980,112,75,-171
4.351,4.20,0.09,0.26,-0.61,12.27,-14.25,-4.13,1.96,-3.16,1.53,507.00,1168.00,238.00,213.00,467.00,1355.00,624.00,957.00,,,,,,,,,,,,0,1,0,,-480,15580,3976,143,168,-167
4.433,4.25,0.03,-0.67,1.98,-15.60,9.21,-1.07,1.69,0.76,0.21,448.00,1130.00,111.00,342.00,448.00,1209.00,624.00,849.00,,,,,,,,,,,,0,1,0,,-376,15492,3928,113,153,26
4.453,4.30,0.25,0.81,-0.40,-6.80,16.42,4.41,-5.11,2.53,-2.48,496.00,1136.00,64.00,199.00,586.00,1168.00,699.00,851.00,,,,,,,,,,,,0,1,0,,-400,15508,3948,194,146,-75
4.515,4.36,0.19,0.86,-0.04,17.80,-12.42,-0.91,-0.24,-1.63,1.29,486.00,1123.00,195.00,163.00,496.00,1265.00,615.00,907.00,,,,,,,,,,,,0,1,0,,-396,15496,3912,-5,76,-59
4.576,4.41,-0.02,1.57,-1.09,-3.81,2.33,-4.13,4.82,-0.68,1.73,508.00,1123.00,130.00,258.00,400.00,1255.00,590.00,863.00,,,,,,,,,,,,0,1,0,,-432,15620,3692,22,147,-35
4.617,4.47,0.18,-2.37,3.22,-47.62,66.38,4.08,-3.52,2.64,-1.17,432.00,1169.00,9.00,262.00,541.00,1134.00,650.00,818.00,,,,,,,,,,,,0,1,0,,-536,15452,3784,-65,126,-25
4.679,4.53,0.23,2.57,-0.76,21.27,-9.11,1.18,-3.02,-0.72,-0.18,490.00,1070.00,153.00,130.00,555.00,1255.00,655.00,910.00,,,,,,,,,,,,0,1,0,,-376,15468,3828,-50,107,-16
4.742,4.58,0.06,-0.49,-0.36,5.24,-9.39,-3.28,1.87,-3.21,2.55,507.00,1195.00,208.00,247.00,462.00,1313.00,591.00,933.00,,,,,,,,,,,,0,1,0,,-304,15520,3976,-96,134,-77
4.823,4.63,0.06,-3.52,4.58,-16.95,13.34,0.23,-0.85,0.38,-0.55,410.00,1180.00,91.00,323.00,502.00,1229.00,655.00,880.00,,,,,,,,,,,,0,1,0,,-220,15804,4108,131,229,-134
4.865,4.69,0.25,2.14,-2.00,-1.33,3.44,3.77,-5.70,0.70,-1.70,528.00,1125.00,117.00,227.00,612.00,1217.00,693.00,896.00,,,,,,,,,,,,0,1,0,,-408,15436,3700,-57,148,-217
4.907,4.75,0.06,-0.30,-0.39,12.60,-11.05,-3.61,1.04,-3.89,2.08,506.00,1187.00,199.00,193.00,486.00,1360.00,614.00,971.00,,,,,,,,,,,,0,1,0,,-440,15576,3836,62,-21,-260
4.99,4.80,-0.06,-0.58,1.11,-15.31,9.12,-2.36,2.88,-0.06,0.82,469.00,1153.00,111.00,339.00,430.00,1232.00,613.00,863.00,,,,,,,,,,,,0,1,0,,-448,15648,3844,-102,26,-182
5.01,4.86,0.15,-0.46,0.60,-16.06,24.85,4.30,-4.43,2.48,-2.14,481.00,1163.00,48.00,229.00,566.00,1152.00,687.00,845.00,,,,,,,,,,,,0,1,0,,-452,15468,3848,26,105,60
5.071,4.91,0.13,-0.45,1.46,23.10,-11.24,-0.32,-0.99,-1.87,1.07,459.00,1136.00,166.00,128.00,511.00,1261.00,625.00,921.00,,,,,,,,,,,,0,1,0,,-372,15484,3600,-56,104,-159
5.111,4.96,-0.17,1.21,-1.08,-0.35,-0.85,-5.95,6.67,-1.91,2.66,511.00,1139.00,145.00,245.00,374.00,1283.00,574.00,884.00,,,,,,,,,,,,0,1,0,,-332,15624,3640,22,-11,-103
5.174,5.02,-0.00,-3.46,4.42,-37.54,47.34,3.23,-2.79,2.95,-1.53,413.00,1182.00,21.00,293.00,528.00,1150.00,659.00,816.00,,,,,,,,,,,,0,1,0,,-328,15548,3644,-45,75,-106
5.236,5.08,0.06,2.65,-1.13,13.62,-5.80,1.27,-3.58,-0.25,-0.76,499.00,1077.00,147.00,161.00,571.00,1269.00,670.00,907.00,,,,,,,,,,,,0,1,0,,-388,15628,3748,-44,101,-90
5.297,5.13,-0.10,-0.39,-0.54,6.31,-9.75,-3.20,1.02,-2.08,1.05,511.00,1196.00,208.00,239.00,483.00,1339.00,628.00,929.00,,,,,,,,,,,,0,1,0,,-356,15652,3588,-70,86,-61
5.338,5.18,-0.15,-2.53,3.03,-16.43,10.87,-1.09,0.23,0.14,-0.42,438.00,1183.00,103.00,338.00,485.00,1258.00,653.00,885.00,,,,,,,,,,,,0,1,0,,-304,15632,3680,-221,64,-92
5.399,5.24,0.06,2.36,-2.52,-1.62,5.89,4.14,-6.09,1.84,-3.17,541.00,1131.00,103.00,215.00,621.00,1212.00,735.00,891.00,,,,,,,,,,,,0,1,0,,-240,15780,3928,-167,139,1
5.461,5.29,-0.13,-0.33,0.02,18.06,-15.88,-3.72,1.23,-3.93,1.94,495.00,1175.00,234.00,177.00,482.00,1359.00,619.00,976.00,,,,,,,,,,,,0,1,0,,-292,15524,3816,-224,136,-131
5.542,5.35,-0.26,0.33,-0.05,-8.92,3.63,-2.79,2.86,-1.20,1.69,491.00,1147.00,133.00,305.00,434.00,1254.00,597.00,882.00,,,,,,,,,,,,0,1,0,,-348,15608,3732,-137,48,-191
5.563,5.41,-0.09,-1.21,1.36,-18.14,25.55,3.12,-2.79,2.11,-1.41,468.00,1174.00,48.00,244.00,529.00,1155.00,665.00,841.00,,,,,,,,,,,,0,1,0,,-224,15616,3824,-136,53,-70
5.604,5.46,-0.09,0.87,0.58,22.30,-10.05,-0.15,-2.00,-1.64,0.84,470.00,1104.00,158.00,128.00,538.00,1287.00,630.00,918.00,,,,,,,,,,,,0,1,0,,-252,15548,3596,-56,164,-93
5.666,5.51,-0.35,0.72,-1.48,-2.69,-1.29,-5.30,4.93,-2.69,2.88,527.00,1174.00,155.00,272.00,406.00,1310.00,575.00,906.00,,,,,,,,,,,,0,1,0,,-344,15532,3628,-83,114,-240
5.727,5.57,-0.28,-4.06,5.22,-27.31,32.00,1.17,-1.49,2.06,-1.34,400.00,1185.00,40.00,295.00,511.00,1205.00,663.00,841.00,,,,,,,,,,,,0,1,0,,-340,15600,3784,-72,-13,-174
5.768,5.62,-0.16,2.76,-2.14,1.00,3.63,2.12,-4.53,-0.18,-1.67,526.00,1102.00,111.00,206.00,592.00,1259.00,703.00,927.00,,,,,,,,,,,,0,1,0,,-232,15604,3700,-170,43,-183
5.829,5.68,-0.39,-1.23,0.63,11.05,-13.99,-4.71,1.80,-3.09,1.51,487.00,1198.00,240.00,222.00,476.00,1392.00,624.00,955.00,,,,,,,,,,,,0,1,0,,-416,15544,3740,-141,80,-177
5.91,5.74,-0.47,-2.50,2.60,-17.05,10.38,-2.14,1.60,-0.45,0.04,448.00,1195.00,107.00,351.00,459.00,1264.00,644.00,895.00,,,,,,,,,,,,0,1,0,,-328,15484,3800,-218,123,-85
5.931,5.79,-0.28,0.38,-0.80,-10.42,15.72,3.39,-5.17,1.30,-2.25,511.00,1168.00,71.00,234.00,599.00,1218.00,706.00,888.00,,,,,,,,,,,,0,1,0,,-400,15656,3740,-240,99,-170
5.992,5.84,-0.37,-0.12,0.11,17.85,-13.64,-2.15,-0.30,-2.32,0.61,491.00,1163.00,208.00,168.00,509.00,1331.00,646.00,949.00,,,,,,,,,,,,0,1,0,,-408,15436,3716,-258,69,-146
6.054,5.90,-0.60,1.01,-1.01,-5.06,1.12,-4.91,4.62,-2.47,2.27,511.00,1146.00,142.00,280.00,410.00,1301.00,592.00,913.00,,,,,,,,,,,,0,1,0,,-284,15828,3888,-116,164,-264
6.116,5.95,-0.43,-2.06,2.20,-35.41,47.52,2.71,-2.47,2.81,-2.09,454.00,1187.00,20.00,268.00,524.00,1164.00,681.00,833.00,,,,,,,,,,,,0,1,0,,-392,15564,3880,-178,45,-225
6.178,6.01,-0.41,2.15,-0.66,22.97,-8.95,-0.02,-2.45,-1.41,0.02,491.00,1085.00,147.00,121.00,550.00,1296.00,656.00,930.00,,,,,,,,,,,,0,1,0,,-436,15428,3780,-152,16,-189
6.28,6.07,-0.63,0.59,-1.58,4.44,-7.45,-4.74,3.60,-2.75,2.52,531.00,1183.00,190.00,242.00,432.00,1328.00,587.00,917.00,,,,,,,,,,,,0,1,0,,-356,15600,3920,-174,112,-150
6.3,6.12,-0.59,-3.69,4.63,-17.17,14.24,0.26,-1.18,0.71,-1.08,410.00,1186.00,87.00,318.00,511.00,1239.00,670.00,881.00,,,,,,,,,,,,0,1,0,,-296,15496,3804,-159,163,-21
6.341,6.17,-0.44,2.10,-1.81,2.98,1.07,2.27,-4.58,0.06,-1.78,523.00,1121.00,123.00,204.00,592.00,1253.00,704.00,921.00,,,,,,,,,,,,0,1,0,,-348,15640,3860,-154,101,-125
6.382,6.23,-0.65,-0.96,0.20,13.85,-16.05,-4.66,2.05,-4.03,1.83,496.00,1199.00,255.00,210.00,469.00,1380.00,624.00,983.00,,,,,,,,,,,,0,1,0,,-280,15528,3872,-201,54,-137
6.444,6.29,-0.76,-1.06,1.23,-15.70,9.25,-2.74,2.46,-0.78,0.73,470.00,1171.00,111.00,343.00,443.00,1265.00,624.00,890.00,,,,,,,,,,,,0,1,0,,-300,15596,3872,-51,144,-147
6.486,6.34,-0.56,-0.25,0.22,-14.39,20.79,3.23,-4.04,1.99,-2.30,489.00,1165.00,58.00,239.00,565.00,1189.00,699.00,865.00,,,,,,,,,,,,0,1,0,,-340,15532,3888,-138,106,-80
6.548,6.39,-0.63,-0.57,1.38,18.62,-9.28,-1.89,-0.46,-2.12,0.63,462.00,1144.00,162.00,145.00,511.00,1323.00,643.00,941.00,,,,,,,,,,,,0,1,0,,-320,15644,3876,-113,118,-82
6.651,6.45,-0.88,1.14,-1.70,-1.96,-1.54,-5.70,5.02,-3.37,2.95,529.00,1161.00,155.00,266.00,407.00,1328.00,580.00,929.00,,,,,,,,,,,,0,1,0,,-308,15500,3840,-166,136,-114
6.672,6.50,-0.73,-3.38,3.74,-38.71,49.58,2.16,-2.71,2.17,-1.90,428.00,1200.00,19.00,289.00,536.00,1197.00,682.00,850.00,,,,,,,,,,,,0,1,0,,-296,15644,3924,-144,102,-121
6.712,6.56,-0.66,2.40,-1.30,13.08,-5.24,0.63,-3.62,-1.42,-0.47,506.00,1093.00,144.00,162.00,579.00,1303.00,674.00,943.00,,,,,,,,,,,,0,1,0,,-256,15660,3904,-13,138,-13
6.775,6.62,-0.84,0.17,-1.68,5.24,-9.39,-4.36,1.80,-3.13,1.38,538.00,1206.00,208.00,247.00,473.00,1373.00,629.00,960.00,,,,,,,,,,,,0,1,0,,-352,15320,3944,-83,152,-236
6.816,6.67,-0.85,-1.98,2.34,-17.35,10.83,-1.05,0.14,-0.72,-0.18,450.00,1179.00,105.00,351.00,487.00,1259.00,655.00,910.00,,,,,,,,,,,,0,1,0,,-276,15624,3524,-27,50,-192
6.88,6.72,-0.63,1.70,-1.24,-1.01,4.47,3.65,-6.02,1.06,-2.61,511.00,1122.00,110.00,218.00,624.00,1233.00,723.00,905.00,,,,,,,,,,,,0,1,0,,-280,15516,3888,-115,31,-65
6.941,6.78,-0.77,-0.47,0.11,17.55,-16.18,-3.51,0.48,-4.11,1.94,494.00,1179.00,240.00,182.00,500.00,1375.00,621.00,983.00,,,,,,,,,,,,0,1,0,,-284,15492,3900,-92,154,-93
7.002,6.83,-0.95,0.10,-0.19,-10.96,5.91,-4.41,4.23,-1.69,1.58,497.00,1162.00,122.00,311.00,415.00,1289.00,606.00,902.00,,,,,,,,,,,,0,1,0,,-256,15640,3528,-80,149,-203
7.043,6.89,-0.79,-1.63,1.50,-24.58,33.55,2.43,-2.73,0.88,-0.69,468.00,1189.00,35.00,254.00,534.00,1185.00,654.00,866.00,,,,,,,,,,,,0,1,0,,-280,15716,3752,-96,44,-99
7.105,6.95,-0.77,1.42,0.00,21.19,-9.56,-0.49,-1.85,-2.05,0.40,480.00,1097.00,157.00,132.00,537.00,1299.00,650.00,944.00,,,,,,,,,,,,0,1,0,,-288,15572,3848,-116,81,-169
7.148,7.00,-1.01,0.86,-1.57,-0.63,-4.33,-5.51,4.29,-3.89,3.48,528.00,1170.00,176.00,272.00,422.00,1344.00,569.00,935.00,,,,,,,,,,,,0,1,0,,-336,15484,3788,-99,163,-153
7.211,7.05,-0.94,-4.35,5.08,-21.72,22.63,0.42,-1.24,0.80,-0.92,405.00,1203.00,60.00,304.00,511.00,1233.00,663.00,874.00,,,,,,,,,,,,0,1,0,,-312,15504,3752,-126,81,-80
7.273,7.11,-0.82,2.20,-1.41,2.03,1.39,1.36,-4.49,-1.15,-0.92,511.00,1105.00,123.00,210.00,599.00,1296.00,687.00,944.00,,,,,,,,,,,,0,1,0,,-196,15520,3924,-104,112,-131
7.374,7.16,-1.05,-1.31,0.32,7.67,-12.07,-5.31,1.92,-4.37,1.50,496.00,1212.00,230.00,241.00,478.00,1421.00,639.00,1005.00,,,,,,,,,,,,0,1,0,,-232,15504,3720,-131,128,-163
7.394,7.22,-1.16,-2.01,1.78,-16.69,8.30,-3.23,2.25,-1.16,0.31,464.00,1198.00,119.00,366.00,452.00,1297.00,643.00,914.00,,,,,,,,,,,,0,1,0,,-316,15428,3856,-34,120,-176
7.455,7.28,-0.98,0.03,-0.32,-12.33,17.44,2.34,-4.19,0.90,-2.65,501.00,1169.00,67.00,241.00,579.00,1237.00,727.00,912.00,,,,,,,,,,,,0,1,0,,-244,15892,3864,7,151,-192
7.496,7.33,-1.03,-0.48,1.15,21.55,-14.61,-1.89,-0.46,-2.37,0.89,467.00,1147.00,205.00,149.00,511.00,1323.00,637.00,944.00,,,,,,,,,,,,0,1,0,,-228,15628,3676,-131,104,-178
7.538,7.38,-1.22,1.08,-0.89,-5.98,1.56,-4.97,4.51,-2.50,2.28,507.00,1139.00,141.00,287.00,413.00,1308.00,592.00,914.00,,,,,,,,,,,,0,1,0,,-368,15628,3768,-55,15,-203
7.601,7.44,-1.02,-2.99,3.48,-27.77,35.71,2.83,-2.96,2.64,-1.76,431.00,1190.00,33.00,272.00,537.00,1174.00,671.00,831.00,,,,,,,,,,,,0,1,0,,-296,15628,3880,-165,80,-122
7.663,7.50,-0.94,2.28,-0.89,19.05,-7.25,0.65,-3.53,-1.94,0.17,496.00,1086.00,144.00,135.00,576.00,1299.00,657.00,946.00,,,,,,,,,,,,0,1,0,,-336,15648,3816,-138,207,25
7.748,7.55,-1.15,-0.76,-0.13,-0.26,-6.35,-5.28,3.57,-3.08,2.17,503.00,1200.00,195.00,283.00,437.00,1358.00,602.00,938.00,,,,,,,,,,,,0,1,0,,-324,15528,3712,-183,99,-114
7.768,7.61,-1.12,-3.03,3.88,-18.87,15.03,-0.53,-0.59,-0.38,-0.61,422.00,1179.00,86.00,333.00,502.00,1258.00,666.00,908.00,,,,,,,,,,,,0,1,0,,-356,15628,3804,-184,-130,-101
7.809,7.66,-0.93,2.14,-1.96,0.54,2.19,2.82,-5.70,2.93,-3.03,527.00,1124.00,121.00,218.00,623.00,1264.00,715.00,850.00,,,,,,,,,,,,0,1,0,,-312,15592,3832,-156,-29,-129
7.872,7.71,-1.11,-0.82,0.15,16.07,-16.94,-4.64,1.35,-4.56,1.86,496.00,1194.00,257.00,197.00,487.00,1405.00,629.00,1003.00,,,,,,,,,,,,0,1,0,,-356,15572,3956,-199,139,-81
7.934,7.77,-1.26,-0.64,0.78,-13.58,6.34,-4.01,3.44,-1.64,1.05,478.00,1166.00,125.00,341.00,430.00,1296.00,623.00,913.00,,,,,,,,,,,,0,1,0,,-308,15560,3788,-207,106,-8
7.976,7.83,-1.08,-1.09,0.77,-19.71,26.08,2.35,-3.58,0.38,-1.35,482.00,1187.00,48.00,256.00,560.00,1216.00,684.00,899.00,,,,,,,,,,,,0,1,0,,-316,15580,3824,-203,109,-111
8.037,7.88,-1.10,-0.70,1.50,17.63,-8.83,-1.59,-1.27,-2.81,0.95,460.00,1146.00,161.00,149.00,531.00,1336.00,640.00,959.00,,,,,,,,,,,,0,1,0,,-252,15512,3760,-126,33,-118
8.12,7.93,-1.38,0.58,-0.87,-2.97,-2.35,-6.57,5.82,-3.92,3.36,511.00,1161.00,165.00,283.00,396.00,1345.00,573.00,939.00,,,,,,,,,,,,0,1,0,,-140,15700,3896,20,66,-141
8.14,7.99,-1.23,-4.41,5.19,-26.41,30.80,1.47,-2.13,0.93,-0.85,403.00,1202.00,42.00,294.00,526.00,1211.00,659.00,868.00,,,,,,,,,,,,0,1,0,,-260,15492,3712,-42,108,-139
8.2,8.05,-1.12,2.53,-1.52,9.15,-1.45,1.06,-3.66,-1.01,-0.72,511.00,1094.00,126.00,171.00,576.00,1283.00,678.00,934.00,,,,,,,,,,,,0,1,0,,-372,15544,3804,-62,37,-168
8.262,8.10,-1.32,-0.77,-0.27,5.87,-9.87,-5.19,2.19,-3.23,1.41,507.00,1205.00,211.00,244.00,470.00,1404.00,629.00,963.00,,,,,,,,,,,,0,1,0,,-288,15600,3820,-84,57,-156
8.303,8.16,-1.33,-2.47,2.71,-19.54,11.39,-1.42,0.19,-0.81,-0.10,445.00,1190.00,106.00,377.00,489.00,1276.00,653.00,911.00,,,,,,,,,,,,0,1,0,,-156,15736,3832,10,149,-80
8.364,8.21,-1.10,0.86,-0.89,-8.14,11.42,3.29,-5.38,0.78,-2.84,509.00,1149.00,86.00,240.00,607.00,1230.00,736.00,921.00,,,,,,,,,,,,0,1,0,,-264,15488,3788,-82,73,-82
8.428,8.27,-1.18,-0.03,-0.22,15.18,-13.69,-2.83,0.15,-4.27,1.91,499.00,1169.00,219.00,187.00,503.00,1351.00,624.00,990.00,,,,,,,,,,,,0,1,0,,-304,15576,3868,-212,52,-127
8.489,8.32,-1.35,1.19,-0.56,-8.45,4.18,-4.54,3.62,-2.63,1.99,497.00,1124.00,128.00,295.00,430.00,1317.00,603.00,926.00,,,,,,,,,,,,0,1,0,,-272,15664,3924,-202,193,-79
8.53,8.38,-1.17,-2.33,2.54,-34.35,45.41,2.30,-2.79,1.57,-1.23,448.00,1189.00,22.00,272.00,537.00,1193.00,665.00,855.00,,,,,,,,,,,,0,1,0,,-208,15564,3804,-273,124,-127
8.612,8.43,-1.14,1.21,0.07,17.01,-7.92,-0.63,-2.41,-2.14,0.46,480.00,1104.00,155.00,149.00,555.00,1326.00,649.00,946.00,,,,,,,,,,,,0,1,0,,-248,15620,3832,-310,35,-139
8.633,8.49,-1.41,-0.50,-0.50,-0.27,-4.46,-6.47,4.97,-3.87,2.75,511.00,1200.00,176.00,269.00,414.00,1371.00,592.00,953.00,,,,,,,,,,,,0,1,0,,-156,15536,3956,-168,-9,-72
8.693,8.54,-1.41,-4.07,4.94,-22.97,20.74,-1.47,-0.05,-0.44,-0.56,406.00,1194.00,68.00,336.00,496.00,1287.00,665.00,909.00,,,,,,,,,,,,0,1,0,,-112,15716,4012,-103,196,73
8.755,8.60,-1.24,1.87,-1.73,0.27,1.24,1.93,-4.83,-0.39,-1.76,523.00,1129.00,128.00,226.00,604.00,1279.00,709.00,937.00,,,,,,,,,,,,0,1,0,,-128,15464,3912,-20,254,-108
8.859,8.65,-1.44,-0.86,0.05,11.32,-15.05,-5.19,1.92,-4.23,1.89,499.00,1199.00,253.00,226.00,477.00,1414.00,624.00,989.00,,,,,,,,,,,,0,1,0,,-192,15640,3824,-92,71,-151
8.879,8.71,-1.52,-1.50,1.97,-15.52,7.29,-3.02,2.64,-0.89,0.77,455.00,1168.00,123.00,359.00,441.00,1273.00,624.00,893.00,,,,,,,,,,,,0,1,0,,-44,15688,3884,-57,67,-167
8.941,8.76,-1.28,-1.09,1.28,-15.22,21.39,3.36,-4.53,1.52,-2.45,469.00,1171.00,57.00,243.00,579.00,1199.00,711.00,885.00,,,,,,,,,,,,0,1,0,,-188,15532,3952,-23,94,-162
8.983,8.82,-1.28,-0.82,1.75,19.31,-11.56,-1.41,-1.23,-2.28,1.15,455.00,1144.00,181.00,150.00,528.00,1325.00,627.00,934.00,,,,,,,,,,,,0,1,0,,-84,15524,3876,37,111,-340
9.024,8.87,-1.52,0.76,-0.75,-3.88,0.47,-6.05,5.93,-2.51,2.41,506.00,1149.00,144.00,272.00,390.00,1314.00,588.00,911.00,,,,,,,,,,,,0,1,0,,-244,15604,3788,-20,28,-284
9.086,8.93,-1.34,-3.53,4.40,-42.20,55.12,2.11,-2.41,1.54,-0.89,414.00,1186.00,15.00,286.00,528.00,1190.00,653.00,848.00,,,,,,,,,,,,0,1,0,,-160,15424,3788,-83,85,-288
9.127,8.98,-1.26,2.22,-0.87,12.48,-5.04,0.27,-2.88,-1.78,-0.02,496.00,1088.00,144.00,165.00,560.00,1296.00,662.00,945.00,,,,,,,,,,,,0,1,0,,-260,15532,3832,-81,110,-296
9.25,9.04,-1.42,-0.61,-0.25,4.20,-7.57,-4.55,1.71,-3.69,1.36,505.00,1197.00,192.00,245.00,477.00,1387.00,636.00,982.00,,,,,,,,,,,,0,1,0,,-328,15564,3772,-204,31,-227
9.271,9.09,-1.40,-2.95,3.42,-15.97,7.75,-1.01,-0.47,-0.23,-0.98,432.00,1190.00,121.00,361.00,503.00,1278.00,678.00,912.00,,,,,,,,,,,,0,1,0,,-260,15624,3888,-176,102,-202
9.311,9.15,-1.17,1.17,-0.92,-3.88,8.54,3.18,-6.24,0.05,-2.01,507.00,1136.00,93.00,219.00,637.00,1264.00,713.00,927.00,,,,,,,,,,,,0,1,0,,-256,15732,3880,-134,169,-117
9.353,9.20,-1.31,-0.45,0.14,18.04,-17.09,-3.90,0.88,-4.43,1.96,493.00,1177.00,250.00,183.00,493.00,1382.00,624.00,995.00,,,,,,,,,,,,0,1,0,,-408,15432,3728,-103,118,-215
9.415,9.26,-1.46,-0.11,0.40,-12.54,7.53,-4.31,4.19,-1.95,1.54,483.00,1153.00,115.00,317.00,415.00,1285.00,610.00,912.00,,,,,,,,,,,,0,1,0,,-232,15652,3736,-97,-19,-250
9.477,9.31,-1.27,-1.54,1.43,-36.54,50.91,2.44,-2.90,1.57,-1.37,469.00,1187.00,17.00,256.00,539.00,1190.00,670.00,858.00,,,,,,,,,,,,0,1,0,,-244,15540,3896,-163,76,-99
9.539,9.37,-1.25,0.60,0.95,22.50,-10.35,-0.86,-1.41,-2.31,0.84,463.00,1105.00,160.00,128.00,528.00,1303.00,638.00,943.00,,,,,,,,,,,,0,1,0,,-332,15592,3900,-89,159,0
9.581,9.42,-1.49,0.19,-0.22,-1.27,-2.70,-6.23,5.38,-3.69,3.22,497.00,1159.00,163.00,267.00,403.00,1343.00,575.00,934.00,,,,,,,,,,,,0,1,0,,-272,15460,3780,-132,112,-117
9.643,9.48,-1.40,-3.80,5.17,-27.28,30.23,0.46,-0.85,1.19,-1.02,399.00,1174.00,44.00,309.00,500.00,1218.00,662.00,863.00,,,,,,,,,,,,0,1,0,,-200,15588,3904,-122,59,-103
9.705,9.53,-1.27,2.58,-2.08,0.77,0.51,1.16,-3.70,-1.08,-0.78,526.00,1108.00,132.00,226.00,576.00,1279.00,681.00,938.00,,,,,,,,,,,,0,1,0,,-344,15592,3772,-152,54,-116
9.766,9.59,-1.45,-0.68,-0.12,8.99,-12.43,-4.95,2.07,-4.62,2.35,502.00,1196.00,229.00,231.00,471.00,1395.00,613.00,992.00,,,,,,,,,,,,0,1,0,,-324,15664,3876,-109,105,-128
9.808,9.64,-1.52,-2.26,2.56,-18.95,11.02,-2.71,1.84,-1.46,0.87,447.00,1185.00,107.00,372.00,458.00,1285.00,627.00,911.00,,,,,,,,,,,,0,1,0,,-256,15556,3808,-149,123,-61
9.849,9.70,-1.27,0.19,0.00,-12.86,19.96,3.50,-4.99,0.95,-2.36,491.00,1152.00,59.00,230.00,592.00,1207.00,715.00,903.00,,,,,,,,,,,,0,1,0,,-164,15676,4032,-152,100,-69
9.911,9.75,-1.34,-0.72,1.11,17.18,-11.74,-2.82,0.40,-2.75,1.02,470.00,1159.00,190.00,164.00,496.00,1341.00,637.00,955.00,,,,,,,,,,,,0,1,0,,-196,15708,3952,-82,140,28
9.951,9.81,-1.52,0.65,-0.49,-3.77,0.30,-4.79,4.45,-1.37,1.35,500.00,1146.00,145.00,272.00,413.00,1301.00,610.00,896.00,,,,,,,,,,,,0,1,0,,-100,15448,3768,-83,168,-180
10.013,9.86,-1.28,-3.07,3.72,-39.51,53.03,3.10,-2.99,2.16,-0.87,426.00,1186.00,16.00,272.00,535.00,1162.00,645.00,827.00,,,,,,,,,,,,0,1,0,,-244,15716,3820,-21,28,-168
10.076,9.91,-1.19,2.41,-0.60,16.94,-6.79,0.70,-3.06,-1.30,-0.02,487.00,1072.00,146.00,145.00,561.00,1280.00,656.00,927.00,,,,,,,,,,,,0,1,0,,-276,15584,3936,-86,66,-83
10.158,9.97,-1.37,-0.28,-0.18,4.64,-7.90,-4.81,3.11,-3.01,2.27,500.00,1179.00,194.00,243.00,444.00,1349.00,598.00,933.00,,,,,,,,,,,,0,1,0,,-284,15572,3728,-28,132,-95
10.178,10.03,-1.34,-2.61,3.26,-15.26,10.84,-0.81,0.18,0.09,-0.34,433.00,1179.00,101.00,323.00,484.00,1246.00,651.00,885.00,,,,,,,,,,,,0,1,0,,-296,15556,3700,-75,102,-185
10.24,10.08,-1.11,2.03,-1.96,-1.60,4.34,3.29,-5.59,0.85,-2.53,528.00,1129.00,112.00,224.00,614.00,1237.00,723.00,911.00,,,,,,,,,,,,0,1,0,,-336,15672,3672,-120,56,-109
10.323,10.14,-1.25,-0.13,-0.08,16.18,-15.94,-3.92,1.34,-4.50,1.98,496.00,1169.00,243.00,191.00,481.00,1366.00,624.00,997.00,,,,,,,,,,,,0,1,0,,-220,15500,3788,-169,115,-155
10.344,10.19,-1.39,-0.42,0.55,-13.28,8.27,-4.08,4.03,-1.64,1.17,482.00,1163.00,112.00,320.00,417.00,1279.00,619.00,910.00,,,,,,,,,,,,0,1,0,,-308,15732,3804,-187,96,-166
10.404,10.25,-1.23,-1.31,1.47,-13.98,20.03,1.75,-2.29,-0.20,-0.91,466.00,1175.00,60.00,240.00,528.00,1203.00,675.00,909.00,,,,,,,,,,,,0,1,0,,-268,15448,3884,-121,79,-125
10.465,10.30,-1.22,-0.16,1.16,18.25,-8.22,-0.89,-1.40,-2.49,0.99,464.00,1132.00,154.00,143.00,528.00,1304.00,635.00,946.00,,,,,,,,,,,,0,1,0,,-164,15600,3832,-200,118,-143
10.526,10.36,-1.51,0.06,-0.51,-1.07,-2.42,-7.07,6.51,-3.59,3.32,506.00,1174.00,160.00,263.00,385.00,1347.00,571.00,928.00,,,,,,,,,,,,0,1,0,,-80,15548,3992,-35,145,-27
10.568,10.41,-1.37,-4.12,4.87,-26.51,33.17,1.32,-2.15,1.81,-1.29,408.00,1199.00,37.00,277.00,528.00,1219.00,664.00,848.00,,,,,,,,,,,,0,1,0,,-248,15480,3876,-21,197,-363
10.61,10.47,-1.25,2.67,-1.35,7.35,-3.31,0.94,-3.20,-0.91,-0.59,505.00,1083.00,144.00,193.00,563.00,1273.00,672.00,927.00,,,,,,,,,,,,0,1,0,,-332,15536,3800,-40,12,-251
10.693,10.52,-1.41,-0.62,0.20,10.32,-11.36,-4.50,2.12,-3.16,1.51,493.00,1183.00,211.00,213.00,466.00,1369.00,625.00,958.00,,,,,,,,,,,,0,1,0,,-236,15492,3872,-94,61,-190
10.754,10.58,-1.41,-1.75,2.06,-19.85,12.76,-1.38,0.87,-0.29,0.02,455.00,1177.00,99.00,368.00,471.00,1251.00,643.00,890.00,,,,,,,,,,,,0,1,0,,-276,15460,3756,-75,179,-150
10.795,10.63,-1.14,0.72,-0.37,-10.11,18.42,3.99,-5.53,1.36,-2.63,496.00,1139.00,61.00,215.00,604.00,1201.00,720.00,895.00,,,,,,,,,,,,0,1,0,,-288,15692,3780,-52,201,-280
10.856,10.69,-1.24,0.49,-0.21,22.74,-15.10,-3.04,1.35,-3.47,1.61,494.00,1145.00,206.00,144.00,473.00,1319.00,625.00,967.00,,,,,,,,,,,,0,1,0,,-308,15508,3848,-106,42,-168
10.919,10.74,-1.40,1.10,-0.83,-5.91,3.32,-4.46,4.47,-2.05,2.07,505.00,1136.00,128.00,273.00,410.00,1283.00,594.00,903.00,,,,,,,,,,,,0,1,0,,-200,15564,3672,-148,95,-267
10.962,10.80,-1.20,-2.33,2.79,-33.91,47.02,2.60,-2.44,-2.66,0.11,442.00,1181.00,20.00,256.00,524.00,1168.00,668.00,975.00,,,,,,,,,,,,0,1,0,,-400,15580,3752,-165,118,-289
11.001,10.85,-1.13,1.79,-0.24,17.72,-7.43,0.09,-2.59,-1.75,0.05,483.00,1088.00,149.00,143.00,553.00,1295.00,659.00,942.00,,,,,,,,,,,,0,1,0,,-292,15648,3768,-189,74,-211
11.062,10.91,-1.34,-0.59,0.00,1.30,-5.50,-5.20,3.75,-3.65,2.73,498.00,1188.00,181.00,260.00,432.00,1347.00,590.00,945.00,,,,,,,,,,,,0,1,0,,-340,15596,4032,-170,78,-198
11.123,10.96,-1.33,-3.21,4.03,-18.73,16.32,-1.24,-0.13,-0.09,-0.45,420.00,1183.00,80.00,320.00,496.00,1278.00,657.00,894.00,,,,,,,,,,,,0,1,0,,-260,15552,3812,-31,148,-33
11.164,11.02,-1.11,2.35,-2.24,-2.85,6.85,3.05,-5.63,0.04,-1.80,533.00,1123.00,100.00,220.00,618.00,1250.00,705.00,922.00,,,,,,,,,,,,0,1,0,,-360,15348,3848,-46,192,-255
11.226,11.07,-1.27,-1.13,0.48,13.18,-14.71,-4.16,1.34,-5.21,2.08,490.00,1198.00,240.00,208.00,483.00,1379.00,629.00,1023.00,,,,,,,,,,,,0,1,0,,-300,15564,3768,-53,21,-158
11.288,11.13,-1.36,-0.85,1.12,-18.17,12.57,-3.11,2.92,-1.15,1.16,471.00,1165.00,97.00,346.00,435.00,1268.00,614.00,893.00,,,,,,,,,,,,0,1,0,,-348,15652,3868,-31,38,-163
11.35,11.18,-1.13,-0.73,0.84,-13.56,20.84,3.17,-3.29,1.44,-1.82,477.00,1168.00,57.00,231.00,543.00,1168.00,688.00,873.00,,,,,,,,,,,,0,1,0,,-340,15500,3812,-35,125,-113
11.433,11.24,-1.10,-0.41,1.41,15.62,-7.33,-0.57,-1.62,-1.64,0.53,460.00,1136.00,154.00,155.00,531.00,1295.00,641.00,926.00,,,,,,,,,,,,0,1,0,,-368,15528,3700,25,157,-271
11.454,11.29,-1.34,0.44,-0.78,-1.95,-2.24,-5.75,5.97,-2.94,3.13,510.00,1165.00,161.00,271.00,387.00,1297.00,570.00,909.00,,,,,,,,,,,,0,1,0,,-356,15680,3760,-64,41,-185
11.535,11.35,-1.19,-3.75,4.88,-37.79,49.27,1.63,-1.65,2.00,-1.13,405.00,1181.00,19.00,281.00,511.00,1188.00,656.00,838.00,,,,,,,,,,,,0,1,0,,-296,15500,3776,-57,75,-248
11.556,11.40,-1.06,2.44,-1.06,9.31,-3.18,1.37,-3.58,-1.44,-0.14,499.00,1084.00,138.00,178.00,570.00,1264.00,662.00,935.00,,,,,,,,,,,,0,1,0,,-376,15560,3692,-42,94,-190
11.618,11.46,-1.24,-0.72,0.01,7.01,-9.99,-4.71,1.99,-3.18,1.84,499.00,1194.00,208.00,234.00,471.00,1385.00,614.00,950.00,,,,,,,,,,,,0,1,0,,-452,15488,3532,-161,56,-169
11.659,11.51,-1.24,-2.26,2.27,-18.24,10.78,-1.16,0.11,2.53,-1.64,454.00,1194.00,107.00,364.00,489.00,1266.00,668.00,832.00,,,,,,,,,,,,0,1,0,,-416,15624,3804,-155,52,-186
11.72,11.57,-0.98,0.75,-0.93,-5.87,9.01,3.87,-5.85,0.90,-2.65,511.00,1155.00,94.00,234.00,616.00,1217.00,727.00,912.00,,,,,,,,,,,,0,1,0,,-336,15788,3768,-275,57,-113
11.824,11.62,-1.11,-0.21,0.13,18.52,-16.35,-3.46,1.18,-3.39,1.03,491.00,1166.00,238.00,176.00,481.00,1347.00,644.00,979.00,,,,,,,,,,,,0,1,0,,-356,15472,3784,-243,45,-170
11.845,11.68,-1.27,0.06,0.35,-9.82,5.08,-4.41,4.63,-2.20,2.00,483.00,1147.00,125.00,304.00,406.00,1275.00,598.00,910.00,,,,,,,,,,,,0,1,0,,-440,15632,3860,-168,-20,-100
11.885,11.73,-1.06,-2.38,2.76,-20.44,28.79,3.00,-2.71,1.66,-1.15,443.00,1184.00,42.00,245.00,528.00,1158.00,661.00,850.00,,,,,,,,,,,,0,1,0,,-400,15504,3948,-128,90,43
11.928,11.79,-1.02,1.26,0.49,23.46,-8.73,-0.38,-1.92,-2.15,0.55,469.00,1090.00,144.00,118.00,538.00,1296.00,646.00,944.00,,,,,,,,,,,,0,1,0,,-140,15736,3792,-53,283,164
11.988,11.84,-1.23,0.08,-0.70,0.57,-3.54,-5.14,4.17,-3.98,3.25,511.00,1179.00,165.00,254.00,422.00,1329.00,577.00,944.00,,,,,,,,,,,,0,1,0,,-244,15456,3536,-108,220,-83
12.048,11.90,-1.16,-3.91,4.80,-25.00,27.10,0.09,-0.54,-0.13,0.19,408.00,1191.00,50.00,307.00,495.00,1226.00,635.00,880.00,,,,,,,,,,,,0,1,0,,-144,15588,3688,-216,-19,-117
12.11,11.95,-0.97,2.01,-1.74,1.43,2.99,2.67,-4.74,-0.03,-1.48,522.00,1123.00,114.00,206.00,593.00,1239.00,694.00,917.00,,,,,,,,,,,,0,1,0,,-288,15540,3868,-189,74,-206
12.171,12.01,-1.16,-1.15,0.45,13.73,-14.97,-4.75,1.62,-4.99,2.30,491.00,1200.00,241.00,205.00,481.00,1401.00,619.00,1008.00,,,,,,,,,,,,0,1,0,,-280,15612,3824,-218,61,-274
12.213,12.06,-1.27,-1.60,1.65,-16.20,8.93,-3.30,3.11,-1.84,1.18,464.00,1183.00,114.00,353.00,432.00,1271.00,621.00,917.00,,,,,,,,,,,,0,1,0,,-260,15552,3828,-202,49,-168
12.275,12.12,-1.06,-0.13,-0.08,-15.10,21.68,2.97,-4.21,1.22,-2.43,496.00,1169.00,56.00,240.00,573.00,1207.00,714.00,895.00,,,,,,,,,,,,0,1,0,,-248,15576,4056,-206,91,27
12.337,12.17,-1.10,-0.16,0.61,17.51,-8.91,-1.83,-0.15,-2.37,0.80,478.00,1149.00,162.00,150.00,502.00,1309.00,640.00,946.00,,,,,,,,,,,,0,1,0,,-376,15488,3924,-228,230,-296
12.377,12.23,-1.32,0.53,-0.34,-2.97,0.95,-5.53,5.71,-2.60,2.76,497.00,1147.00,138.00,259.00,391.00,1295.00,578.00,906.00,,,,,,,,,,,,0,1,0,,-272,15540,3656,-238,27,-173
12.459,12.28,-1.12,-3.80,4.67,-47.00,58.01,2.71,-2.55,2.11,-1.02,410.00,1190.00,14.00,320.00,526.00,1166.00,651.00,832.00,,,,,,,,,,,,0,1,0,,-316,15504,4052,-269,-31,-134
12.52,12.34,-1.02,2.60,-1.18,15.28,-4.09,0.77,-3.02,-1.55,-0.21,501.00,1081.00,130.00,144.00,559.00,1275.00,666.00,941.00,,,,,,,,,,,,0,1,0,,-288,15456,3928,-169,-56,-153
12.541,12.39,-1.14,-0.95,0.16,4.29,-8.90,-3.35,1.11,-2.79,1.35,497.00,1200.00,206.00,253.00,482.00,1344.00,626.00,948.00,,,,,,,,,,,,0,1,0,,-332,15456,3852,-75,62,-205
12.6,12.45,-1.12,-2.81,3.37,-17.47,12.53,-0.69,0.37,-0.40,-0.12,432.00,1185.00,96.00,337.00,478.00,1234.00,649.00,897.00,,,,,,,,,,,,0,1,0,,-332,15528,3772,-19,91,-4
12.661,12.50,-0.85,1.64,-1.65,-1.31,5.79,4.12,-5.90,0.76,-2.45,523.00,1137.00,103.00,213.00,615.00,1207.00,721.00,912.00,,,,,,,,,,,,0,1,0,,-312,15528,3844,-122,171,-43
12.703,12.56,-1.01,-0.19,0.02,17.73,-16.24,-3.91,1.41,-4.67,1.86,494.00,1169.00,240.00,181.00,479.00,1363.00,630.00,1007.00,,,,,,,,,,,,0,1,0,,-252,15556,3820,-160,147,-95
12.785,12.61,-1.17,-0.59,0.56,-14.00,8.18,-4.21,4.34,-1.61,1.46,483.00,1170.00,114.00,330.00,411.00,1275.00,609.00,902.00,,,,,,,,,,,,0,1,0,,-328,15524,3964,-219,88,-87
12.826,12.66,-0.95,-1.46,1.60,-23.86,32.79,3.09,-3.19,1.24,-1.40,464.00,1178.00,36.00,252.00,541.00,1169.00,675.00,870.00,,,,,,,,,,,,0,1,0,,-332,15364,4128,-151,77,-112
12.888,12.72,-0.96,0.14,0.82,21.39,-8.41,-1.05,-1.24,-2.67,1.13,470.00,1129.00,147.00,127.00,525.00,1307.00,632.00,949.00,,,,,,,,,,,,0,1,0,,-112,15772,4016,-59,198,-245
12.93,12.78,-1.22,0.24,-0.68,-0.97,-2.57,-6.21,6.22,-3.27,3.05,509.00,1171.00,161.00,263.00,385.00,1312.00,576.00,923.00,,,,,,,,,,,,0,1,0,,-276,15436,3880,-28,107,-208
12.971,12.83,-1.12,-3.63,4.62,-30.48,37.19,0.89,-0.77,1.67,-1.21,410.00,1184.00,32.00,291.00,494.00,1195.00,663.00,851.00,,,,,,,,,,,,0,1,0,,-376,15500,3724,-1,-5,-208
13.032,12.89,-0.95,2.44,-1.49,3.34,0.36,2.21,-4.24,-0.16,-1.09,511.00,1097.00,127.00,205.00,582.00,1245.00,681.00,912.00,,,,,,,,,,,,0,1,0,,-316,15596,3868,-70,144,-256
13.095,12.94,-1.11,-0.78,0.25,10.89,-12.91,-4.05,1.61,-3.37,1.46,493.00,1189.00,227.00,217.00,475.00,1363.00,629.00,967.00,,,,,,,,,,,,0,1,0,,-432,15668,3712,48,178,-182
13.157,13.00,-1.14,-1.96,2.21,-17.53,9.53,-1.79,2.02,0.04,-0.35,453.00,1182.00,113.00,366.00,446.00,1233.00,652.00,887.00,,,,,,,,,,,,0,1,0,,-304,15504,3808,-64,39,-146
13.197,13.05,-0.86,0.48,-0.43,-11.96,20.30,4.55,-5.31,1.62,-2.43,500.00,1152.00,57.00,220.00,591.00,1168.00,709.00,881.00,,,,,,,,,,,,0,1,0,,-312,15568,3908,-45,52,-152
13.26,13.11,-0.90,-0.19,0.20,20.60,-14.20,-1.84,0.37,-2.37,1.24,489.00,1163.00,204.00,153.00,488.00,1291.00,625.00,935.00,,,,,,,,,,,,0,1,0,,-380,15580,3936,-83,149,-123
13.321,13.16,-1.09,0.53,-0.41,-2.78,-1.02,-4.54,4.77,-2.35,2.02,499.00,1149.00,153.00,271.00,404.00,1277.00,599.00,915.00,,,,,,,,,,,,0,1,0,,-212,15544,3756,-154,133,-125
13.403,13.22,-0.88,-3.37,3.69,-72.62,102.56,3.05,-2.69,2.35,-1.63,429.00,1201.00,2.00,267.00,527.00,1155.00,670.00,838.00,,,,,,,,,,,,0,1,0,,-228,15580,3820,-105,91,-147
13.424,13.27,-0.84,1.94,-0.55,15.94,-6.58,-0.09,-2.29,-2.04,0.23,490.00,1091.00,147.00,150.00,546.00,1294.00,656.00,948.00,,,,,,,,,,,,0,1,0,,-160,15732,3948,-197,131,-71
13.486,13.33,-1.04,-0.82,0.15,3.96,-7.96,-4.88,3.77,-3.95,3.05,496.00,1194.00,197.00,250.00,429.00,1329.00,583.00,948.00,,,,,,,,,,,,0,1,0,,-328,15576,3988,-72,183,-156
13.526,13.38,-0.99,-2.62,3.05,-14.53,9.53,-0.11,0.33,0.09,-0.43,438.00,1186.00,107.00,325.00,474.00,1207.00,654.00,887.00,,,,,,,,,,,,0,1,0,,-280,15572,3712,-103,25,-196
13.629,13.44,-0.75,2.29,-2.15,1.25,2.89,3.91,-5.47,1.03,-2.59,531.00,1123.00,115.00,208.00,603.00,1203.00,723.00,906.00,,,,,,,,,,,,0,1,0,,-188,15748,3848,-55,105,-188
13.649,13.49,-0.90,-0.38,0.00,17.51,-16.32,-3.69,1.76,-3.46,1.63,496.00,1178.00,242.00,183.00,468.00,1338.00,624.00,966.00,,,,,,,,,,,,0,1,0,,-288,15580,3860,-9,185,-157
13.691,13.55,-0.99,-0.73,1.00,-12.20,6.33,-2.82,3.47,-1.93,2.09,473.00,1163.00,122.00,323.00,420.00,1235.00,592.00,898.00,,,,,,,,,,,,0,1,0,,-340,15568,3704,-3,114,-262
13.752,13.60,-0.77,-1.52,1.62,-24.22,34.51,3.37,-2.87,1.43,-1.46,464.00,1180.00,33.00,244.00,529.00,1146.00,675.00,865.00,,,,,,,,,,,,0,1,0,,-288,15672,3852,-8,73,-247
13.815,13.66,-0.78,-0.20,1.30,22.70,-10.65,-0.91,-0.24,-1.72,0.44,461.00,1130.00,162.00,128.00,496.00,1265.00,645.00,931.00,,,,,,,,,,,,0,1,0,,-348,15644,3880,-50,117,-254
13.857,13.71,-1.04,0.14,-0.28,-4.60,0.71,-6.01,6.30,-3.19,3.38,499.00,1163.00,144.00,278.00,382.00,1299.00,565.00,912.00,,,,,,,,,,,,0,1,0,,-284,15444,3832,-75,87,-212
13.919,13.77,-0.90,-3.04,4.06,-32.02,37.71,1.87,-1.40,2.28,-1.36,418.00,1174.00,32.00,305.00,502.00,1169.00,661.00,834.00,,,,,,,,,,,,0,1,0,,-348,15512,3844,-125,59,-149
14.001,13.82,-0.76,3.09,-2.32,9.80,-3.48,1.78,-3.97,-1.67,-0.03,528.00,1093.00,139.00,176.00,578.00,1257.00,661.00,941.00,,,,,,,,,,,,0,1,0,,-304,15696,3832,-62,117,-55
14.021,13.88,-0.91,-0.91,-0.37,6.87,-9.94,-3.70,1.26,-3.09,1.13,511.00,1215.00,208.00,235.00,481.00,1357.00,637.00,965.00,,,,,,,,,,,,0,1,0,,-304,15484,3836,-93,122,-265
14.084,13.93,-0.91,-2.03,2.32,-17.08,10.22,-0.99,1.14,-0.32,0.43,451.00,1182.00,108.00,353.00,461.00,1223.00,629.00,881.00,,,,,,,,,,,,0,1,0,,-312,15644,3808,-60,-46,-185
14.166,13.99,-0.63,0.55,-0.27,-5.56,11.89,4.68,-5.55,1.29,-1.90,495.00,1144.00,80.00,214.00,597.00,1169.00,693.00,880.00,,,,,,,,,,,,0,1,0,,-464,15656,3832,-40,-38,-170
14.186,14.04,-0.72,-0.21,0.36,18.75,-14.29,-2.30,0.23,-3.51,1.86,485.00,1159.00,212.00,165.00,496.00,1320.00,617.00,962.00,,,,,,,,,,,,0,1,0,,-448,15520,3880,-54,40,-148
14.249,14.10,-0.88,1.12,-0.76,-5.76,2.43,-3.90,4.74,-1.58,1.67,503.00,1133.00,134.00,278.00,400.00,1246.00,602.00,896.00,,,,,,,,,,,,0,1,0,,-284,15560,3740,-4,85,-286
14.31,14.15,-0.65,-2.44,2.46,-35.23,49.41,3.57,-2.83,3.12,-1.78,451.00,1197.00,18.00,253.00,526.00,1136.00,666.00,816.00,,,,,,,,,,,,0,1,0,,-292,15584,3812,-67,42,-152
14.391,14.21,-0.58,1.58,-0.13,21.90,-8.59,0.82,-2.50,-0.78,-0.22,482.00,1094.00,147.00,125.00,543.00,1255.00,657.00,913.00,,,,,,,,,,,,0,1,0,,-376,15568,3820,-61,71,-253
14.412,14.26,-0.79,0.47,-1.44,1.98,-5.63,-4.70,4.02,-3.35,3.01,528.00,1184.00,180.00,254.00,422.00,1311.00,578.00,927.00,,,,,,,,,,,,0,1,0,,-388,15496,3832,-108,40,-176
14.475,14.32,-0.74,-3.26,3.57,-20.90,19.51,0.19,-0.87,1.04,-1.19,431.00,1200.00,70.00,320.00,503.00,1232.00,670.00,872.00,,,,,,,,,,,,0,1,0,,-440,15536,3644,-107,53,-167
14.515,14.37,-0.53,2.41,-2.12,1.81,2.07,3.39,-5.78,0.23,-1.70,529.00,1117.00,119.00,208.00,619.00,1238.00,699.00,913.00,,,,,,,,,,,,0,1,0,,-460,15424,3804,-104,63,-77
14.578,14.43,-0.72,-0.85,-0.21,13.76,-16.09,-4.24,1.41,-3.83,1.76,506.00,1207.00,256.00,211.00,482.00,1381.00,624.00,977.00,,,,,,,,,,,,0,1,0,,-404,15580,3764,-78,140,-318
14.639,14.48,-0.82,-0.49,0.46,-12.97,5.99,-2.77,3.59,0.05,0.48,485.00,1169.00,126.00,336.00,417.00,1229.00,623.00,867.00,,,,,,,,,,,,0,1,0,,-544,15560,3652,-55,60,-187
14.723,14.54,-0.57,0.01,-0.13,-15.80,22.25,4.18,-3.96,2.41,-2.17,496.00,1164.00,55.00,243.00,553.00,1143.00,689.00,848.00,,,,,,,,,,,,0,1,0,,-536,15560,3624,-71,-18,-157
14.744,14.59,-0.56,-0.63,1.76,18.13,-8.30,-0.29,-0.85,-0.89,0.48,453.00,1135.00,155.00,144.00,507.00,1255.00,634.00,900.00,,,,,,,,,,,,0,1,0,,-428,15484,3720,-93,79,-59
14.806,14.65,-0.93,0.98,-1.00,-3.21,-0.39,-8.06,10.26,-2.37,2.91,511.00,1147.00,149.00,271.00,320.00,1267.00,571.00,894.00,,,,,,,,,,,,0,1,0,,-416,15624,3604,58,165,-204
14.847,14.70,-0.75,-4.18,4.98,-39.81,50.95,2.67,-2.00,2.29,-1.28,406.00,1198.00,18.00,291.00,511.00,1151.00,658.00,832.00,,,,,,,,,,,,0,1,0,,-412,15548,3516,-136,-47,-34
14.909,14.76,-0.62,2.43,-0.94,13.15,-4.87,1.81,-3.27,-0.58,-0.23,496.00,1081.00,141.00,160.00,556.00,1232.00,655.00,906.00,,,,,,,,,,,,0,1,0,,-388,15616,3816,-127,20,-70
14.971,14.81,-0.76,-0.56,-0.45,8.04,-9.89,-3.46,1.85,-2.34,0.99,510.00,1201.00,203.00,224.00,464.00,1323.00,633.00,940.00,,,,,,,,,,,,0,1,0,,-448,15652,3680,-92,136,-26
15.012,14.87,-0.77,-2.73,2.96,-16.69,10.61,-0.94,0.65,-0.10,-0.56,441.00,1194.00,105.00,344.00,473.00,1237.00,661.00,897.00,,,,,,,,,,,,0,1,0,,-372,15456,3664,-180,71,-3
15.094,14.92,-0.53,1.48,-1.74,-5.44,9.67,4.20,-5.99,1.01,-2.61,527.00,1147.00,90.00,226.00,617.00,1206.00,724.00,907.00,,,,,,,,,,,,0,1,0,,-436,15420,3740,-130,82,113
15.135,14.98,-0.64,-0.70,0.26,19.50,-16.29,-2.91,0.43,-3.00,1.07,492.00,1185.00,233.00,169.00,496.00,1345.00,638.00,963.00,,,,,,,,,,,,0,1,0,,-308,15660,3620,-94,270,-115
15.177,15.03,-0.79,-0.16,0.19,-13.89,8.47,-3.55,3.98,-0.59,0.88,489.00,1162.00,112.00,326.00,414.00,1254.00,617.00,880.00,,,,,,,,,,,,0,1,0,,-328,15576,3684,-153,121,-48
15.238,15.09,-0.57,-1.71,1.68,-25.66,35.00,3.60,-2.91,1.75,-1.24,464.00,1187.00,33.00,255.00,528.00,1137.00,663.00,849.00,,,,,,,,,,,,0,1,0,,-256,15532,3888,-107,18,-86
15.3,15.14,-0.52,0.85,0.78,26.48,-11.58,0.37,-1.83,-1.50,0.57,465.00,1099.00,159.00,113.00,528.00,1255.00,638.00,920.00,,,,,,,,,,,,0,1,0,,-304,15580,3792,-88,128,-145
15.341,15.20,-0.77,0.38,-0.80,-0.10,-3.43,-5.39,5.37,-3.04,2.88,511.00,1168.00,166.00,260.00,397.00,1299.00,579.00,919.00,,,,,,,,,,,,0,1,0,,-292,15780,3580,-3,182,-204
15.483,15.25,-0.65,-3.89,4.93,-26.96,30.98,1.59,-1.08,1.42,-1.01,405.00,1186.00,42.00,299.00,496.00,1172.00,659.00,855.00,,,,,,,,,,,,0,1,0,,-284,15640,3572,-106,49,-153
15.505,15.31,-0.49,2.70,-2.12,2.67,-0.95,2.52,-4.32,-0.21,-1.02,526.00,1104.00,138.00,218.00,581.00,1232.00,679.00,912.00,,,,,,,,,,,,0,1,0,,-192,15532,3520,-152,62,-206
15.525,15.36,-0.69,-1.30,0.28,13.34,-14.76,-4.53,1.70,-3.44,1.22,497.00,1213.00,240.00,207.00,477.00,1386.00,638.00,976.00,,,,,,,,,,,,0,1,0,,-372,15636,3820,-147,147,-170
15.607,15.41,-0.74,-1.54,1.75,-16.68,9.41,-1.63,1.64,-0.16,0.20,461.00,1177.00,112.00,355.00,454.00,1238.00,635.00,881.00,,,,,,,,,,,,0,1,0,,-376,15468,3752,-153,97,-141
15.648,15.47,-0.49,-0.43,0.40,-11.22,18.20,4.16,-5.03,1.70,-2.79,486.00,1168.00,63.00,226.00,586.00,1177.00,722.00,887.00,,,,,,,,,,,,0,1,0,,-300,15496,3804,-165,127,-87
15.669,15.53,-0.51,-0.52,1.05,17.95,-12.19,-0.87,-0.73,-1.34,0.08,470.00,1152.00,192.00,161.00,509.00,1280.00,653.00,926.00,,,,,,,,,,,,0,1,0,,-216,15732,3764,-70,200,-241
15.731,15.58,-0.70,0.98,-1.00,-5.29,1.99,-4.21,4.84,-1.66,2.03,511.00,1147.00,136.00,276.00,400.00,1258.00,591.00,890.00,,,,,,,,,,,,0,1,0,,-164,15632,3568,-114,96,-204
15.834,15.64,-0.47,-3.26,3.65,-43.60,61.32,3.89,-3.01,3.48,-1.62,429.00,1197.00,11.00,256.00,528.00,1127.00,656.00,801.00,,,,,,,,,,,,0,1,0,,-304,15636,3688,-124,-2,-241
15.855,15.69,-0.39,2.69,-1.25,17.49,-7.35,1.15,-2.71,-1.10,0.09,502.00,1079.00,149.00,144.00,546.00,1246.00,650.00,917.00,,,,,,,,,,,,0,1,0,,-288,15676,3692,-125,88,-247
15.894,15.75,-0.60,-0.69,0.15,4.47,-7.66,-4.53,3.66,-2.44,2.36,495.00,1188.00,192.00,243.00,429.00,1315.00,589.00,910.00,,,,,,,,,,,,0,1,0,,-396,15824,3824,-27,189,-125
15.957,15.80,-0.58,-2.47,3.22,-16.86,12.51,-0.31,0.36,0.44,-0.60,433.00,1174.00,95.00,329.00,475.00,1216.00,656.00,879.00,,,,,,,,,,,,0,1,0,,-304,15492,3524,-91,100,-81
16.017,15.86,-0.34,2.14,-1.86,0.18,3.41,4.25,-5.89,1.40,-2.57,524.00,1121.00,114.00,214.00,613.00,1200.00,717.00,892.00,,,,,,,,,,,,0,1,0,,-236,15664,3804,-156,81,-123
16.058,15.91,-0.49,-0.16,-0.47,15.88,-12.88,-3.30,1.17,-4.18,1.82,507.00,1183.00,207.00,178.00,480.00,1339.00,626.00,989.00,,,,,,,,,,,,0,1,0,,-412,15636,3756,-118,148,-113
16.118,15.97,-0.62,-0.18,0.12,-14.42,7.69,-3.09,3.78,-1.00,1.35,491.00,1165.00,118.00,340.00,415.00,1238.00,606.00,883.00,,,,,,,,,,,,0,1,0,,-280,15444,3736,-169,124,-149
16.201,16.02,-0.43,-0.94,0.61,-21.62,29.63,3.05,-3.11,1.51,-1.32,485.00,1185.00,41.00,251.00,539.00,1168.00,669.00,859.00,,,,,,,,,,,,0,1,0,,-288,15496,3856,-160,81,-113
16.222,16.07,-0.46,-0.31,1.29,18.84,-8.30,-0.92,-0.61,-1.93,0.91,462.00,1135.00,153.00,140.00,506.00,1278.00,631.00,927.00,,,,,,,,,,,,0,1,0,,-240,15848,3752,-103,183,-162
16.284,16.13,-0.71,0.44,-0.82,-2.91,-1.92,-5.48,6.12,-2.79,2.79,511.00,1166.00,161.00,279.00,382.00,1278.00,579.00,912.00,,,,,,,,,,,,0,1,0,,-300,15552,3596,-96,147,-126
16.346,16.18,-0.57,-3.55,4.14,-32.42,39.03,2.10,-1.25,2.91,-1.43,420.00,1195.00,30.00,299.00,496.00,1154.00,656.00,815.00,,,,,,,,,,,,0,1,0,,-256,15576,3680,-75,19,-149
16.408,16.24,-0.43,2.49,-1.33,8.71,-1.88,2.19,-3.49,-0.49,0.05,506.00,1090.00,130.00,176.00,559.00,1221.00,644.00,896.00,,,,,,,,,,,,0,1,0,,-352,15676,4048,-96,155,-154
16.468,16.30,-0.61,-0.56,-0.49,7.24,-11.43,-4.09,2.06,-2.79,1.74,511.00,1202.00,224.00,241.00,464.00,1349.00,613.00,938.00,,,,,,,,,,,,0,1,0,,-176,15724,3760,-14,193,-92
16.509,16.35,-0.62,-1.25,1.14,-20.35,13.49,-0.67,0.91,0.46,-0.12,474.00,1183.00,96.00,368.00,464.00,1215.00,639.00,867.00,,,,,,,,,,,,0,1,0,,-356,15576,3600,-112,64,-132
16.571,16.41,-0.35,0.71,-0.55,-6.62,12.24,4.65,-5.60,2.41,-2.96,501.00,1145.00,80.00,221.00,599.00,1172.00,719.00,866.00,,,,,,,,,,,,0,1,0,,-328,15692,3836,-133,73,-164
16.611,16.46,-0.43,-0.40,0.35,19.28,-14.38,-1.97,0.19,-2.97,1.27,487.00,1168.00,211.00,162.00,494.00,1304.00,631.00,957.00,,,,,,,,,,,,0,1,0,,-300,15600,3804,-136,155,-215
16.673,16.51,-0.62,1.75,-1.12,-10.11,8.05,-4.09,4.08,-1.25,1.55,507.00,1116.00,107.00,284.00,416.00,1278.00,602.00,887.00,,,,,,,,,,,,0,1,0,,-308,15548,3712,-159,74,-140
16.712,16.57,-0.44,-2.54,2.69,-39.03,52.86,2.93,-2.08,2.34,-1.49,446.00,1194.00,16.00,268.00,511.00,1142.00,665.00,835.00,,,,,,,,,,,,0,1,0,,-272,15600,3868,-194,74,-123
16.775,16.62,-0.40,2.05,-0.47,24.50,-11.82,0.40,-2.76,-1.26,-0.11,487.00,1084.00,167.00,123.00,555.00,1285.00,659.00,928.00,,,,,,,,,,,,0,1,0,,-272,15836,3912,-56,230,-79
16.836,16.68,-0.60,-0.03,-0.66,1.12,-5.23,-4.54,4.18,-2.70,2.41,511.00,1183.00,179.00,260.00,417.00,1297.00,590.00,918.00,,,,,,,,,,,,0,1,0,,-380,15584,3644,-140,155,-164
16.978,16.73,-0.53,-3.31,4.64,-21.17,20.97,0.82,-1.01,0.81,-0.81,407.00,1168.00,65.00,311.00,501.00,1206.00,659.00,871.00,,,,,,,,,,,,0,1,0,,-288,15580,3784,-121,6,-274
16.998,16.79,-0.34,1.97,-1.05,-1.45,4.46,3.34,-4.84,1.00,-2.01,503.00,1104.00,111.00,222.00,589.00,1210.00,701.00,893.00,,,,,,,,,,,,0,1,0,,-292,15676,3796,-98,134,-221
17.018,16.84,-0.52,-0.50,-0.07,15.82,-16.57,-4.01,1.64,-3.47,1.61,499.00,1186.00,253.00,197.00,474.00,1360.00,625.00,967.00,,,,,,,,,,,,0,1,0,,-324,15636,3712,-34,155,-135
17.059,16.90,-0.61,-0.94,1.15,-17.34,9.97,-2.31,2.91,-0.56,0.87,471.00,1168.00,110.00,359.00,429.00,1229.00,617.00,879.00,,,,,,,,,,,,0,1,0,,-344,15528,3624,-89,82,-185
17.1,16.95,-0.39,-0.04,0.12,-14.25,20.43,3.93,-4.27,2.36,-2.18,490.00,1159.00,59.00,240.00,565.00,1164.00,690.00,850.00,,,,,,,,,,,,0,1,0,,-428,15604,3760,-138,40,-186
17.161,17.01,-0.41,-0.27,1.20,18.82,-9.57,-0.96,-0.34,-1.18,0.37,464.00,1136.00,164.00,145.00,499.00,1271.00,641.00,913.00,,,,,,,,,,,,0,1,0,,-336,15560,3876,-194,156,-184
17.223,17.07,-0.69,0.49,-0.77,-3.28,0.26,-5.94,6.71,-2.61,2.89,509.00,1162.00,144.00,267.00,373.00,1281.00,574.00,903.00,,,,,,,,,,,,0,1,0,,-396,15568,3684,-196,113,-165
17.304,17.12,-0.54,-4.03,4.70,-40.69,53.42,2.36,-1.89,2.79,-1.75,411.00,1200.00,16.00,282.00,511.00,1162.00,669.00,826.00,,,,,,,,,,,,0,1,0,,-308,15560,3844,-203,67,-162
17.325,17.17,-0.47,2.49,-1.37,11.91,-4.19,0.81,-2.90,-1.00,-0.34,507.00,1091.00,139.00,165.00,555.00,1269.00,664.00,924.00,,,,,,,,,,,,0,1,0,,-268,15712,3840,-74,145,-44
17.387,17.23,-0.64,-1.08,0.17,4.36,-8.09,-3.81,1.93,-2.31,1.64,498.00,1206.00,197.00,247.00,465.00,1339.00,611.00,923.00,,,,,,,,,,,,0,1,0,,-320,15504,3664,-153,204,-189
17.449,17.28,-0.63,-2.31,2.82,-15.87,10.16,-0.47,0.68,0.51,-0.71,441.00,1179.00,106.00,337.00,468.00,1213.00,659.00,879.00,,,,,,,,,,,,0,1,0,,-308,15580,3780,-84,54,-203
17.49,17.34,-0.37,1.62,-1.82,0.82,3.52,4.56,-5.87,2.09,-2.69,528.00,1143.00,112.00,208.00,609.00,1185.00,713.00,871.00,,,,,,,,,,,,0,1,0,,-380,15624,3704,-94,43,-155
17.574,17.39,-0.50,-0.30,0.20,17.51,-16.32,-2.87,0.57,-3.28,1.49,490.00,1168.00,242.00,183.00,492.00,1338.00,627.00,963.00,,,,,,,,,,,,0,1,0,,-236,15652,3792,-54,185,-24
17.594,17.45,-0.65,0.07,0.04,-12.34,7.95,-3.60,4.18,-0.86,1.27,491.00,1156.00,112.00,311.00,410.00,1250.00,607.00,880.00,,,,,,,,,,,,0,1,0,,-344,15508,3556,-37,130,-153
17.675,17.50,-0.45,-2.00,1.98,-23.21,31.09,3.37,-2.84,1.72,-1.06,459.00,1191.00,39.00,257.00,528.00,1145.00,657.00,846.00,,,,,,,,,,,,0,1,0,,-284,15836,3724,-141,51,-163
17.736,17.56,-0.42,0.84,0.59,20.59,-8.40,0.06,-1.72,-1.20,0.41,470.00,1105.00,149.00,131.00,528.00,1267.00,640.00,913.00,,,,,,,,,,,,0,1,0,,-356,15600,3764,-82,113,-244
17.777,17.61,-0.68,0.19,-0.74,0.29,-4.00,-5.61,5.31,-3.00,3.02,511.00,1175.00,170.00,260.00,400.00,1313.00,574.00,914.00,,,,,,,,,,,,0,1,0,,-408,15684,3756,-144,89,-225
17.839,17.67,-0.60,-4.28,5.29,-25.45,28.01,0.90,-1.26,1.27,-0.88,400.00,1193.00,48.00,305.00,507.00,1210.00,656.00,857.00,,,,,,,,,,,,0,1,0,,-440,15536,3672,-128,61,-161
17.901,17.73,-0.46,1.94,-1.93,0.02,1.62,2.38,-4.68,-0.15,-1.31,528.00,1132.00,126.00,226.00,594.00,1251.00,689.00,917.00,,,,,,,,,,,,0,1,0,,-372,15708,3768,-59,156,-126
17.942,17.78,-0.63,-1.26,0.30,9.33,-13.41,-3.89,1.29,-3.68,1.39,496.00,1210.00,240.00,234.00,482.00,1366.00,635.00,981.00,,,,,,,,,,,,0,1,0,,-376,15432,3596,-180,143,-96
18.065,17.83,-0.70,-3.30,4.41,-18.00,10.02,-2.11,2.67,-0.43,0.76,412.00,1175.00,111.00,368.00,433.00,1227.00,619.00,877.00,,,,,,,,,,,,0,1,0,,-400,15592,3740,-42,51,-157
18.086,17.89,-0.46,-0.09,0.24,-10.42,16.52,4.13,-4.73,2.89,-3.15,487.00,1157.00,68.00,229.00,577.00,1169.00,720.00,854.00,,,,,,,,,,,,0,1,0,,-332,15528,3880,-184,72,-65
18.106,17.94,-0.51,-0.41,0.66,16.53,-11.90,-1.40,0.07,-2.21,1.01,479.00,1159.00,194.00,169.00,492.00,1279.00,631.00,935.00,,,,,,,,,,,,0,1,0,,-424,15524,3668,-99,97,83
18.147,18.00,-0.70,0.64,-0.38,-5.42,2.73,-4.46,4.88,-1.57,2.19,497.00,1143.00,131.00,272.00,401.00,1269.00,585.00,883.00,,,,,,,,,,,,0,1,0,,-404,15488,3724,-134,51,-87
18.228,18.05,-0.52,-3.35,4.08,-52.68,72.72,2.98,-2.10,2.97,-1.65,420.00,1188.00,7.00,270.00,511.00,1140.00,663.00,818.00,,,,,,,,,,,,0,1,0,,-340,15684,3764,-207,-11,-11
18.309,18.11,-0.46,2.16,-0.81,18.63,-7.98,0.77,-2.71,-0.65,-0.73,495.00,1089.00,151.00,140.00,550.00,1265.00,674.00,921.00,,,,,,,,,,,,0,1,0,,-260,15616,3720,-167,128,67
18.329,18.16,-0.66,-0.38,-0.40,3.42,-7.01,-4.60,3.34,-2.56,1.96,507.00,1191.00,189.00,249.00,437.00,1330.00,603.00,924.00,,,,,,,,,,,,0,1,0,,-212,15516,3608,-232,215,-10
18.413,18.22,-0.65,-3.41,3.88,-16.08,10.58,-0.50,-0.19,0.19,-0.57,425.00,1197.00,104.00,336.00,491.00,1243.00,658.00,887.00,,,,,,,,,,,,0,1,0,,-332,15608,3604,-205,118,-12
18.433,18.27,-0.44,1.54,-1.79,-1.46,4.29,3.71,-6.12,0.84,-2.48,528.00,1146.00,112.00,223.00,627.00,1234.00,721.00,910.00,,,,,,,,,,,,0,1,0,,-180,15728,3784,-153,105,33
18.475,18.33,-0.61,-0.67,-0.41,13.75,-15.73,-3.84,1.39,-3.80,1.75,510.00,1205.00,251.00,209.00,479.00,1360.00,624.00,976.00,,,,,,,,,,,,0,1,0,,-128,15504,3920,-128,229,-114
18.538,18.39,-0.71,-0.91,0.98,-13.54,8.19,-2.73,3.01,-0.53,0.83,475.00,1172.00,113.00,324.00,430.00,1246.00,618.00,879.00,,,,,,,,,,,,0,1,0,,-216,15600,3648,-147,103,-161
18.599,18.44,-0.50,-0.94,0.84,-19.46,25.99,3.45,-3.24,2.18,-1.88,479.00,1178.00,48.00,254.00,539.00,1154.00,681.00,849.00,,,,,,,,,,,,0,1,0,,-220,15612,3872,-141,66,-101
18.641,18.50,-0.52,-0.42,1.45,16.89,-8.23,-0.72,-0.78,-1.60,0.95,459.00,1135.00,158.00,151.00,509.00,1274.00,626.00,914.00,,,,,,,,,,,,0,1,0,,-164,15640,3720,-64,195,-123
18.704,18.55,-0.79,0.22,-0.57,-1.48,-3.08,-6.02,6.40,-3.24,3.49,506.00,1168.00,167.00,272.00,380.00,1296.00,562.00,911.00,,,,,,,,,,,,0,1,0,,-284,15472,3736,-94,102,-206
18.764,18.60,-0.64,-4.22,4.95,-31.52,36.97,2.15,-1.75,2.14,-1.20,407.00,1201.00,33.00,305.00,509.00,1167.00,657.00,835.00,,,,,,,,,,,,0,1,0,,-252,15644,3884,-79,24,-197
18.844,18.66,-0.52,2.52,-1.41,5.91,-0.80,1.77,-3.84,-0.85,-0.11,508.00,1091.00,129.00,191.00,574.00,1253.00,654.00,913.00,,,,,,,,,,,,0,1,0,,-296,15632,3684,-112,122,-210
18.864,18.71,-0.70,-1.00,0.14,6.53,-9.91,-4.12,1.71,-3.30,1.55,498.00,1203.00,209.00,238.00,473.00,1363.00,625.00,962.00,,,,,,,,,,,,0,1,0,,-312,15552,3680,-163,118,-174
18.926,18.77,-0.74,-2.57,2.46,-20.89,13.48,-1.48,1.10,-0.82,0.54,452.00,1203.00,97.00,376.00,466.00,1248.00,631.00,896.00,,,,,,,,,,,,0,1,0,,-300,15412,3788,-219,81,-118
18.989,18.82,-0.50,0.69,-0.91,-9.52,13.45,4.04,-5.55,1.84,-2.92,511.00,1157.00,79.00,240.00,604.00,1199.00,725.00,885.00,,,,,,,,,,,,0,1,0,,-152,15816,3840,-144,182,-144
19.028,18.88,-0.58,-0.50,0.50,19.36,-16.08,-2.01,0.05,-2.25,0.90,484.00,1168.00,231.00,169.00,498.00,1311.00,635.00,939.00,,,,,,,,,,,,0,1,0,,-292,15532,3896,-210,163,-150
19.09,18.93,-0.76,0.87,-0.49,-6.05,3.66,-4.30,4.83,-1.24,1.70,498.00,1136.00,126.00,272.00,401.00,1263.00,597.00,883.00,,,,,,,,,,,,0,1,0,,-240,15532,3844,-7,12,-212
19.152,18.99,-0.53,-1.87,2.14,-28.85,41.20,3.89,-3.01,2.59,-1.33,454.00,1180.00,25.00,245.00,528.00,1127.00,656.00,823.00,,,,,,,,,,,,0,1,0,,-196,15692,3968,-65,155,-140
19.193,19.05,-0.48,1.32,0.43,20.24,-9.01,0.52,-2.26,-1.20,0.32,470.00,1089.00,155.00,135.00,539.00,1262.00,643.00,915.00,,,,,,,,,,,,0,1,0,,-332,15668,3868,56,194,-35
19.253,19.10,-0.72,-0.09,-0.43,3.28,-7.26,-5.23,4.77,-2.74,2.43,505.00,1178.00,192.00,252.00,409.00,1312.00,590.00,919.00,,,,,,,,,,,,0,1,0,,-316,15428,3612,-82,31,-100
19.316,19.16,-0.66,-4.14,5.24,-22.41,22.56,0.33,-0.62,0.25,-0.45,400.00,1188.00,61.00,313.00,495.00,1217.00,653.00,882.00,,,,,,,,,,,,0,1,0,,-244,15612,3800,-146,61,-114
19.358,19.21,-0.48,1.38,-1.14,2.32,1.14,3.10,-5.20,-0.02,-1.30,511.00,1133.00,124.00,209.00,603.00,1233.00,687.00,912.00,,,,,,,,,,,,0,1,0,,-244,15640,3668,-153,181,-109
19.421,19.26,-0.66,-1.87,0.51,13.76,-16.09,-4.26,1.57,-4.08,2.05,496.00,1233.00,256.00,211.00,478.00,1376.00,617.00,979.00,,,,,,,,,,,,0,1,0,,-208,15628,3820,-223,79,-134
19.563,19.32,-0.77,-0.97,0.85,-16.80,8.96,-2.67,2.69,-1.01,0.78,479.00,1179.00,115.00,361.00,437.00,1254.00,625.00,897.00,,,,,,,,,,,,0,1,0,,-236,15436,3784,-173,76,-116
19.585,19.37,-0.54,-0.91,0.60,-14.66,20.57,3.67,-4.02,1.96,-2.34,485.00,1184.00,59.00,243.00,560.00,1168.00,701.00,867.00,,,,,,,,,,,,0,1,0,,-172,15784,3904,-117,236,-215
19.605,19.43,-0.57,-1.06,1.91,18.44,-8.76,-1.05,-0.42,-1.25,0.48,453.00,1150.00,158.00,144.00,502.00,1278.00,638.00,913.00,,,,,,,,,,,,0,1,0,,-220,15488,3648,-163,117,-139
19.646,19.48,-0.77,0.30,-0.30,-3.30,0.01,-4.56,5.01,-2.11,3.08,498.00,1156.00,146.00,269.00,399.00,1270.00,563.00,881.00,,,,,,,,,,,,0,1,0,,-264,15560,3760,-137,-10,-168
19.707,19.54,-0.57,-3.95,4.68,-40.34,53.31,3.26,-2.90,2.56,-1.15,411.00,1197.00,16.00,279.00,531.00,1152.00,650.00,820.00,,,,,,,,,,,,0,1,0,,-216,15736,3840,-146,170,-138
19.77,19.59,-0.47,2.47,-1.07,13.72,-4.53,1.37,-3.25,-0.78,-0.22,499.00,1083.00,137.00,155.00,560.00,1253.00,657.00,913.00,,,,,,,,,,,,0,1,0,,-200,15756,3852,-35,198,-77
19.812,19.65,-0.64,-0.79,-0.08,4.07,-7.52,-3.83,2.17,-2.08,1.17,502.00,1200.00,192.00,246.00,459.00,1331.00,624.00,926.00,,,,,,,,,,,,0,1,0,,-312,15428,3724,-125,26,-109
19.873,19.70,-0.65,-2.61,3.13,-16.98,10.70,-0.95,0.80,0.26,-0.34,436.00,1183.00,105.00,347.00,469.00,1232.00,649.00,879.00,,,,,,,,,,,,0,1,0,,-112,15616,3912,-171,92,-173
19.935,19.76,-0.41,0.96,-0.78,-5.11,9.36,4.23,-5.82,1.91,-2.94,505.00,1141.00,91.00,225.00,611.00,1199.00,725.00,883.00,,,,,,,,,,,,0,1,0,,-220,15592,3564,-180,201,-179
19.976,19.82,-0.53,-0.51,0.16,17.85,-15.57,-2.89,0.42,-3.52,1.33,493.00,1179.00,231.00,177.00,496.00,1344.00,635.00,976.00,,,,,,,,,,,,0,1,0,,-156,15568,3756,-155,93,-153
20.039,19.87,-0.71,-0.35,-0.01,-10.32,5.69,-4.01,4.36,-1.29,1.45,496.00,1177.00,122.00,305.00,409.00,1264.00,606.00,891.00,,,,,,,,,,,,0,1,0,,-356,15392,4032,-164,72,-160
20.101,19.92,-0.52,-2.68,2.74,-29.02,38.51,3.02,-2.96,1.56,-1.39,446.00,1199.00,29.00,265.00,535.00,1165.00,671.00,859.00,,,,,,,,,,,,0,1,0,,-204,15740,3892,-28,235,-97
20.122,19.98,-0.48,1.05,0.48,18.99,-7.98,0.24,-1.99,-2.75,0.81,471.00,1099.00,150.00,138.00,534.00,1267.00,644.00,960.00,,,,,,,,,,,,0,1,0,,-216,15496,3760,-145,145,-162
20.183,20.03,-0.70,0.38,-0.80,1.54,-5.27,-4.92,5.03,-3.64,3.79,511.00,1168.00,178.00,256.00,401.00,1287.00,557.00,918.00,,,,,,,,,,,,0,1,0,,-276,15576,3820,-86,-2,-235
20.243,20.09,-0.60,-4.16,5.11,-26.53,29.98,1.41,-1.36,1.75,-1.24,403.00,1193.00,44.00,302.00,505.00,1189.00,663.00,849.00,,,,,,,,,,,,0,1,0,,-316,15788,3940,-137,100,-179
20.305,20.14,-0.44,1.76,-1.26,2.70,-0.83,2.52,-4.32,-0.18,-0.97,511.00,1120.00,137.00,217.00,581.00,1232.00,677.00,910.00,,,,,,,,,,,,0,1,0,,-196,15596,3752,-40,195,-102
20.345,20.20,-0.61,-1.26,0.30,9.49,-12.52,-3.88,1.25,-3.48,1.32,496.00,1210.00,228.00,227.00,483.00,1367.00,635.00,975.00,,,,,,,,,,,,0,1,0,,-292,15372,3636,-74,68,-127
20.407,20.25,-0.68,-1.71,2.13,-18.54,11.95,-1.87,2.04,-0.06,0.05,453.00,1173.00,101.00,357.00,446.00,1236.00,639.00,881.00,,,,,,,,,,,,0,1,0,,-192,15580,3880,-164,63,-129
20.47,20.31,-0.44,-0.10,-0.09,-11.97,18.16,4.05,-4.77,1.54,-2.49,496.00,1168.00,64.00,233.00,579.00,1174.00,712.00,885.00,,,,,,,,,,,,0,1,0,,-252,15544,3736,-124,179,-99
20.51,20.36,-0.49,-0.55,0.86,21.38,-13.34,-1.48,-0.27,-4.30,1.65,475.00,1159.00,192.00,145.00,502.00,1295.00,633.00,998.00,,,,,,,,,,,,0,1,0,,-212,15628,3772,-249,91,-67
20.631,20.42,-0.66,0.49,-0.55,-4.82,1.30,-3.85,3.95,-1.43,1.64,503.00,1155.00,140.00,276.00,417.00,1270.00,601.00,891.00,,,,,,,,,,,,0,1,0,,-172,15656,3880,-230,80,-52
20.652,20.48,-0.48,-3.22,3.51,-54.22,73.24,2.90,-2.50,2.01,-1.57,432.00,1200.00,7.00,283.00,523.00,1156.00,672.00,848.00,,,,,,,,,,,,0,1,0,,-204,15692,4008,-216,156,116
20.694,20.53,-0.40,2.07,-0.82,16.71,-6.20,1.08,-3.35,-0.69,-0.30,496.00,1093.00,142.00,144.00,566.00,1271.00,659.00,912.00,,,,,,,,,,,,0,1,0,,-228,15500,3784,-139,193,-168
20.777,20.58,-0.59,-0.36,-0.37,1.68,-6.91,-4.16,2.77,-2.76,2.34,506.00,1189.00,194.00,266.00,447.00,1327.00,593.00,922.00,,,,,,,,,,,,0,1,0,,-172,15660,3980,-190,19,-129
20.798,20.64,-0.59,-2.67,3.33,-17.15,12.61,-0.47,0.10,0.39,-0.44,432.00,1180.00,95.00,332.00,483.00,1232.00,651.00,877.00,,,,,,,,,,,,0,1,0,,-264,15776,3836,-263,-113,-150
20.86,20.69,-0.35,1.50,-1.18,-2.98,6.71,4.07,-5.77,0.99,-2.51,511.00,1129.00,101.00,222.00,611.00,1205.00,720.00,905.00,,,,,,,,,,,,0,1,0,,-156,15556,3812,-307,24,-213
20.923,20.75,-0.50,-0.25,-0.19,15.91,-15.55,-3.37,1.00,-3.36,1.60,500.00,1178.00,239.00,191.00,485.00,1349.00,624.00,963.00,,,,,,,,,,,,0,1,0,,-128,15560,3908,-298,44,-324
20.984,20.80,-0.64,-0.94,1.15,-13.56,7.87,-3.17,3.72,-0.81,1.07,471.00,1168.00,115.00,327.00,417.00,1244.00,613.00,883.00,,,,,,,,,,,,0,1,0,,-348,15480,3880,-341,45,-193
21.005,20.86,-0.45,-1.33,1.12,-20.56,29.27,3.16,-3.11,1.29,-1.31,475.00,1187.00,41.00,243.00,538.00,1163.00,671.00,866.00,,,,,,,,,,,,0,1,0,,-116,15584,3852,-323,33,-205
21.068,20.91,-0.47,-0.33,1.22,19.01,-7.74,-0.83,-0.82,-2.13,1.25,464.00,1138.00,148.00,137.00,511.00,1281.00,622.00,926.00,,,,,,,,,,,,0,1,0,,-360,15552,4056,-340,61,-136
21.129,20.97,-0.73,0.44,-0.78,-2.21,-2.27,-5.82,5.61,-3.80,3.23,510.00,1165.00,162.00,274.00,395.00,1313.00,576.00,938.00,,,,,,,,,,,,0,1,0,,-300,15416,4064,-334,122,-79
21.191,21.02,-0.61,-4.45,5.34,-30.85,38.50,1.77,-1.69,1.39,-1.23,400.00,1199.00,30.00,285.00,511.00,1183.00,667.00,861.00,,,,,,,,,,,,0,1,0,,-284,15520,4084,-339,66,118
21.232,21.08,-0.51,2.10,-1.20,7.51,-2.18,1.32,-3.82,-0.35,-0.81,506.00,1103.00,135.00,186.00,578.00,1275.00,673.00,912.00,,,,,,,,,,,,0,1,0,,-292,15416,4072,-341,139,-163
21.293,21.14,-0.69,-0.82,0.15,8.21,-11.93,-3.96,1.62,-3.17,1.62,496.00,1194.00,226.00,235.00,474.00,1358.00,621.00,955.00,,,,,,,,,,,,0,1,0,,-196,15420,4196,-245,148,-77
21.355,21.19,-0.72,-2.47,2.59,-17.23,9.60,-1.33,1.37,0.21,-0.10,448.00,1194.00,112.00,361.00,458.00,1232.00,641.00,875.00,,,,,,,,,,,,0,1,0,,-164,15492,4072,-317,46,-62
21.416,21.25,-0.48,0.54,-0.75,-9.77,15.25,4.05,-5.08,1.98,-2.91,508.00,1159.00,72.00,231.00,589.00,1184.00,723.00,880.00,,,,,,,,,,,,0,1,0,,-200,15444,4076,-231,35,-44
21.458,21.30,-0.58,-0.37,0.38,15.40,-14.01,-2.48,0.66,-3.45,1.93,486.00,1166.00,222.00,187.00,486.00,1314.00,614.00,958.00,,,,,,,,,,,,0,1,0,,-244,15456,4180,-133,103,-189
21.519,21.35,-0.74,0.05,0.05,-6.50,5.03,-3.84,3.99,-1.75,2.13,491.00,1157.00,118.00,267.00,416.00,1268.00,589.00,891.00,,,,,,,,,,,,0,1,0,,-128,15504,4028,-238,89,-109
21.581,21.41,-0.56,-2.36,2.55,-36.50,49.84,3.01,-2.11,2.20,-1.19,448.00,1190.00,18.00,263.00,511.00,1139.00,656.00,833.00,,,,,,,,,,,,0,1,0,,-212,15472,4136,-135,96,-184
21.623,21.46,-0.53,1.39,0.28,19.29,-8.69,-0.13,-2.21,-1.28,0.12,473.00,1090.00,155.00,139.00,544.00,1293.00,651.00,923.00,,,,,,,,,,,,0,1,0,,-236,15244,4212,-214,61,-200
21.725,21.52,-0.79,-0.62,-0.17,0.47,-4.70,-5.71,4.66,-3.79,3.45,503.00,1195.00,176.00,263.00,415.00,1341.00,569.00,932.00,,,,,,,,,,,,0,1,0,,-100,15356,4164,-226,-45,-66
21.745,21.57,-0.77,-4.35,5.17,-23.19,23.13,-0.37,-0.54,-0.04,-0.44,403.00,1200.00,60.00,318.00,499.00,1248.00,656.00,892.00,,,,,,,,,,,,0,1,0,,-132,15444,4300,-87,32,41
21.785,21.63,-0.58,1.15,-1.06,-2.47,4.63,3.00,-5.53,0.25,-1.58,511.00,1141.00,112.00,230.00,615.00,1249.00,694.00,909.00,,,,,,,,,,,,0,1,0,,-164,15512,4144,-169,98,-228
21.827,21.68,-0.75,-0.87,-0.05,14.39,-16.30,-4.02,1.56,-3.92,2.12,502.00,1203.00,256.00,207.00,476.00,1363.00,613.00,971.00,,,,,,,,,,,,0,1,0,,-100,15496,4172,-121,48,-126
21.888,21.74,-0.84,-1.50,1.97,-16.22,9.59,-2.55,2.86,-0.70,0.92,455.00,1168.00,110.00,347.00,432.00,1242.00,617.00,883.00,,,,,,,,,,,,0,1,0,,-212,15468,4200,-153,46,-126
21.949,21.80,-0.62,-1.20,1.43,-15.02,22.67,3.67,-4.02,2.19,-2.07,466.00,1171.00,53.00,233.00,560.00,1168.00,688.00,853.00,,,,,,,,,,,,0,1,0,,-120,15488,4168,-94,57,-27
22.011,21.85,-0.64,-0.98,2.04,16.24,-8.25,-1.15,-0.49,-1.57,0.91,449.00,1142.00,160.00,155.00,505.00,1286.00,627.00,914.00,,,,,,,,,,,,0,1,0,,-124,15440,4120,34,71,-212
22.096,21.91,-0.84,-0.13,-0.04,-4.00,0.63,-4.56,5.71,-2.80,2.89,495.00,1168.00,143.00,272.00,384.00,1246.00,576.00,910.00,,,,,,,,,,,,0,1,0,,-208,15468,4132,-69,73,-133
22.117,21.96,-0.69,-3.97,4.64,-44.22,57.08,2.10,-1.81,2.34,-1.04,412.00,1199.00,14.00,294.00,511.00,1171.00,649.00,825.00,,,,,,,,,,,,0,1,0,,-96,15364,4036,-134,124,-145
22.178,22.01,-0.62,1.69,-0.69,14.22,-4.29,0.76,-2.88,-0.22,-1.20,496.00,1106.00,134.00,151.00,555.00,1271.00,686.00,917.00,,,,,,,,,,,,0,1,0,,-108,15576,4016,-106,84,-158
22.24,22.07,-0.78,-1.26,0.30,6.04,-9.66,-3.81,1.34,-3.05,1.50,496.00,1210.00,208.00,241.00,480.00,1360.00,624.00,954.00,,,,,,,,,,,,0,1,0,,-124,15536,4108,-238,48,-177
22.323,22.12,-0.81,-2.56,3.03,-19.53,12.28,-1.39,0.68,-0.65,0.25,438.00,1184.00,101.00,368.00,476.00,1258.00,639.00,897.00,,,,,,,,,,,,0,1,0,,-196,15496,4248,-230,28,-80
22.344,22.18,-0.59,0.47,-0.54,-4.27,8.28,3.65,-6.02,1.38,-2.66,503.00,1156.00,95.00,224.00,624.00,1233.00,721.00,895.00,,,,,,,,,,,,0,1,0,,-100,15412,4388,-170,136,-320
22.405,22.23,-0.74,0.66,-1.43,16.26,-14.88,-3.58,1.49,-3.43,1.36,526.00,1175.00,229.00,185.00,474.00,1342.00,633.00,972.00,,,,,,,,,,,,0,1,0,,-112,15556,4196,-93,124,-300
22.447,22.29,-0.90,-0.60,0.45,-12.27,7.60,-4.01,4.18,-1.63,1.53,486.00,1174.00,114.00,313.00,413.00,1270.00,607.00,901.00,,,,,,,,,,,,0,1,0,,-192,15348,4168,-26,-2,-409
22.508,22.34,-0.70,-2.39,2.44,-27.59,37.41,3.20,-2.81,1.44,-1.05,451.00,1195.00,30.00,258.00,529.00,1152.00,660.00,855.00,,,,,,,,,,,,0,1,0,,-184,15408,4084,-95,-197,-369
22.549,22.40,-0.72,0.73,0.78,18.09,-6.93,-1.10,-0.65,-1.74,0.47,466.00,1104.00,144.00,139.00,509.00,1289.00,644.00,931.00,,,,,,,,,,,,0,1,0,,-308,15436,3956,-118,-205,-446
22.61,22.45,-0.97,-0.19,-0.25,-0.60,-4.24,-5.86,5.30,-3.38,3.08,501.00,1177.00,175.00,271.00,402.00,1326.00,576.00,926.00,,,,,,,,,,,,0,1,0,,-348,15324,4148,-178,-42,-190
22.691,22.51,-0.81,-4.31,5.21,-23.77,24.93,2.23,-3.31,1.06,-0.44,402.00,1197.00,55.00,310.00,553.00,1213.00,643.00,854.00,,,,,,,,,,,,0,1,0,,-228,15444,4276,-133,148,-159
22.712,22.57,-0.66,1.99,-1.81,-0.30,1.44,2.28,-4.64,-0.52,-0.81,524.00,1126.00,128.00,230.00,594.00,1255.00,675.00,918.00,,,,,,,,,,,,0,1,0,,-280,15576,4316,-68,156,-195
22.815,22.62,-0.85,-1.34,0.18,8.77,-13.22,-4.52,1.39,-4.95,2.80,500.00,1218.00,240.00,238.00,485.00,1397.00,602.00,993.00,,,,,,,,,,,,0,1,0,,-272,15536,4116,-140,41,-235
22.836,22.67,-0.93,-1.82,1.72,-22.37,17.08,-2.43,2.07,-0.64,0.36,464.00,1191.00,82.00,362.00,450.00,1263.00,635.00,894.00,,,,,,,,,,,,0,1,0,,-304,15504,4232,-68,18,-62
22.877,22.73,-0.68,-0.71,0.30,-13.13,17.71,3.99,-5.34,1.30,-2.17,491.00,1184.00,67.00,247.00,598.00,1195.00,703.00,886.00,,,,,,,,,,,,0,1,0,,-272,15380,4180,-181,157,-250
22.939,22.78,-0.73,-0.52,0.85,17.35,-11.99,-1.51,-0.08,-1.99,1.41,475.00,1158.00,192.00,164.00,497.00,1290.00,615.00,917.00,,,,,,,,,,,,0,1,0,,-340,15508,4088,-155,134,-98
23.001,22.84,-0.97,0.65,-0.71,-5.40,1.76,-5.56,5.71,-2.32,2.63,506.00,1153.00,138.00,279.00,391.00,1296.00,579.00,899.00,,,,,,,,,,,,0,1,0,,-312,15416,4272,-152,62,59
23.041,22.89,-0.77,-3.84,4.55,-35.89,47.69,2.91,-2.61,3.74,-2.88,413.00,1196.00,20.00,272.00,526.00,1159.00,699.00,820.00,,,,,,,,,,,,0,1,0,,-136,15448,4248,-26,139,59
23.103,22.95,-0.70,1.50,-0.25,13.49,-5.38,0.72,-2.93,-1.12,-0.07,486.00,1101.00,144.00,160.00,557.00,1275.00,656.00,922.00,,,,,,,,,,,,0,1,0,,-244,15372,4096,-17,173,-45
23.187,23.00,-0.88,-1.10,0.28,3.00,-8.01,-4.34,2.50,-5.23,5.11,495.00,1203.00,201.00,260.00,455.00,1346.00,534.00,944.00,,,,,,,,,,,,0,1,0,,-228,15420,4224,-17,29,-11
23.208,23.06,-0.88,-2.74,3.39,-16.12,10.41,-0.88,0.16,0.24,-0.39,431.00,1181.00,105.00,338.00,485.00,1250.00,651.00,881.00,,,,,,,,,,,,0,1,0,,-144,15448,4084,-82,67,-76
23.269,23.11,-0.67,1.12,-1.05,-3.97,6.68,3.36,-6.12,0.95,-2.64,511.00,1142.00,103.00,231.00,631.00,1251.00,726.00,910.00,,,,,,,,,,,,0,1,0,,-128,15484,3992,-174,110,-49
23.332,23.17,-0.86,-0.63,-0.32,15.46,-15.85,-4.47,1.64,-5.00,2.72,507.00,1200.00,245.00,196.00,478.00,1385.00,605.00,997.00,,,,,,,,,,,,0,1,0,,-164,15548,4216,-165,81,-16
23.394,23.23,-1.02,-1.64,1.27,-15.36,8.97,-4.05,3.84,-1.99,1.53,474.00,1197.00,112.00,341.00,421.00,1284.00,611.00,914.00,,,,,,,,,,,,0,1,0,,-144,15560,4224,-170,110,125
23.435,23.28,-0.85,-2.00,1.86,-19.46,25.99,2.45,-2.63,1.21,-1.06,462.00,1195.00,48.00,254.00,531.00,1181.00,663.00,863.00,,,,,,,,,,,,0,1,0,,-20,15508,4292,-51,205,-122
23.54,23.33,-0.84,0.90,0.61,20.14,-8.85,-0.78,-1.34,-1.38,0.47,469.00,1102.00,154.00,135.00,525.00,1296.00,640.00,918.00,,,,,,,,,,,,0,1,0,,-104,15416,4168,-55,81,-140
23.561,23.39,-1.10,-0.04,-0.33,-3.34,-0.47,-6.05,5.79,-3.48,3.61,502.00,1173.00,150.00,273.00,393.00,1319.00,561.00,917.00,,,,,,,,,,,,0,1,0,,-124,15488,4292,-143,23,-103
23.623,23.44,-0.99,-4.72,5.44,-27.90,31.74,1.23,-0.96,1.67,-0.99,400.00,1209.00,41.00,304.00,496.00,1185.00,655.00,846.00,,,,,,,,,,,,0,1,0,,-144,15508,4104,-74,133,-162
23.664,23.50,-0.88,1.81,-0.84,6.83,-2.35,1.21,-3.78,-1.15,-0.40,499.00,1105.00,138.00,192.00,578.00,1279.00,668.00,931.00,,,,,,,,,,,,0,1,0,,-144,15396,3948,-97,123,-253
23.725,23.55,-1.07,-1.66,0.58,7.57,-10.18,-4.80,2.18,-4.14,2.25,492.00,1220.00,208.00,230.00,467.00,1383.00,611.00,976.00,,,,,,,,,,,,0,1,0,,-108,15420,4024,-104,29,-111
23.766,23.61,-1.12,-3.42,3.28,-19.64,12.13,-1.96,1.34,-0.72,0.39,439.00,1217.00,102.00,371.00,464.00,1264.00,635.00,896.00,,,,,,,,,,,,0,1,0,,-292,15364,4316,-174,121,-141
23.827,23.66,-0.88,-0.07,-0.14,-13.36,18.34,3.58,-5.48,1.87,-2.80,497.00,1168.00,65.00,245.00,607.00,1219.00,720.00,881.00,,,,,,,,,,,,0,1,0,,-116,15492,4248,-100,161,-90
23.91,23.72,-0.98,-1.38,1.14,17.24,-14.04,-2.91,0.43,-3.38,1.29,475.00,1189.00,215.00,174.00,496.00,1345.00,635.00,972.00,,,,,,,,,,,,0,1,0,,-140,15484,4120,-126,93,-20
23.931,23.77,-1.17,-0.16,0.15,-8.97,4.07,-4.75,4.03,-2.45,1.71,490.00,1163.00,130.00,302.00,422.00,1313.00,610.00,926.00,,,,,,,,,,,,0,1,0,,-48,15504,4276,-118,134,77
23.973,23.83,-0.99,-3.52,3.61,-39.27,52.94,2.51,-2.37,2.54,-2.05,432.00,1211.00,16.00,270.00,523.00,1170.00,683.00,841.00,,,,,,,,,,,,0,1,0,,-56,15404,4000,-178,257,-241
24.034,23.89,-0.93,0.98,0.38,20.68,-7.67,0.14,-2.40,-1.49,0.02,474.00,1105.00,143.00,128.00,547.00,1286.00,657.00,933.00,,,,,,,,,,,,0,1,0,,-28,15428,4188,-188,50,-231
24.096,23.94,-1.14,-0.84,0.08,1.36,-5.72,-5.17,3.78,-3.12,2.87,498.00,1197.00,183.00,261.00,431.00,1344.00,580.00,922.00,,,,,,,,,,,,0,1,0,,-240,15436,4168,-162,-27,-139
24.138,24.00,-1.12,-3.55,4.28,-18.85,15.67,-0.78,-0.25,-0.15,-0.32,417.00,1191.00,83.00,327.00,495.00,1259.00,653.00,893.00,,,,,,,,,,,,0,1,0,,-252,15448,4228,-128,132,-104
24.199,24.05,-0.93,0.86,-0.96,-1.62,3.38,2.87,-5.45,-0.74,-1.16,511.00,1151.00,118.00,230.00,614.00,1253.00,691.00,935.00,,,,,,,,,,,,0,1,0,,-240,15460,4132,8,191,-159
24.282,24.10,-1.11,-1.01,0.18,12.92,-14.85,-4.60,1.38,-4.82,2.24,497.00,1202.00,243.00,211.00,486.00,1402.00,619.00,1003.00,,,,,,,,,,,,0,1,0,,-108,15608,4104,-131,50,-83
24.302,24.16,-1.23,-1.93,1.60,-16.24,8.46,-3.62,3.52,-1.55,1.08,468.00,1200.00,117.00,358.00,425.00,1273.00,621.00,909.00,,,,,,,,,,,,0,1,0,,-152,15520,4108,-119,106,-132
24.364,24.21,-1.02,-1.92,1.40,-17.51,22.82,2.98,-3.82,0.77,-1.51,473.00,1206.00,55.00,256.00,561.00,1194.00,685.00,889.00,,,,,,,,,,,,0,1,0,,-104,15516,4220,-206,153,-172
24.426,24.27,-1.07,-0.97,1.51,17.22,-9.70,-1.87,-0.47,-2.54,0.86,462.00,1158.00,170.00,155.00,511.00,1322.00,640.00,951.00,,,,,,,,,,,,0,1,0,,-300,15452,4156,-125,103,-106
24.487,24.32,-1.32,-0.44,-0.16,-4.71,-1.08,-6.10,5.52,-3.87,3.25,501.00,1186.00,159.00,293.00,399.00,1331.00,576.00,940.00,,,,,,,,,,,,0,1,0,,-188,15420,4148,-106,96,64
24.569,24.38,-1.19,-4.79,5.32,-34.43,39.71,1.20,-1.36,1.96,-1.42,403.00,1216.00,30.00,318.00,507.00,1199.00,667.00,846.00,,,,,,,,,,,,0,1,0,,-136,15424,4216,-8,243,-154
24.65,24.43,-1.08,1.55,-0.50,7.35,-2.52,1.09,-3.52,-1.23,-0.04,492.00,1106.00,138.00,189.00,571.00,1276.00,656.00,925.00,,,,,,,,,,,,0,1,0,,-12,15496,4124,-7,201,-126
24.671,24.49,-1.24,-1.36,0.30,5.38,-8.53,-4.26,1.64,-2.68,1.23,497.00,1215.00,198.00,240.00,476.00,1373.00,629.00,947.00,,,,,,,,,,,,0,1,0,,-40,15400,4148,-44,73,-121
24.712,24.55,-1.24,-2.72,2.67,-18.24,10.27,-1.38,0.75,-0.67,0.11,448.00,1203.00,110.00,369.00,474.00,1255.00,644.00,901.00,,,,,,,,,,,,0,1,0,,-116,15440,4116,-70,109,-159
24.774,24.60,-0.98,0.45,-0.68,-8.35,12.82,4.03,-6.11,1.25,-3.05,507.00,1161.00,80.00,233.00,623.00,1218.00,738.00,909.00,,,,,,,,,,,,0,1,0,,-220,15328,4200,-17,187,-217
24.835,24.66,-1.10,-1.06,0.34,15.72,-14.29,-3.42,0.60,-3.80,1.48,493.00,1199.00,224.00,186.00,496.00,1366.00,633.00,983.00,,,,,,,,,,,,0,1,0,,-196,15612,3944,-112,93,-204
24.877,24.71,-1.29,-0.44,0.29,-9.43,4.51,-4.79,4.76,-2.50,2.16,489.00,1172.00,128.00,304.00,406.00,1290.00,596.00,917.00,,,,,,,,,,,,0,1,0,,-212,15556,4112,-132,54,-217
24.918,24.76,-1.10,-3.15,3.07,-30.42,40.30,2.53,-2.66,1.34,-1.07,442.00,1211.00,27.00,267.00,531.00,1178.00,662.00,859.00,,,,,,,,,,,,0,1,0,,-208,15468,4300,-194,120,-180
25.042,24.82,-1.07,0.02,0.86,19.29,-8.69,-0.52,-2.28,-2.54,0.54,470.00,1133.00,155.00,139.00,550.00,1316.00,651.00,959.00,,,,,,,,,,,,0,1,0,,-188,15536,4280,-201,153,-71
25.062,24.87,-1.29,-0.72,-0.25,-1.11,-4.17,-5.53,3.73,-3.97,2.81,506.00,1202.00,176.00,276.00,435.00,1365.00,591.00,955.00,,,,,,,,,,,,0,1,0,,-152,15444,4136,-174,171,73
25.103,24.93,-1.26,-5.97,5.72,-23.38,22.58,-0.78,-0.40,-0.28,-0.50,403.00,1261.00,62.00,325.00,499.00,1264.00,661.00,902.00,,,,,,,,,,,,0,1,0,,-136,15376,4100,-192,219,-160
25.144,24.98,-1.12,0.96,-0.78,-3.57,4.68,1.66,-4.43,-0.61,-1.15,505.00,1141.00,114.00,240.00,594.00,1279.00,689.00,930.00,,,,,,,,,,,,0,1,0,,-188,15480,4120,-134,63,-68
25.206,25.04,-1.31,-1.58,0.41,9.38,-13.96,-4.93,1.68,-4.91,2.18,496.00,1222.00,247.00,237.00,481.00,1409.00,622.00,1008.00,,,,,,,,,,,,0,1,0,,-188,15436,4300,-123,109,-81
25.248,25.09,-1.42,-2.37,2.07,-17.85,9.81,-3.51,3.10,-0.52,0.74,460.00,1206.00,112.00,368.00,434.00,1282.00,621.00,881.00,,,,,,,,,,,,0,1,0,,-80,15432,4216,-128,153,-30
25.31,25.15,-1.20,-1.61,0.80,-20.60,26.38,2.95,-4.27,1.54,-2.69,486.00,1211.00,48.00,263.00,575.00,1210.00,720.00,890.00,,,,,,,,,,,,0,1,0,,-124,15416,4056,-43,136,-166
25.393,25.20,-1.23,-1.25,1.61,16.65,-10.04,-1.69,-0.53,-2.35,0.74,462.00,1168.00,175.00,160.00,511.00,1315.00,642.00,947.00,,,,,,,,,,,,0,1,0,,-56,15476,4172,-135,73,-145
25.413,25.26,-1.46,-0.09,-0.21,-4.36,0.63,-5.94,5.52,-3.18,2.95,499.00,1171.00,144.00,276.00,398.00,1323.00,578.00,922.00,,,,,,,,,,,,0,1,0,,-136,15428,4172,-211,91,-218
25.475,25.32,-1.31,-4.79,5.32,-49.12,63.18,1.64,-2.18,0.76,-0.65,403.00,1216.00,11.00,303.00,526.00,1205.00,654.00,869.00,,,,,,,,,,,,0,1,0,,-80,15520,4144,-162,113,-232
25.516,25.37,-1.22,1.06,-0.41,8.58,-1.70,0.39,-3.60,-2.28,0.20,494.00,1125.00,129.00,176.00,581.00,1315.00,660.00,958.00,,,,,,,,,,,,0,1,0,,-72,15484,4084,-209,100,-189
25.577,25.42,-1.37,-1.76,0.28,2.93,-7.61,-4.14,0.88,-4.13,1.86,501.00,1235.00,197.00,258.00,495.00,1395.00,624.00,986.00,,,,,,,,,,,,0,1,0,,-108,15672,4264,-71,162,-171
25.639,25.48,-1.35,-2.93,2.74,-20.35,13.49,-0.96,-0.23,-0.56,-0.63,448.00,1211.00,96.00,368.00,496.00,1267.00,669.00,915.00,,,,,,,,,,,,0,1,0,,-148,15296,4204,-191,146,-229
25.7,25.53,-1.15,0.21,-0.67,-4.89,9.69,2.68,-5.02,0.43,-2.16,509.00,1172.00,89.00,221.00,602.00,1248.00,714.00,917.00,,,,,,,,,,,,0,1,0,,-296,15516,4200,-84,3,-228
25.762,25.59,-1.28,-0.80,0.22,15.49,-14.53,-3.83,0.74,-4.48,2.19,494.00,1191.00,228.00,189.00,496.00,1383.00,617.00,991.00,,,,,,,,,,,,0,1,0,,-252,15468,3968,-221,80,-177
25.824,25.64,-1.41,-1.02,0.63,-12.33,6.52,-3.94,3.33,-2.12,1.63,485.00,1188.00,121.00,323.00,432.00,1296.00,609.00,916.00,,,,,,,,,,,,0,1,0,,-268,15448,4320,-104,163,25
25.908,25.70,-1.22,-2.77,2.32,-26.21,34.10,2.45,-2.94,0.58,-0.98,457.00,1217.00,35.00,267.00,540.00,1191.00,668.00,883.00,,,,,,,,,,,,0,1,0,,-252,15320,4000,-122,127,-99
25.928,25.75,-1.19,-0.58,1.42,19.82,-8.38,-0.59,-2.12,-2.09,0.39,461.00,1143.00,151.00,135.00,546.00,1314.00,651.00,946.00,,,,,,,,,,,,0,1,0,,-196,15508,4180,-121,16,-128
25.97,25.81,-1.43,-0.80,-0.22,-3.17,-2.06,-5.92,4.43,-4.49,3.46,506.00,1205.00,163.00,283.00,422.00,1361.00,576.00,958.00,,,,,,,,,,,,0,1,0,,-176,15492,4072,-46,111,-26
26.031,25.86,-1.37,-4.87,5.44,-25.21,25.75,-0.38,-0.79,-0.56,-0.29,401.00,1216.00,54.00,321.00,506.00,1257.00,657.00,907.00,,,,,,,,,,,,0,1,0,,-128,15460,4168,-138,153,-108
26.115,25.92,-1.24,1.28,-1.64,-1.53,2.29,1.34,-4.64,-1.52,-0.60,526.00,1153.00,125.00,236.00,604.00,1302.00,680.00,950.00,,,,,,,,,,,,0,1,0,,-152,15384,4100,-141,41,6
26.134,25.98,-1.45,-1.56,0.11,9.61,-13.50,-5.40,1.53,-5.19,2.16,504.00,1231.00,240.00,232.00,489.00,1441.00,626.00,1020.00,,,,,,,,,,,,0,1,0,,-88,15556,4148,-92,152,-137
26.194,26.03,-1.53,-2.98,2.72,-18.70,9.77,-3.13,2.43,-1.09,0.69,449.00,1214.00,114.00,381.00,447.00,1286.00,629.00,902.00,,,,,,,,,,,,0,1,0,,-52,15380,3956,-182,150,-97
26.256,26.08,-1.31,-1.04,0.75,-17.87,25.46,2.82,-4.61,1.32,-2.62,482.00,1185.00,48.00,242.00,587.00,1227.00,720.00,896.00,,,,,,,,,,,,0,1,0,,-104,15500,4232,-131,34,-138
26.338,26.14,-1.34,-1.10,1.36,16.63,-10.24,-1.88,-0.29,-2.80,1.44,467.00,1169.00,177.00,161.00,506.00,1316.00,623.00,946.00,,,,,,,,,,,,0,1,0,,-224,15480,4204,-103,66,-204
26.358,26.19,-1.57,-0.19,-0.25,-4.47,-0.93,-5.86,5.53,-3.09,2.99,501.00,1177.00,157.00,289.00,397.00,1318.00,576.00,918.00,,,,,,,,,,,,0,1,0,,-108,15676,4116,-45,163,-233
26.42,26.25,-1.38,-3.87,4.25,-69.54,94.04,2.25,-2.46,1.47,-1.09,420.00,1207.00,3.00,297.00,528.00,1185.00,661.00,855.00,,,,,,,,,,,,0,1,0,,-188,15428,4256,-91,86,-182
26.483,26.30,-1.31,1.41,-0.52,4.53,-1.03,0.01,-2.92,-1.65,0.10,494.00,1113.00,134.00,203.00,564.00,1311.00,656.00,937.00,,,,,,,,,,,,0,1,0,,-140,15512,4280,-155,114,-228
26.525,26.36,-1.50,-1.75,0.39,2.81,-7.00,-5.17,2.82,-4.25,2.53,498.00,1231.00,191.00,255.00,454.00,1379.00,603.00,973.00,,,,,,,,,,,,0,1,0,,-228,15516,4368,-190,112,-154
26.588,26.41,-1.48,-3.23,3.43,-16.10,10.06,-1.01,-0.21,-0.77,-0.19,434.00,1203.00,107.00,341.00,496.00,1269.00,656.00,912.00,,,,,,,,,,,,0,1,0,,-140,15472,4220,-150,97,-130
26.628,26.47,-1.28,0.47,-0.83,-3.32,5.08,2.46,-5.67,-0.48,-1.62,511.00,1165.00,111.00,235.00,626.00,1281.00,705.00,937.00,,,,,,,,,,,,0,1,0,,-160,15424,4400,-107,124,50
26.69,26.52,-1.42,-1.45,0.55,16.91,-17.23,-4.11,0.83,-5.31,2.23,491.00,1211.00,257.00,192.00,496.00,1395.00,625.00,1023.00,,,,,,,,,,,,0,1,0,,-16,15448,4212,-34,216,-197
26.75,26.58,-1.53,-1.19,0.88,-13.44,7.36,-3.64,3.44,-1.52,1.37,480.00,1188.00,118.00,330.00,427.00,1277.00,611.00,901.00,,,,,,,,,,,,0,1,0,,-64,15464,4240,-34,56,-123
26.813,26.64,-1.30,-2.56,2.54,-25.79,35.04,3.05,-3.11,0.51,-0.54,450.00,1200.00,33.00,256.00,539.00,1168.00,653.00,875.00,,,,,,,,,,,,0,1,0,,-280,15392,4236,-1,21,-47
26.855,26.69,-1.30,-0.20,1.25,21.67,-9.13,-1.34,-0.65,-2.15,1.08,462.00,1131.00,152.00,128.00,511.00,1301.00,628.00,931.00,,,,,,,,,,,,0,1,0,,-176,15424,4212,-112,174,-42
26.916,26.75,-1.56,-0.19,-0.25,-1.75,-2.54,-6.44,5.92,-4.12,3.82,501.00,1177.00,163.00,271.00,393.00,1335.00,561.00,935.00,,,,,,,,,,,,0,1,0,,-60,15472,3988,10,178,-196
26.957,26.80,-1.44,-4.70,5.66,-27.90,31.74,0.87,-1.35,1.51,-1.10,395.00,1201.00,41.00,304.00,510.00,1215.00,661.00,854.00,,,,,,,,,,,,0,1,0,,-60,15548,4200,-162,-1,-115
27.019,26.85,-1.30,1.31,-0.68,3.15,0.28,1.30,-3.97,-0.39,-0.71,499.00,1122.00,128.00,207.00,583.00,1281.00,670.00,911.00,,,,,,,,,,,,0,1,0,,-164,15564,4132,-132,92,-197
27.08,26.91,-1.47,-1.20,0.43,6.91,-10.48,-4.74,1.85,-4.53,2.26,492.00,1203.00,214.00,238.00,475.00,1392.00,615.00,991.00,,,,,,,,,,,,0,1,0,,24,15524,4044,-214,119,-167
27.163,26.96,-1.54,-2.80,2.82,-21.95,15.85,-2.71,2.04,-0.90,0.74,445.00,1202.00,87.00,368.00,453.00,1278.00,625.00,894.00,,,,,,,,,,,,0,1,0,,-148,15616,4232,-147,82,-169
27.244,27.02,-1.28,-0.37,0.53,-12.88,19.36,3.63,-5.44,0.51,-1.66,482.00,1161.00,61.00,234.00,605.00,1215.00,694.00,902.00,,,,,,,,,,,,0,1,0,,-16,15560,4208,-108,132,-79
27.265,27.07,-1.30,-0.83,0.80,21.39,-14.38,-1.66,-0.47,-2.39,1.28,479.00,1174.00,203.00,149.00,509.00,1311.00,624.00,935.00,,,,,,,,,,,,0,1,0,,-156,15396,4232,-154,204,-165
27.307,27.13,-1.45,0.74,-0.30,-7.71,5.43,-4.35,4.75,-1.79,2.65,494.00,1136.00,118.00,277.00,403.00,1268.00,573.00,880.00,,,,,,,,,,,,0,1,0,,-204,15596,4312,-56,52,-213
27.348,27.18,-1.25,-3.39,4.35,inf,inf,2.44,-1.67,2.28,-0.82,414.00,1181.00,0.00,249.00,504.00,1151.00,642.00,822.00,,,,,,,,,,,,0,1,0,,-180,15532,4168,-57,114,-155
27.411,27.24,-1.15,1.29,0.67,16.36,-5.69,0.83,-2.84,-0.79,-0.16,464.00,1083.00,139.00,144.00,553.00,1266.00,655.00,912.00,,,,,,,,,,,,0,1,0,,-104,15412,4344,19,133,-97
27.494,27.30,-1.31,-0.85,0.16,2.76,-6.20,-4.26,2.89,-2.81,2.86,496.00,1195.00,183.00,250.00,445.00,1328.00,577.00,911.00,,,,,,,,,,,,0,1,0,,-168,15476,4096,14,121,-193
27.534,27.35,-1.26,-2.76,3.48,-18.42,14.04,-0.40,0.43,0.26,0.00,429.00,1179.00,90.00,336.00,474.00,1218.00,637.00,871.00,,,,,,,,,,,,0,1,0,,-212,15492,3976,-106,64,-126
27.597,27.41,-1.00,1.54,-0.97,-2.19,5.21,3.96,-5.79,1.31,-2.36,505.00,1121.00,108.00,224.00,613.00,1211.00,710.00,890.00,,,,,,,,,,,,0,1,0,,-68,15456,3972,-90,190,-141
27.618,27.46,-1.15,-0.45,0.14,18.23,-16.56,-3.95,1.58,-3.89,2.11,493.00,1177.00,242.00,179.00,475.00,1359.00,613.00,970.00,,,,,,,,,,,,0,1,0,,-244,15464,4096,-252,177,-197
27.679,27.51,-1.25,-0.50,0.73,-16.09,11.49,-3.15,3.45,-0.78,1.15,478.00,1161.00,99.00,328.00,423.00,1252.00,610.00,880.00,,,,,,,,,,,,0,1,0,,-256,15376,4288,-117,76,-196
27.742,27.57,-1.03,-1.41,1.62,-30.66,44.17,3.05,-3.11,1.50,-0.96,463.00,1175.00,22.00,243.00,539.00,1168.00,656.00,851.00,,,,,,,,,,,,0,1,0,,-140,15708,4264,-169,167,-181
27.804,27.62,-1.01,-0.12,1.84,21.24,-8.49,-0.58,-0.76,-1.04,0.82,447.00,1110.00,148.00,128.00,507.00,1266.00,624.00,897.00,,,,,,,,,,,,0,1,0,,-116,15396,4036,-188,166,-187
27.824,27.68,-1.22,0.43,-0.19,-0.45,-2.05,-5.30,6.06,-2.89,4.18,494.00,1147.00,155.00,254.00,382.00,1271.00,538.00,882.00,,,,,,,,,,,,0,1,0,,-192,15344,4212,-154,28,-147
27.885,27.73,-1.05,-3.56,5.05,-37.42,48.20,2.17,-1.39,2.71,-0.76,400.00,1167.00,20.00,285.00,499.00,1155.00,635.00,807.00,,,,,,,,,,,,0,1,0,,-172,15504,4300,-117,164,-181
27.967,27.79,-0.88,2.53,-0.64,7.55,-0.16,2.45,-3.94,0.39,-0.78,487.00,1068.00,121.00,176.00,570.00,1223.00,663.00,885.00,,,,,,,,,,,,0,1,0,,-160,15752,4248,31,238,-132
28.008,27.84,-1.04,-0.56,0.60,10.94,-11.40,-4.01,2.07,-2.96,1.94,482.00,1168.00,209.00,208.00,463.00,1344.00,608.00,939.00,,,,,,,,,,,,0,1,0,,-100,15368,4080,-88,64,-104
28.069,27.90,-1.06,-2.28,3.07,-17.79,11.70,-1.53,2.31,0.50,0.60,435.00,1170.00,101.00,349.00,437.00,1211.00,614.00,849.00,,,,,,,,,,,,0,1,0,,-240,15516,4160,-79,93,-199
28.13,27.95,-0.77,0.52,-0.04,-8.62,16.75,4.69,-5.42,3.09,-2.95,489.00,1138.00,65.00,212.00,593.00,1165.00,710.00,843.00,,,,,,,,,,,,0,1,0,,-60,15568,3896,-150,166,-154
28.151,28.01,-0.81,-1.32,1.55,21.09,-14.18,-1.54,0.20,-2.01,1.84,464.00,1173.00,202.00,150.00,490.00,1282.00,601.00,907.00,,,,,,,,,,,,0,1,0,,-228,15424,4176,-120,101,-148
28.212,28.07,-0.99,0.47,0.17,2.29,1.00,-4.40,5.32,-1.30,2.13,484.00,1134.00,125.00,210.00,391.00,1251.00,584.00,875.00,,,,,,,,,,,,0,1,0,,-216,15380,4216,-153,104,-16
28.273,28.12,-0.74,-2.20,3.17,-45.91,63.86,4.12,-3.05,3.44,-1.61,432.00,1163.00,10.00,262.00,527.00,1118.00,656.00,802.00,,,,,,,,,,,,0,1,0,,-140,15372,4236,-148,199,-310
28.335,28.17,-0.64,2.49,-0.47,29.43,-18.48,1.13,-2.08,0.40,-0.59,483.00,1065.00,219.00,121.00,528.00,1226.00,656.00,880.00,,,,,,,,,,,,0,1,0,,-272,15392,4072,-169,70,-133
28.395,28.23,-0.78,0.35,-0.24,5.89,-7.04,-3.33,3.04,-2.22,2.99,496.00,1152.00,181.00,226.00,434.00,1275.00,567.00,887.00,,,,,,,,,,,,0,1,0,,-224,15324,4284,-132,-52,-94
28.457,28.28,-0.70,-2.60,4.04,-20.05,18.96,0.69,0.06,1.98,-0.61,415.00,1154.00,71.00,314.00,474.00,1178.00,638.00,827.00,,,,,,,,,,,,0,1,0,,-188,15364,4344,-107,166,-26
28.499,28.34,-0.42,2.23,-1.42,2.72,3.90,4.96,-5.85,2.23,-2.22,511.00,1104.00,106.00,191.00,604.00,1166.00,693.00,855.00,,,,,,,,,,,,0,1,0,,-248,15500,4016,31,201,-224
28.539,28.39,-0.55,0.02,0.25,18.92,-16.09,-2.98,1.18,-3.34,2.35,486.00,1152.00,233.00,172.00,477.00,1322.00,599.00,943.00,,,,,,,,,,,,0,1,0,,-120,15404,4120,-35,-52,-85
28.601,28.45,-0.62,-0.66,1.77,-13.03,9.20,-1.91,3.30,0.35,1.26,453.00,1136.00,106.00,309.00,417.00,1197.00,594.00,839.00,,,,,,,,,,,,0,1,0,,-76,15456,4172,-116,68,-110
28.704,28.50,-0.39,-1.01,1.93,-18.98,30.15,3.83,-2.88,2.97,-1.71,452.00,1147.00,38.00,223.00,525.00,1126.00,665.00,819.00,,,,,,,,,,,,0,1,0,,-180,15524,4028,-119,156,-98
28.724,28.56,-0.37,0.03,1.62,22.91,-8.55,0.12,-0.77,-0.87,0.91,451.00,1110.00,144.00,120.00,501.00,1232.00,619.00,889.00,,,,,,,,,,,,0,1,0,,-244,15444,3960,-167,87,-52
28.765,28.61,-0.59,0.90,-0.20,-2.20,-1.46,-4.72,5.62,-2.57,3.17,490.00,1126.00,155.00,268.00,387.00,1257.00,565.00,895.00,,,,,,,,,,,,0,1,0,,-56,15560,4376,-150,81,74
28.826,28.67,-0.41,-3.33,4.97,-38.53,51.58,2.84,-1.20,4.12,-1.53,400.00,1159.00,17.00,272.00,488.00,1119.00,645.00,779.00,,,,,,,,,,,,0,1,0,,-64,15428,4196,-228,201,-123
28.887,28.73,-0.24,3.17,-1.19,14.90,-3.53,3.10,-3.99,1.41,-0.79,496.00,1057.00,127.00,144.00,565.00,1194.00,651.00,850.00,,,,,,,,,,,,0,1,0,,-48,15436,4068,-190,91,-164
28.948,28.78,-0.41,-0.07,0.35,9.73,-9.62,-3.63,2.76,-3.21,1.85,484.00,1153.00,194.00,208.00,443.00,1300.00,614.00,951.00,,,,,,,,,,,,0,1,0,,-76,15616,4188,-155,27,-115
28.99,28.83,-0.39,-1.91,3.15,-21.00,16.85,0.05,1.31,2.08,-0.52,430.00,1150.00,81.00,345.00,448.00,1168.00,634.00,822.00,,,,,,,,,,,,0,1,0,,-132,15512,4452,-66,155,-81
29.053,28.89,-0.07,1.07,0.04,-6.80,16.42,5.82,-5.33,3.48,-2.77,482.00,1111.00,64.00,199.00,578.00,1111.00,698.00,826.00,,,,,,,,,,,,0,1,0,,-164,15380,4088,-34,107,-148
29.116,28.94,-0.15,0.43,0.73,22.82,-15.22,-1.50,1.11,-1.15,1.06,470.00,1119.00,207.00,144.00,466.00,1249.00,617.00,895.00,,,,,,,,,,,,0,1,0,,-132,15488,4284,-132,44,-81
29.158,29.00,-0.28,1.63,-0.33,-4.07,3.59,-2.89,4.30,0.26,1.89,487.00,1098.00,122.00,252.00,402.00,1211.00,575.00,828.00,,,,,,,,,,,,0,1,0,,-112,15388,4208,-95,122,-96
29.219,29.05,-0.03,-2.34,3.21,-51.46,75.15,4.74,-2.40,4.77,-2.06,432.00,1168.00,6.00,241.00,503.00,1072.00,656.00,770.00,,,,,,,,,,,,0,1,0,,-136,15460,4120,-122,130,-100
29.281,29.11,0.05,2.11,0.44,26.74,-8.51,1.68,-2.41,0.30,0.08,463.00,1055.00,134.00,103.00,532.00,1210.00,634.00,868.00,,,,,,,,,,,,0,1,0,,-104,15420,4260,-142,81,7
29.321,29.16,-0.13,0.15,-0.17,3.31,-4.69,-3.63,4.01,-1.37,2.93,496.00,1159.00,167.00,235.00,414.00,1257.00,560.00,859.00,,,,,,,,,,,,0,1,0,,24,15620,4280,-25,270,-286
29.422,29.22,-0.09,-2.80,4.38,-21.01,22.70,0.76,0.43,1.92,-0.47,409.00,1153.00,59.00,295.00,464.00,1163.00,634.00,826.00,,,,,,,,,,,,0,1,0,,-88,15380,4156,-156,111,-155
29.442,29.27,0.16,1.86,-0.33,2.15,5.73,4.81,-4.77,2.53,-2.21,485.00,1088.00,97.00,186.00,571.00,1139.00,689.00,845.00,,,,,,,,,,,,0,1,0,,-152,15364,4248,-97,85,-179
29.523,29.33,0.00,0.29,0.04,20.56,-16.96,-2.97,2.04,-1.98,1.68,489.00,1146.00,237.00,165.00,455.00,1291.00,606.00,910.00,,,,,,,,,,,,0,1,0,,-116,15444,4220,-204,238,-205
29.544,29.39,-0.09,-0.11,1.38,-12.84,10.40,-1.76,4.34,0.49,2.24,458.00,1123.00,99.00,297.00,393.00,1157.00,562.00,813.00,,,,,,,,,,,,0,1,0,,-40,15620,4168,-45,345,-167
29.586,29.44,0.18,-0.07,1.49,-18.24,39.17,5.13,-3.39,4.14,-1.85,455.00,1118.00,23.00,170.00,527.00,1084.00,656.00,785.00,,,,,,,,,,,,0,1,0,,-132,15424,4128,-123,554,-39
29.647,29.50,0.24,0.41,1.70,25.03,-9.77,1.56,-1.48,0.75,0.28,446.00,1091.00,148.00,114.00,507.00,1186.00,622.00,848.00,,,,,,,,,,,,0,1,0,,-140,15372,4304,-103,701,-112
29.73,29.55,0.03,1.35,-0.12,-1.98,1.86,-4.13,6.20,-0.73,2.95,484.00,1104.00,129.00,243.00,371.00,1209.00,553.00,837.00,,,,,,,,,,,,0,1,0,,-256,15472,4232,-211,770,-72
29.831,29.60,0.19,-3.30,5.24,-44.11,61.49,3.40,-1.05,4.10,-1.26,394.00,1149.00,11.00,260.00,479.00,1090.00,636.00,774.00,,,,,,,,,,,,0,1,0,,-156,15368,4212,17,1127,-85
29.852,29.66,0.34,3.01,-0.95,13.47,-3.20,3.17,-3.82,1.14,-0.38,491.00,1057.00,128.00,151.00,559.00,1185.00,640.00,850.00,,,,,,,,,,,,0,1,0,,-228,15516,3992,-98,1038,66
29.873,29.71,0.27,0.69,-0.28,11.34,-11.44,-1.05,0.03,-0.31,1.05,494.00,1138.00,208.00,205.00,490.00,1263.00,608.00,866.00,,,,,,,,,,,,0,1,0,,-256,15424,4192,98,879,-263
29.934,29.77,0.28,-0.88,2.55,-15.85,12.77,0.42,1.07,2.62,-0.35,436.00,1122.00,92.00,314.00,451.00,1159.00,622.00,801.00,,,,,,,,,,,,0,1,0,,-284,15504,3980,-60,629,-323
29.976,29.82,0.57,1.56,-0.19,-5.49,14.86,6.05,-5.08,4.34,-2.79,484.00,1097.00,68.00,197.00,568.00,1094.00,688.00,799.00,,,,,,,,,,,,0,1,0,,-284,15444,3848,-114,10,-243
30.04,29.88,0.52,0.73,0.78,25.11,-15.63,-0.40,0.38,-0.95,1.45,466.00,1104.00,203.00,133.00,475.00,1219.00,602.00,879.00,,,,,,,,,,,,1,1,0,,-268,15520,4272,-2,-171,-407
30.181,29.93,0.39,1.14,0.49,-5.21,5.72,-2.18,4.77,0.84,1.35,470.00,1095.00,111.00,249.00,387.00,1163.00,586.00,821.00,,,,,,,,,,,,1,1,0,,-452,15468,3996,-35,-4,-470
30.202,29.99,0.64,-0.71,2.54,-23.65,39.45,5.44,-2.23,4.98,-1.23,435.00,1115.00,25.00,209.00,492.00,1038.00,625.00,747.00,,,,,,,,,,,,1,1,0,,-320,15436,4100,-3,16,-416
30.222,30.05,0.75,2.62,0.23,29.39,-9.40,2.78,-2.03,1.68,-0.15,464.00,1040.00,134.00,95.00,511.00,1147.00,626.00,827.00,,,,,,,,,,,,1,1,0,,-404,15448,4004,-201,43,-490
30.243,30.10,0.52,1.65,-0.57,4.48,-4.29,-3.71,4.90,-0.94,3.39,493.00,1104.00,160.00,222.00,395.00,1231.00,542.00,834.00,,,,,,,,,,,,1,1,0,,-448,15536,4208,-182,-65,-429
30.326,30.16,0.59,-2.57,5.42,-22.62,28.25,1.80,0.24,2.89,-0.56,385.00,1111.00,45.00,271.00,460.00,1122.00,626.00,797.00,,,,,,,,,,,,1,1,0,,-516,15456,4296,-187,57,-409
30.367,30.21,0.81,2.91,-1.54,0.26,5.26,4.99,-4.76,2.70,-1.75,508.00,1078.00,103.00,203.00,569.00,1131.00,670.00,829.00,,,,,,,,,,,,1,1,0,,-488,15500,4228,-35,196,-260
30.428,30.26,0.70,1.33,-0.57,17.96,-15.53,-1.29,0.92,-0.94,0.85,496.00,1118.00,230.00,176.00,469.00,1245.00,622.00,893.00,,,,,,,,,,,,1,1,0,,-572,15312,3972,-211,192,-385
30.49,30.32,0.65,0.24,1.51,-11.39,8.13,-0.32,2.90,1.87,0.84,452.00,1104.00,109.00,298.00,414.00,1136.00,591.00,799.00,,,,,,,,,,,,1,1,0,,-500,15528,4128,-29,73,-366
30.531,30.37,0.92,0.66,0.88,-19.21,33.98,6.11,-3.69,4.39,-1.87,464.00,1104.00,31.00,203.00,526.00,1051.00,654.00,778.00,,,,,,,,,,,,1,1,0,,-552,15472,4136,-71,120,-317
30.592,30.43,0.97,0.54,2.16,25.90,-10.06,1.86,-0.84,1.55,0.13,434.00,1072.00,148.00,111.00,487.00,1152.00,618.00,825.00,,,,,,,,,,,,1,1,0,,-612,15448,4088,-64,57,-213
30.653,30.48,0.77,2.47,-0.66,2.99,0.33,-3.05,5.89,-0.25,3.19,488.00,1071.00,128.00,208.00,370.00,1168.00,541.00,816.00,,,,,,,,,,,,1,1,0,,-624,15388,4112,-110,113,-208
30.714,30.54,0.96,-2.65,5.40,-35.42,51.65,4.47,-1.45,5.33,-1.50,386.00,1115.00,16.00,240.00,480.00,1056.00,630.00,742.00,,,,,,,,,,,,1,1,0,,-648,15488,4140,-67,297,-188
30.757,30.59,1.09,4.16,-0.99,17.64,-2.30,3.75,-3.07,2.39,-0.80,482.00,1011.00,113.00,125.00,531.00,1135.00,640.00,818.00,,,,,,,,,,,,1,1,0,,-616,15496,4076,-73,377,-146
30.818,30.65,0.96,0.31,0.34,9.31,-8.99,-1.67,1.94,-0.10,1.35,481.00,1136.00,189.00,208.00,447.00,1230.00,596.00,852.00,,,,,,,,,,,,1,1,0,,-632,15516,4112,-130,279,-141
30.899,30.70,0.96,-0.64,2.64,-15.88,14.02,1.04,1.19,2.43,-0.35,432.00,1109.00,86.00,304.00,443.00,1127.00,624.00,807.00,,,,,,,,,,,,1,1,0,,-600,15440,4100,-87,274,-143
30.919,30.76,1.23,2.68,-1.06,-7.12,18.03,6.38,-5.58,4.38,-2.80,497.00,1074.00,59.00,193.00,580.00,1094.00,688.00,798.00,,,,,,,,,,,,1,1,0,,-600,15760,4308,-204,350,-250
30.959,30.82,1.15,0.91,0.53,27.14,-16.31,-0.44,1.03,-0.41,0.61,471.00,1104.00,203.00,125.00,459.00,1200.00,624.00,880.00,,,,,,,,,,,,1,1,0,,-596,15448,3928,-248,286,-296
31.02,30.87,0.98,2.14,-0.20,-7.65,7.57,-2.21,5.46,1.15,2.05,479.00,1072.00,105.00,261.00,373.00,1143.00,561.00,796.00,,,,,,,,,,,,1,1,0,,-692,15432,4008,-143,-86,-277
31.102,30.92,1.24,-0.33,2.28,-3.26,6.63,6.07,-2.44,5.43,-1.30,438.00,1106.00,102.00,225.00,492.00,1018.00,622.00,735.00,,,,,,,,,,,,1,1,0,,-748,15560,4256,-53,42,-359
31.122,30.98,1.32,2.86,0.67,32.25,-7.21,2.86,-1.62,1.94,-0.09,451.00,1018.00,113.00,80.00,499.00,1131.00,621.00,817.00,,,,,,,,,,,,1,1,0,,-708,15580,4080,53,149,-201
31.184,31.03,1.12,1.75,-0.71,5.99,-4.09,-2.60,5.00,0.01,2.40,496.00,1104.00,154.00,208.00,385.00,1175.00,562.00,825.00,,,,,,,,,,,,1,1,0,,-724,15368,3972,-175,140,-214
31.265,31.09,1.20,-2.28,4.75,-21.00,26.13,2.74,0.00,4.26,-1.11,397.00,1118.00,49.00,269.00,458.00,1088.00,629.00,766.00,,,,,,,,,,,,1,1,0,,-752,15492,4044,-232,38,-280
31.306,31.14,1.42,3.38,-1.15,3.76,5.00,5.60,-4.81,3.19,-1.61,493.00,1047.00,98.00,178.00,564.00,1105.00,659.00,810.00,,,,,,,,,,,,1,1,0,,-852,15460,4136,-348,-23,-214
31.347,31.20,1.26,0.53,0.15,22.01,-19.99,-1.85,2.08,-0.82,1.59,484.00,1132.00,272.00,169.00,445.00,1234.00,596.00,871.00,,,,,,,,,,,,1,1,0,,-828,15464,4260,-216,30,-121
31.409,31.25,1.18,0.81,0.83,-13.14,8.89,-0.35,2.95,2.25,0.19,464.00,1099.00,108.00,313.00,413.00,1136.00,608.00,801.00,,,,,,,,,,,,1,1,0,,-768,15396,4244,-111,177,148
31.471,31.31,1.44,0.79,0.57,-15.08,27.88,6.53,-4.62,5.48,-3.20,471.00,1108.00,40.00,203.00,549.00,1060.00,689.00,772.00,,,,,,,,,,,,1,1,0,,-532,15316,4128,-141,254,-95
31.533,31.36,1.46,1.07,1.27,24.58,-10.71,1.82,-0.32,1.60,0.32,451.00,1075.00,157.00,119.00,474.00,1138.00,611.00,819.00,,,,,,,,,,,,1,1,0,,-632,15504,4196,-139,116,-9
31.575,31.42,1.24,2.45,-0.72,4.05,-1.42,-2.91,6.40,0.64,2.76,490.00,1074.00,138.00,209.00,359.00,1146.00,545.00,797.00,,,,,,,,,,,,1,1,0,,-660,15492,4176,-105,68,-2
31.657,31.48,1.43,-1.89,4.49,-44.74,65.41,4.96,-0.99,4.82,0.01,400.00,1109.00,9.00,240.00,464.00,1023.00,586.00,727.00,,,,,,,,,,,,1,1,0,,-532,15296,3972,-148,97,-114
31.677,31.53,1.57,4.00,-0.86,18.72,-2.98,4.12,-3.16,2.06,-0.40,480.00,1014.00,115.00,122.00,530.00,1121.00,630.00,820.00,,,,,,,,,,,,1,1,0,,-592,15688,4104,-38,101,-198
31.74,31.58,1.40,1.01,-0.20,12.26,-8.98,-1.75,2.51,1.34,0.44,489.00,1121.00,179.00,185.00,434.00,1215.00,610.00,825.00,,,,,,,,,,,,1,1,0,,-608,15496,4148,-152,68,-188
31.8,31.64,1.43,-1.01,3.16,-14.03,12.15,2.01,0.53,3.57,-0.91,423.00,1110.00,92.00,297.00,451.00,1104.00,630.00,783.00,,,,,,,,,,,,1,1,0,,-736,15504,4104,-96,87,-170
31.841,31.69,1.69,2.56,-0.98,-2.59,11.35,6.72,-5.57,4.39,-2.78,496.00,1077.00,78.00,193.00,576.00,1079.00,687.00,797.00,,,,,,,,,,,,1,1,0,,-776,15452,4220,-163,71,-177
31.903,31.75,1.60,0.19,1.04,24.06,-15.72,-0.21,0.64,-0.76,1.30,464.00,1120.00,208.00,139.00,467.00,1202.00,605.00,876.00,,,,,,,,,,,,1,1,0,,-696,15516,4076,-228,159,-169
32.004,31.80,1.45,1.70,-0.47,2.30,-7.12,-1.40,4.36,1.03,1.16,490.00,1099.00,194.00,261.00,390.00,1140.00,590.00,819.00,,,,,,,,,,,,1,1,0,,-664,15712,4060,-152,119,-151
32.025,31.86,1.68,-0.04,1.53,-24.23,37.55,6.04,-2.39,4.82,-1.30,454.00,1116.00,28.00,225.00,491.00,1018.00,629.00,753.00,,,,,,,,,,,,1,1,0,,-664,15436,4176,-91,96,-276
32.066,31.91,1.74,2.18,1.02,27.58,-7.50,2.99,-1.55,2.38,-0.18,448.00,1036.00,125.00,97.00,496.00,1123.00,619.00,805.00,,,,,,,,,,,,1,1,0,,-816,15488,4176,6,14,-265
32.128,31.97,1.56,1.97,-1.05,8.54,-4.09,-1.93,4.59,0.86,2.25,503.00,1104.00,147.00,188.00,389.00,1157.00,558.00,801.00,,,,,,,,,,,,1,1,0,,-660,15420,4272,101,134,-91
32.192,32.03,1.66,-2.47,5.34,-21.62,28.75,3.58,-0.24,4.92,-1.24,386.00,1109.00,43.00,257.00,457.00,1059.00,626.00,749.00,,,,,,,,,,,,1,1,0,,-740,15396,4096,-14,252,-110
32.232,32.08,1.86,3.44,-0.98,3.87,6.33,5.53,-4.15,3.55,-1.53,488.00,1040.00,91.00,171.00,545.00,1089.00,652.00,797.00,,,,,,,,,,,,1,1,0,,-700,15464,4108,16,68,-196
32.294,32.14,1.71,1.15,-0.47,17.24,-14.47,-0.96,1.01,-0.09,1.04,495.00,1123.00,220.00,176.00,464.00,1226.00,606.00,859.00,,,,,,,,,,,,1,1,0,,-696,15472,4008,-124,85,-132
32.376,32.19,1.67,0.14,1.58,-13.82,11.11,0.80,1.95,2.49,0.64,451.00,1106.00,97.00,303.00,427.00,1115.00,591.00,784.00,,,,,,,,,,,,1,1,0,,-652,15432,4156,-114,127,-271
32.416,32.25,1.93,1.04,0.36,-15.70,27.20,6.86,-4.93,5.22,-2.57,474.00,1103.00,42.00,212.00,555.00,1055.00,669.00,767.00,,,,,,,,,,,,1,1,0,,-536,15408,3992,-132,-54,-408
32.458,32.30,1.93,1.13,0.81,23.55,-11.61,2.05,-0.82,1.76,0.09,462.00,1086.00,168.00,127.00,485.00,1143.00,617.00,819.00,,,,,,,,,,,,1,1,0,,-704,15456,4224,-3,11,-477
32.498,32.35,1.72,2.19,-0.82,1.78,0.88,-2.33,4.96,0.46,2.28,495.00,1088.00,127.00,215.00,384.00,1164.00,561.00,813.00,,,,,,,,,,,,1,1,0,,-660,15676,4116,79,35,-316
32.56,32.41,1.92,-2.31,4.53,inf,inf,5.67,-1.81,6.26,-1.69,402.00,1126.00,0.00,240.00,479.00,1017.00,626.00,719.00,,,,,,,,,,,,1,1,0,,-716,15436,3976,24,-6,-459
32.62,32.47,2.04,3.47,-1.07,21.83,-6.01,4.27,-3.24,2.59,-0.72,490.00,1041.00,128.00,117.00,531.00,1117.00,635.00,810.00,,,,,,,,,,,,1,1,0,,-944,15404,4180,97,-144,-434
32.68,32.52,1.90,0.77,-0.27,10.58,-9.23,-0.78,2.35,1.02,1.13,493.00,1134.00,187.00,199.00,430.00,1174.00,591.00,820.00,,,,,,,,,,,,1,1,0,,-880,15604,4096,55,-180,-272
32.742,32.58,1.91,-0.68,2.87,-14.60,13.38,2.10,0.87,3.32,-0.35,427.00,1104.00,87.00,294.00,442.00,1090.00,614.00,779.00,,,,,,,,,,,,1,1,0,,-924,15520,3980,126,-52,-204
32.803,32.63,2.16,3.11,-1.17,-6.85,11.42,6.94,-5.64,4.94,-2.83,496.00,1059.00,84.00,228.00,576.00,1072.00,682.00,781.00,,,,,,,,,,,,1,1,0,,-908,15496,3756,68,-59,-249
32.844,32.69,2.04,0.71,0.75,21.40,-13.64,-0.19,0.67,0.51,0.63,467.00,1106.00,195.00,146.00,466.00,1200.00,613.00,848.00,,,,,,,,,,,,1,1,0,,-880,15516,3848,35,-18,-263
32.947,32.74,1.88,1.36,0.06,-7.69,6.23,-1.17,4.19,2.49,0.64,479.00,1098.00,113.00,271.00,392.00,1135.00,591.00,784.00,,,,,,,,,,,,1,1,0,,-848,15456,3896,-45,6,-357
32.968,32.80,2.02,0.03,1.38,-19.46,32.91,4.67,-1.16,5.37,-1.80,457.00,1117.00,33.00,211.00,471.00,1040.00,640.00,747.00,,,,,,,,,,,,1,1,0,,-812,15380,3920,-83,22,-306
33.009,32.85,2.07,2.06,0.94,28.30,-8.19,3.10,-2.14,2.00,-0.17,451.00,1043.00,128.00,96.00,511.00,1136.00,623.00,817.00,,,,,,,,,,,,1,1,0,,-784,15656,4044,-151,84,-348
33.111,32.91,1.84,1.72,-0.78,5.88,-4.30,-2.60,4.81,-0.24,2.32,498.00,1107.00,156.00,210.00,389.00,1181.00,567.00,835.00,,,,,,,,,,,,1,1,0,,-956,15632,4104,-62,40,-330
33.132,32.96,1.94,-2.65,5.07,-24.06,32.35,3.96,-1.00,4.74,-1.18,393.00,1125.00,37.00,257.00,473.00,1065.00,626.00,753.00,,,,,,,,,,,,1,1,0,,-1024,15304,3828,-97,-178,-280
33.174,33.02,2.13,4.21,-1.87,5.07,4.56,5.55,-4.46,3.61,-1.30,505.00,1033.00,98.00,171.00,554.00,1097.00,643.00,790.00,,,,,,,,,,,,1,1,0,,-1084,15512,4004,99,-114,-220
33.234,33.07,1.96,1.03,-0.05,17.27,-13.44,-1.13,1.47,-0.10,0.92,485.00,1116.00,208.00,171.00,454.00,1219.00,610.00,862.00,,,,,,,,,,,,1,1,0,,-1024,15536,3956,54,66,-67
33.276,33.13,1.88,0.09,1.72,-12.96,9.71,0.40,2.70,2.48,0.61,448.00,1104.00,103.00,304.00,413.00,1110.00,592.00,785.00,,,,,,,,,,,,1,1,0,,-872,15496,3960,28,210,83
33.337,33.18,2.13,1.23,0.18,-12.60,23.69,6.73,-4.21,5.27,-2.64,477.00,1100.00,48.00,206.00,535.00,1040.00,671.00,767.00,,,,,,,,,,,,1,1,0,,-948,15460,3680,-153,129,-85
33.398,33.24,2.11,1.27,0.60,28.92,-14.17,1.73,-0.68,0.31,2.37,466.00,1086.00,175.00,110.00,484.00,1153.00,560.00,816.00,,,,,,,,,,,,1,1,0,,-900,15392,3904,22,97,-56
33.481,33.29,1.91,2.26,-0.92,2.64,-1.07,-1.91,4.82,1.84,1.46,497.00,1088.00,139.00,219.00,384.00,1149.00,572.00,787.00,,,,,,,,,,,,1,1,0,,-808,15312,3864,-178,40,-13
33.501,33.35,2.13,-1.94,4.09,-43.49,64.99,6.43,-2.75,6.39,-1.94,409.00,1123.00,9.00,231.00,497.00,1012.00,633.00,720.00,,,,,,,,,,,,1,1,0,,-952,15404,3844,-229,145,-35
33.561,33.40,2.21,3.00,-0.29,25.14,-5.77,3.63,-2.89,1.86,-0.33,474.00,1039.00,119.00,102.00,527.00,1135.00,630.00,825.00,,,,,,,,,,,,1,1,0,,-968,15296,3956,-467,160,133
33.624,33.46,2.03,0.81,-0.43,9.00,-7.25,-1.25,2.17,-0.10,2.01,497.00,1137.00,173.00,201.00,438.00,1202.00,575.00,837.00,,,,,,,,,,,,1,1,0,,-712,15828,4184,24,290,137
33.685,33.51,2.00,-0.79,2.69,-13.30,11.71,1.35,1.34,2.81,-0.12,432.00,1114.00,93.00,292.00,437.00,1109.00,612.00,790.00,,,,,,,,,,,,1,1,0,,-692,15492,3908,-68,320,104
33.727,33.57,2.25,2.90,-1.28,4.05,6.07,7.02,-6.18,4.72,-2.65,501.00,1071.00,92.00,171.00,592.00,1084.00,678.00,784.00,,,,,,,,,,,,1,1,0,,-604,15440,3724,-65,44,32
33.769,33.62,2.11,1.58,-0.47,22.98,-15.45,-0.54,0.79,0.30,0.94,491.00,1104.00,209.00,144.00,466.00,1213.00,605.00,848.00,,,,,,,,,,,,1,1,0,,-700,15792,4116,74,133,-174
33.831,33.67,1.95,1.37,0.21,-9.15,8.79,-1.17,4.53,2.12,0.86,475.00,1093.00,101.00,268.00,385.00,1125.00,588.00,791.00,,,,,,,,,,,,1,1,0,,-812,15392,3800,177,274,-160
33.893,33.73,2.16,0.53,1.05,-28.13,48.08,6.20,-2.60,5.00,-1.85,461.00,1105.00,17.00,198.00,495.00,1017.00,646.00,759.00,,,,,,,,,,,,1,1,0,,-760,15456,3756,95,15,-225
33.954,33.78,2.19,1.92,0.91,24.52,-7.34,2.76,-1.48,2.79,-0.47,453.00,1050.00,131.00,109.00,496.00,1131.00,624.00,798.00,,,,,,,,,,,,1,1,0,,-824,15496,3836,-46,77,-197
34.016,33.84,1.93,2.40,-1.30,5.57,-3.83,-3.08,5.45,0.39,2.24,506.00,1093.00,153.00,210.00,379.00,1183.00,563.00,816.00,,,,,,,,,,,,1,1,0,,-772,15612,3716,-247,89,-137
34.077,33.90,2.03,-2.67,4.84,-26.80,36.54,4.06,-1.19,5.10,-1.71,398.00,1133.00,31.00,256.00,477.00,1066.00,640.00,753.00,,,,,,,,,,,,1,1,0,,-712,15512,3860,-121,125,-96
34.119,33.95,2.17,3.86,-1.53,6.15,1.90,4.81,-4.31,2.87,-1.42,499.00,1038.00,111.00,176.00,557.00,1125.00,656.00,816.00,,,,,,,,,,,,1,1,0,,-796,15496,3956,-306,97,-91
34.242,34.01,2.00,0.51,0.04,16.71,-13.25,-1.26,1.11,0.15,0.42,487.00,1136.00,208.00,174.00,464.00,1237.00,624.00,865.00,,,,,,,,,,,,1,1,0,,-608,15804,3908,95,213,-62
34.263,34.06,1.94,0.01,1.75,-13.06,8.53,0.87,2.01,2.73,0.18,448.00,1107.00,110.00,315.00,425.00,1110.00,603.00,786.00,,,,,,,,,,,,1,1,0,,-704,15548,3752,-97,178,-121
34.284,34.12,2.18,1.68,-0.27,-5.20,16.17,6.70,-4.27,5.38,-2.57,485.00,1094.00,63.00,188.00,537.00,1043.00,667.00,762.00,,,,,,,,,,,,1,1,0,,-740,15472,3832,-124,70,-123
34.326,34.17,2.17,1.45,0.26,26.43,-13.44,1.86,-0.84,1.92,0.03,473.00,1088.00,176.00,119.00,487.00,1152.00,617.00,815.00,,,,,,,,,,,,1,1,0,,-632,15648,3908,-218,193,-185
34.388,34.23,1.98,2.62,-0.63,1.20,1.22,-1.54,4.69,2.09,1.28,486.00,1064.00,126.00,218.00,384.00,1136.00,575.00,783.00,,,,,,,,,,,,1,1,0,,-648,15644,3764,-5,243,-159
34.45,34.28,2.19,0.09,1.00,-42.35,62.66,6.20,-2.52,6.75,-2.27,466.00,1126.00,10.00,235.00,493.00,1015.00,640.00,716.00,,,,,,,,,,,,1,1,0,,-612,15680,3648,-44,339,-488
34.513,34.34,2.27,3.83,-0.61,23.12,-8.23,3.70,-2.74,2.91,-0.60,475.00,1014.00,141.00,118.00,522.00,1127.00,627.00,797.00,,,,,,,,,,,,1,1,0,,-696,15556,3604,-254,116,-686
34.575,34.39,2.08,1.27,-0.51,8.85,-6.11,-1.40,2.52,0.07,2.22,495.00,1119.00,163.00,196.00,431.00,1198.00,567.00,827.00,,,,,,,,,,,,1,1,0,,-788,15672,3892,-285,217,-728
34.595,34.45,2.08,-1.10,3.19,-11.57,11.13,1.94,0.03,3.14,-0.94,423.00,1113.00,93.00,277.00,464.00,1122.00,636.00,797.00,,,,,,,,,,,,1,1,0,,-704,15760,4092,-301,360,-794
34.657,34.50,2.28,2.91,-1.51,1.65,7.49,6.20,-5.65,4.21,-2.88,507.00,1077.00,89.00,181.00,584.00,1104.00,693.00,805.00,,,,,,,,,,,,1,1,0,,-592,16024,3908,-76,498,-1186
34.698,34.56,2.10,0.68,-0.20,24.01,-17.48,-1.32,0.93,-0.71,0.80,492.00,1136.00,229.00,146.00,469.00,1246.00,621.00,886.00,,,,,,,,,,,,1,1,0,,-596,15836,4196,223,1422,-1611
34.759,34.61,1.95,1.06,-0.14,-8.69,5.30,-0.86,3.53,2.61,0.13,487.00,1117.00,121.00,289.00,404.00,1141.00,606.00,791.00,,,,,,,,,,,,1,1,0,,-952,15880,3556,280,2116,-2573
34.841,34.67,2.13,0.61,0.39,inf,inf,5.36,-2.65,4.66,-1.65,477.00,1121.00,0.00,204.00,504.00,1053.00,643.00,765.00,,,,,,,,,,,,1,1,0,,-1896,15552,2740,237,1229,-3006
34.88,34.72,2.16,1.63,0.56,23.34,-6.94,2.87,-1.77,2.00,-0.08,464.00,1072.00,131.00,113.00,503.00,1135.00,620.00,815.00,,,,,,,,,,,,1,1,0,,-2884,15104,3160,624,332,-2363
34.942,34.78,1.88,2.71,-1.58,4.72,-4.14,-3.44,5.87,0.05,2.75,511.00,1088.00,158.00,219.00,373.00,1187.00,551.00,816.00,,,,,,,,,,,,1,1,0,,-3384,14768,3508,152,175,-1598
35.024,34.83,1.97,-2.28,3.94,-27.88,38.13,3.74,-0.89,5.14,-1.67,415.00,1143.00,29.00,256.00,472.00,1071.00,638.00,751.00,,,,,,,,,,,,1,1,0,,-3104,14748,3804,-620,712,-883
35.044,34.89,2.09,4.28,-2.11,10.18,0.21,4.36,-3.38,2.80,-0.85,511.00,1037.00,113.00,157.00,534.00,1117.00,637.00,806.00,,,,,,,,,,,,1,1,0,,-3292,15352,3452,-540,1121,-572
35.086,34.94,1.91,0.78,-0.94,15.60,-12.88,-1.63,1.71,-0.15,1.21,511.00,1154.00,208.00,180.00,452.00,1235.00,601.00,857.00,,,,,,,,,,,,1,1,0,,-3504,14468,3560,-1062,1015,23
35.147,35.00,1.85,-0.03,1.08,-12.12,8.72,0.76,1.24,2.04,-0.19,465.00,1129.00,107.00,302.00,444.00,1138.00,623.00,816.00,,,,,,,,,,,,1,1,0,,-4188,13680,5764,257,3098,2005
35.209,35.05,2.13,2.40,-1.34,-9.41,18.80,7.44,-5.36,4.59,-3.12,507.00,1094.00,59.00,207.00,562.00,1043.00,697.00,798.00,,,,,,,,,,,,1,1,0,,-3984,14372,7004,34,9129,5640
35.292,35.10,2.09,1.01,-0.46,23.82,-15.10,1.27,1.45,-0.38,0.78,496.00,1129.00,202.00,138.00,435.00,1109.00,618.00,875.00,,,,,,,,,,,,1,1,0,,-2092,14732,4460,-431,14201,8232
35.313,35.16,1.97,1.86,-2.62,-0.58,0.41,-0.31,7.31,1.77,1.22,549.00,1157.00,136.00,239.00,326.00,1009.00,580.00,794.00,,,,,,,,,,,,1,1,0,,-444,14672,3612,1380,16260,9200
35.377,35.22,2.33,-3.40,1.51,-35.32,54.08,9.17,0.02,6.08,-1.42,483.00,1275.00,14.00,224.00,407.00,843.00,619.00,719.00,,,,,,,,,,,,1,1,0,,996,16124,3228,2399,14233,7565
35.437,35.27,2.51,0.85,-2.28,28.26,-7.73,5.92,0.06,2.80,-0.29,549.00,1193.00,125.00,95.00,431.00,958.00,618.00,794.00,,,,,,,,,,,,1,1,0,,1272,17408,1996,2445,11320,5543
35.497,35.33,2.33,-1.08,-3.43,6.70,-6.37,-0.95,7.81,0.11,2.80,605.00,1328.00,172.00,215.00,321.00,1021.00,549.00,813.00,,,,,,,,,,,,1,1,0,,912,16144,1912,1638,9394,5090
35.538,35.38,2.41,-4.43,1.37,-15.33,15.88,3.86,3.37,3.38,-0.34,496.00,1333.00,77.00,283.00,374.00,951.00,613.00,777.00,,,,,,,,,,,,1,1,0,,1112,16424,-1220,-654,5601,3349
35.626,35.44,2.72,1.08,-5.71,0.89,4.52,8.68,-3.47,3.96,-2.15,658.00,1296.00,106.00,202.00,496.00,944.00,669.00,797.00,,,,,,,,,,,,1,1,0,,1208,16788,452,1656,1875,2628
35.668,35.49,2.58,-2.28,-4.24,18.10,-16.36,-0.15,4.32,-0.60,0.97,646.00,1423.00,240.00,179.00,382.00,1086.00,614.00,878.00,,,,,,,,,,,,1,1,0,,1028,16040,1328,2371,633,2085
35.689,35.55,2.51,-1.09,-3.99,-14.93,8.34,1.18,6.08,1.45,0.95,624.00,1349.00,115.00,341.00,339.00,983.00,592.00,810.00,,,,,,,,,,,,1,1,0,,1348,16072,1024,2169,-39,1792
35.75,35.60,2.81,-2.68,-4.02,-12.94,18.49,8.55,-1.95,4.66,-2.46,643.00,1437.00,64.00,240.00,458.00,911.00,672.00,782.00,,,,,,,,,,,,1,1,0,,2396,17096,-116,1440,1033,799
35.812,35.66,2.85,-2.39,-2.52,16.23,-8.47,3.65,0.95,1.74,-0.78,590.00,1365.00,162.00,156.00,428.00,1023.00,647.00,839.00,,,,,,,,,,,,1,1,0,,2016,15888,1496,516,1494,-275
35.855,35.71,2.57,-0.14,-6.65,-0.57,-1.28,-2.73,9.11,-0.07,1.97,708.00,1395.00,149.00,250.00,309.00,1058.00,576.00,837.00,,,,,,,,,,,,1,1,0,,1608,16600,-156,-856,1374,-1728
35.916,35.77,2.78,-5.85,-0.13,-25.01,27.86,6.77,-0.06,4.36,-1.55,552.00,1468.00,48.00,301.00,427.00,929.00,643.00,772.00,,,,,,,,,,,,1,1,0,,820,16160,268,-602,-38,-2114
35.978,35.82,2.94,2.09,-6.32,10.74,-4.45,5.93,-1.86,2.36,-1.39,668.00,1266.00,144.00,174.00,478.00,1008.00,661.00,832.00,,,,,,,,,,,,1,1,0,,444,15896,60,-1513,-2057,-2201
36.039,35.88,2.76,-2.45,-4.00,6.08,-9.41,-0.79,3.83,0.67,0.39,640.00,1424.00,205.00,239.00,397.00,1129.00,619.00,848.00,,,,,,,,,,,,1,1,0,,1120,16920,-2656,-2802,-6795,-3389
36.123,35.93,2.69,-3.11,-1.35,-17.15,8.76,1.52,1.79,2.79,-0.88,561.00,1361.00,117.00,368.00,425.00,1088.00,638.00,807.00,,,,,,,,,,,,1,1,0,,1120,16400,-744,-3232,-14088,-4227
36.142,35.99,2.90,1.32,-4.78,-3.59,5.18,6.81,-6.01,3.46,-2.87,623.00,1252.00,111.00,237.00,589.00,1088.00,702.00,829.00,,,,,,,,,,,,1,1,0,,1124,15660,1532,-2552,-18013,-4139
36.184,36.04,2.70,-0.86,-0.95,15.80,-15.59,-1.01,0.75,-1.22,0.56,527.00,1232.00,240.00,192.00,471.00,1237.00,635.00,910.00,,,,,,,,,,,,1,1,0,,576,16204,3892,-2081,-17075,-3969
36.245,36.10,2.48,1.27,-2.39,-7.19,1.20,-1.77,3.97,0.18,1.17,548.00,1177.00,147.00,304.00,401.00,1169.00,599.00,847.00,,,,,,,,,,,,1,1,0,,412,14096,4692,-2061,-14101,-3472
36.327,36.15,2.61,-1.28,0.65,-21.09,26.54,5.02,-2.49,3.95,-1.75,487.00,1200.00,48.00,267.00,503.00,1063.00,655.00,789.00,,,,,,,,,,,,1,1,0,,344,16020,4236,-1379,-8148,-2145
36.409,36.21,2.59,1.72,-0.36,23.84,-9.61,2.36,-2.50,-0.01,-0.45,487.00,1095.00,150.00,119.00,528.00,1181.00,656.00,891.00,,,,,,,,,,,,1,1,0,,260,15244,3568,-1868,-4802,-1650
36.429,36.26,2.30,0.91,-1.51,2.55,-6.32,-3.37,4.47,-1.62,1.92,526.00,1166.00,185.00,253.00,402.00,1229.00,594.00,891.00,,,,,,,,,,,,1,1,0,,284,16140,4052,-2403,-1932,-1059
36.469,36.32,2.29,-3.92,4.53,-19.44,20.39,2.17,-0.44,3.65,-2.29,414.00,1200.00,65.00,295.00,474.00,1126.00,678.00,810.00,,,,,,,,,,,,1,1,0,,368,16012,4296,-1932,687,-1496
36.533,36.37,2.45,2.02,-1.78,0.74,4.75,5.40,-4.64,2.22,-1.89,523.00,1124.00,105.00,202.00,561.00,1109.00,681.00,848.00,,,,,,,,,,,,1,1,0,,304,16220,3952,-2364,1963,-1899
36.594,36.42,2.22,-0.96,-0.13,15.30,-14.06,-2.08,1.66,-1.53,0.72,505.00,1210.00,223.00,188.00,457.00,1259.00,633.00,917.00,,,,,,,,,,,,1,1,0,,-284,15436,3624,-1535,1530,-2089
36.636,36.48,2.11,-0.84,0.65,-16.39,11.59,0.11,2.27,1.31,-0.15,483.00,1179.00,99.00,331.00,425.00,1136.00,630.00,839.00,,,,,,,,,,,,1,1,0,,-800,15184,3916,-1534,353,-1152
36.719,36.53,2.32,-0.41,-0.21,-10.96,19.32,6.24,-4.79,4.58,-3.71,502.00,1186.00,59.00,217.00,557.00,1077.00,720.00,811.00,,,,,,,,,,,,1,1,0,,-868,15628,4028,-787,-565,-544
36.823,36.59,2.23,-1.79,2.40,24.32,-13.04,0.60,-0.03,0.44,-0.17,447.00,1168.00,179.00,128.00,477.00,1185.00,641.00,869.00,,,,,,,,,,,,1,1,0,,-988,15260,4204,-879,-1107,-610
36.844,36.65,1.98,0.81,-1.30,2.38,-3.00,-2.88,5.19,-0.11,1.32,521.00,1164.00,155.00,233.00,383.00,1182.00,597.00,853.00,,,,,,,,,,,,1,1,0,,-1028,15036,4548,-285,-1033,-753
36.865,36.70,2.11,-2.93,3.33,-40.07,55.68,4.64,-2.11,4.10,-1.69,434.00,1192.00,14.00,259.00,496.00,1068.00,651.00,783.00,,,,,,,,,,,,1,1,0,,-1064,15216,4524,-826,-774,-805
36.925,36.76,2.15,0.87,-0.42,15.93,-3.73,2.88,-2.91,1.02,-1.38,496.00,1134.00,126.00,139.00,535.00,1170.00,677.00,877.00,,,,,,,,,,,,1,1,0,,-1280,15156,5132,-732,-256,-486
36.987,36.81,1.90,-0.03,-1.20,8.03,-6.93,-2.89,2.97,-1.26,1.19,526.00,1200.00,173.00,207.00,432.00,1255.00,614.00,896.00,,,,,,,,,,,,1,1,0,,-1252,15044,4872,-525,368,-104
37.006,36.87,1.83,-2.37,2.47,-12.63,9.60,0.59,0.69,0.93,-0.76,450.00,1193.00,103.00,301.00,459.00,1163.00,656.00,866.00,,,,,,,,,,,,1,1,0,,-1160,15772,5032,-19,668,197
37.07,36.92,2.02,1.68,-1.84,-10.50,8.88,5.59,-5.79,2.75,-2.76,528.00,1141.00,103.00,282.00,595.00,1135.00,707.00,850.00,,,,,,,,,,,,1,1,0,,-1108,15308,4432,755,544,201
37.152,36.98,1.83,0.03,-0.54,22.67,-17.97,-1.85,1.27,-1.46,0.47,507.00,1176.00,241.00,156.00,465.00,1261.00,641.00,921.00,,,,,,,,,,,,1,1,0,,-744,15736,3908,1015,66,238
37.192,37.03,1.64,0.27,-0.21,-10.85,6.96,-1.87,4.05,0.41,0.78,496.00,1155.00,115.00,301.00,400.00,1171.00,609.00,848.00,,,,,,,,,,,,1,1,0,,-820,15448,3776,817,-285,87
37.254,37.09,1.78,-0.56,0.60,-22.14,33.81,4.38,-2.43,3.36,-2.27,482.00,1168.00,33.00,229.00,507.00,1088.00,681.00,819.00,,,,,,,,,,,,1,1,0,,-632,15740,3892,569,-321,167
37.314,37.14,1.77,0.48,1.03,21.46,-8.81,1.66,-1.66,0.12,-0.21,462.00,1108.00,150.00,128.00,511.00,1187.00,646.00,881.00,,,,,,,,,,,,1,1,0,,-648,15440,3856,-275,96,-59
37.375,37.20,1.49,1.05,-0.88,1.83,-1.71,-3.97,5.42,-1.35,1.99,507.00,1140.00,146.00,230.00,386.00,1227.00,589.00,880.00,,,,,,,,,,,,1,1,0,,-744,15336,3984,-860,267,-29
37.415,37.25,1.55,-3.17,3.92,-26.82,34.30,2.74,-1.02,3.86,-2.09,422.00,1184.00,35.00,272.00,484.00,1118.00,668.00,799.00,,,,,,,,,,,,1,1,0,,-732,15492,4464,-644,407,112
37.456,37.31,1.64,2.36,-1.25,9.20,1.90,3.33,-3.74,0.31,-0.92,505.00,1093.00,105.00,156.00,555.00,1175.00,669.00,891.00,,,,,,,,,,,,1,1,0,,-608,15428,4316,-468,329,86
37.517,37.36,1.44,-0.74,-0.10,9.29,-9.84,-2.28,0.94,-2.02,0.89,502.00,1198.00,198.00,213.00,477.00,1294.00,633.00,931.00,,,,,,,,,,,,1,1,0,,-572,15560,4132,-60,205,31
37.579,37.42,1.32,-1.50,1.97,-15.36,8.97,-0.99,1.92,0.78,-0.71,455.00,1168.00,112.00,341.00,442.00,1198.00,656.00,870.00,,,,,,,,,,,,1,1,0,,-552,15532,4100,-108,-107,-41
37.641,37.47,1.56,0.31,-0.15,-8.93,15.48,6.06,-5.51,3.50,-3.37,494.00,1151.00,70.00,222.00,581.00,1106.00,721.00,839.00,,,,,,,,,,,,1,1,0,,-484,15292,4420,-51,-200,-134
37.682,37.53,1.45,-0.08,0.39,29.18,-17.18,-0.64,-0.07,-1.85,-0.08,483.00,1152.00,205.00,118.00,489.00,1246.00,665.00,949.00,,,,,,,,,,,,1,1,0,,-632,15480,4616,6,62,-306
37.743,37.58,1.24,0.41,-0.26,-3.68,2.43,-2.63,4.35,0.27,0.86,496.00,1150.00,129.00,256.00,399.00,1197.00,608.00,851.00,,,,,,,,,,,,1,1,0,,-712,15360,4388,49,327,-144
37.805,37.64,1.40,-1.80,2.32,-31.11,46.08,4.40,-2.14,3.93,-1.92,449.00,1171.00,20.00,235.00,499.00,1079.00,661.00,793.00,,,,,,,,,,,,1,1,0,,-808,15740,4448,182,251,48
37.889,37.69,1.46,2.55,-1.42,24.89,-8.56,2.58,-2.88,0.24,-0.39,508.00,1090.00,139.00,111.00,537.00,1183.00,651.00,881.00,,,,,,,,,,,,1,1,0,,-768,15396,4096,510,313,141
37.909,37.75,1.20,0.64,-0.89,4.28,-4.34,-3.77,4.19,-1.35,1.74,511.00,1159.00,161.00,224.00,411.00,1258.00,597.00,886.00,,,,,,,,,,,,1,1,0,,-560,15560,3852,102,43,69
37.95,37.80,1.19,-2.99,3.95,-19.42,21.25,1.09,-0.16,1.37,-0.94,420.00,1175.00,62.00,288.00,476.00,1166.00,657.00,855.00,,,,,,,,,,,,1,1,0,,-488,15552,3852,98,-74,-4
38.011,37.85,1.34,1.87,-1.23,1.58,4.82,4.19,-5.07,1.20,-1.76,509.00,1114.00,103.00,195.00,587.00,1177.00,689.00,880.00,,,,,,,,,,,,1,1,0,,-516,15500,3832,-312,-41,-264
38.072,37.91,1.14,-0.47,-0.15,17.31,-14.98,-2.62,0.79,-2.76,0.87,501.00,1187.00,226.00,178.00,484.00,1317.00,642.00,959.00,,,,,,,,,,,,1,1,0,,-468,15224,4096,-374,-115,-236
38.134,37.97,1.01,-1.38,1.61,-14.68,8.74,-1.58,2.75,0.31,-0.25,463.00,1174.00,112.00,334.00,427.00,1199.00,645.00,875.00,,,,,,,,,,,,1,1,0,,-556,15700,3732,-516,-266,-124
38.195,38.02,1.25,-0.56,0.60,-14.39,20.48,5.91,-4.74,3.62,-2.97,482.00,1168.00,59.00,241.00,559.00,1090.00,704.00,826.00,,,,,,,,,,,,1,1,0,,-544,15436,4320,-393,-575,-149
38.277,38.08,1.23,0.02,1.10,18.87,-9.13,0.79,-0.78,0.13,-0.18,464.00,1126.00,160.00,143.00,495.00,1200.00,645.00,880.00,,,,,,,,,,,,1,1,0,,-500,15472,4712,17,-385,14
38.298,38.13,0.96,1.15,-0.47,-1.89,4.44,-4.17,6.32,-0.68,1.86,495.00,1123.00,112.00,226.00,369.00,1207.00,586.00,860.00,,,,,,,,,,,,1,1,0,,-472,15428,4436,-86,404,-114
38.339,38.19,1.10,-3.11,4.35,-38.70,53.94,3.80,-1.64,3.60,-1.67,412.00,1168.00,15.00,257.00,491.00,1090.00,656.00,798.00,,,,,,,,,,,,1,1,0,,-340,15688,4180,-105,570,-60
38.399,38.24,1.19,2.22,-0.87,15.15,-3.91,2.90,-3.33,0.62,-1.16,496.00,1088.00,129.00,144.00,547.00,1182.00,674.00,886.00,,,,,,,,,,,,1,1,0,,-500,15464,3968,-70,216,-108
38.459,38.30,1.01,-0.32,-0.24,9.93,-9.01,-2.47,2.04,0.24,0.04,502.00,1183.00,187.00,203.00,451.00,1266.00,636.00,871.00,,,,,,,,,,,,1,1,0,,-440,15516,4208,29,-24,-302
38.521,38.35,0.97,-2.07,2.66,-14.23,10.13,0.19,1.14,0.51,-0.63,443.00,1173.00,103.00,316.00,451.00,1167.00,656.00,877.00,,,,,,,,,,,,1,1,0,,-560,15400,3960,68,-60,-262
38.562,38.41,1.18,1.06,-0.63,-3.51,11.20,5.25,-5.64,2.86,-3.31,500.00,1132.00,80.00,201.00,594.00,1146.00,727.00,859.00,,,,,,,,,,,,1,1,0,,-476,15584,4068,-82,-17,-210
38.623,38.46,1.02,-0.66,0.32,19.28,-15.07,-2.11,1.12,-2.45,0.77,490.00,1181.00,219.00,165.00,471.00,1279.00,642.00,950.00,,,,,,,,,,,,1,1,0,,-524,15232,3936,-168,79,-155
38.684,38.52,0.86,-0.60,0.64,-8.72,4.71,-2.18,3.39,-0.71,1.01,481.00,1168.00,125.00,294.00,417.00,1207.00,614.00,881.00,,,,,,,,,,,,1,1,0,,-428,15720,4140,-80,211,-219
38.724,38.57,1.02,-1.21,1.52,-19.28,32.30,4.15,-1.91,3.14,-2.09,464.00,1169.00,34.00,213.00,495.00,1083.00,677.00,822.00,,,,,,,,,,,,1,1,0,,-528,15404,4312,-270,184,-221
38.786,38.63,1.03,0.52,0.89,24.22,-7.24,1.23,-1.15,-0.30,-0.10,465.00,1110.00,131.00,110.00,501.00,1191.00,647.00,893.00,,,,,,,,,,,,1,1,0,,-504,15424,4208,-164,6,-254
38.827,38.68,0.76,0.30,-0.48,2.18,-1.57,-4.32,5.78,-1.33,2.40,503.00,1162.00,144.00,226.00,381.00,1232.00,576.00,870.00,,,,,,,,,,,,1,1,0,,-404,15480,4360,-144,122,-245
38.889,38.74,0.84,-3.88,4.61,-30.03,41.60,2.31,-0.21,2.93,-1.63,412.00,1196.00,25.00,254.00,467.00,1113.00,663.00,819.00,,,,,,,,,,,,1,1,0,,-492,15604,4344,27,255,-223
38.994,38.79,1.00,2.47,-1.50,8.22,1.71,4.04,-4.15,1.03,-1.60,511.00,1096.00,108.00,163.00,560.00,1155.00,685.00,882.00,,,,,,,,,,,,1,1,0,,-616,15460,4008,-95,17,-229
39.014,38.85,0.83,-0.85,0.35,14.15,-12.57,-2.46,1.55,-1.84,0.53,491.00,1189.00,210.00,189.00,463.00,1282.00,643.00,933.00,,,,,,,,,,,,1,1,0,,-512,15464,4140,-61,-68,-243
39.055,38.90,0.75,-1.62,2.06,-14.93,10.02,-0.77,2.18,0.61,-0.35,454.00,1171.00,105.00,326.00,434.00,1179.00,645.00,867.00,,,,,,,,,,,,1,1,0,,-524,15572,4112,-198,-68,-206
39.118,38.96,0.99,-0.10,0.32,-5.89,15.83,5.65,-5.15,2.37,-2.89,485.00,1155.00,65.00,195.00,574.00,1113.00,717.00,866.00,,,,,,,,,,,,1,1,0,,-684,15376,4248,-103,41,-254
39.159,39.01,0.90,0.64,-0.67,22.31,-13.94,-0.85,0.11,-1.46,-0.02,505.00,1152.00,195.00,142.00,486.00,1250.00,658.00,933.00,,,,,,,,,,,,1,1,0,,-488,15284,4188,-275,55,-172
39.221,39.07,0.71,0.73,-0.74,-2.88,3.65,-2.99,4.34,-0.55,0.77,506.00,1150.00,119.00,240.00,402.00,1215.00,620.00,881.00,,,,,,,,,,,,1,1,0,,-472,15700,4244,-57,217,-331
39.283,39.12,0.87,-2.78,3.32,-34.43,50.20,3.92,-1.60,3.65,-1.88,433.00,1185.00,17.00,240.00,489.00,1084.00,663.00,801.00,,,,,,,,,,,,1,1,0,,-480,15336,4204,-152,55,-320
39.385,39.17,0.95,1.63,-0.11,25.31,-7.47,2.61,-2.62,0.23,-0.50,481.00,1091.00,130.00,106.00,529.00,1173.00,655.00,884.00,,,,,,,,,,,,1,1,0,,-564,15404,4184,36,-29,-362
39.405,39.23,0.72,0.44,-0.78,7.40,-6.18,-3.65,4.51,-2.09,1.96,510.00,1165.00,168.00,208.00,403.00,1241.00,598.00,907.00,,,,,,,,,,,,1,1,0,,-472,15388,4064,-34,9,-341
39.445,39.28,0.73,-3.02,4.18,-11.56,11.53,0.81,0.77,1.02,-0.60,415.00,1169.00,91.00,274.00,455.00,1150.00,649.00,859.00,,,,,,,,,,,,1,1,0,,-532,15692,4108,-5,119,-295
39.487,39.34,0.92,1.50,-1.18,-1.02,6.61,4.61,-4.96,-3.31,-0.72,511.00,1129.00,98.00,206.00,579.00,1154.00,707.00,1023.00,,,,,,,,,,,,1,1,0,,-544,15404,4036,-177,35,-165
39.55,39.40,0.75,-0.26,-0.29,17.94,-15.28,-2.55,1.42,-2.55,1.04,503.00,1182.00,227.00,175.00,467.00,1291.00,634.00,947.00,,,,,,,,,,,,1,1,0,,-568,15396,4112,-108,78,-259
39.611,39.45,0.61,-0.84,1.00,-14.17,9.59,-2.04,3.84,-0.41,0.61,474.00,1168.00,106.00,320.00,406.00,1186.00,624.00,880.00,,,,,,,,,,,,1,1,0,,-544,15532,4128,-174,74,-139
39.652,39.51,0.81,-0.80,0.95,inf,inf,4.60,-3.67,2.40,-2.46,475.00,1168.00,0.00,217.00,540.00,1115.00,700.00,855.00,,,,,,,,,,,,1,1,0,,-616,15380,4228,-59,122,-129
39.712,39.56,0.79,-0.06,0.85,20.87,-8.24,0.40,-0.76,-0.86,-0.13,471.00,1137.00,147.00,129.00,498.00,1218.00,655.00,914.00,,,,,,,,,,,,1,1,0,,-696,15328,4156,-149,140,-38
39.773,39.62,0.53,1.46,-1.87,0.10,-0.75,-4.37,5.79,-1.18,1.20,531.00,1152.00,143.00,240.00,381.00,1234.00,613.00,893.00,,,,,,,,,,,,1,1,0,,-488,15768,4228,-230,319,-133
39.835,39.67,0.69,-3.63,4.30,-37.40,52.31,3.61,-1.42,2.51,-1.30,417.00,1194.00,16.00,255.00,487.00,1092.00,656.00,825.00,,,,,,,,,,,,1,1,0,,-580,15348,4032,-239,197,-110
39.875,39.73,0.81,2.21,-0.68,15.65,-1.95,3.20,-3.37,0.82,-1.12,491.00,1083.00,115.00,134.00,545.00,1169.00,670.00,878.00,,,,,,,,,,,,1,1,0,,-628,15244,4200,-125,-75,-97
39.977,39.78,0.66,-0.10,-0.09,8.36,-8.48,-2.13,1.44,-1.52,1.16,496.00,1168.00,187.00,213.00,463.00,1269.00,618.00,906.00,,,,,,,,,,,,1,1,0,,-620,15292,4144,-126,152,-133
39.997,39.84,0.63,-1.86,2.51,-13.94,11.53,-0.08,1.32,0.73,-0.64,445.00,1168.00,95.00,301.00,449.00,1174.00,654.00,870.00,,,,,,,,,,,,1,1,0,,-528,15652,4044,26,216,-119
40.08,39.89,0.86,1.17,-0.92,-5.10,11.73,5.32,-5.51,2.63,-3.24,507.00,1136.00,80.00,211.00,589.00,1139.00,727.00,865.00,,,,,,,,,,,,1,1,0,,-516,15504,3992,-190,160,-51
