Time_Host,Time_Arduino,easingdata,CH1_Oxy,CH1_Deoxy,CH2_Oxy,CH2_Deoxy,CH3_Oxy,CH3_Deoxy,CH4_Oxy,CH4_Deoxy,CH1_PD730,CH1_PD850,CH2_PD730,CH2_PD850,CH3_PD730,CH3_PD850,CH4_PD730,CH4_PD850,Answers,airplane_playstate,trail_times,frameRate,Airplane X,Airplane Y,Correct,Wrong,Slow,AnswerRate,CorrectRate,VFTstates,VFTchoose,VFTCount,Culfstates,ax,ay,az,gx,gy,gz
1.314,0.04,0.00,0.00,0.00,0.00,0.00,0.00,0.00,0.00,0.00,1152.00,1898.00,389.00,599.00,1259.00,1777.00,981.00,1525.00,,,,,,,,,,,,0,0,0,,-1464,14996,4448,-235,0,74
1.335,0.10,0.00,0.00,0.00,0.00,0.00,0.00,0.00,0.00,0.00,1157.00,1918.00,495.00,576.00,1187.00,1902.00,974.00,1680.00,,,,,,,,,,,,0,0,0,,-1188,15488,4980,168,-1146,-445
1.355,0.15,0.00,0.00,0.00,0.00,0.00,0.00,0.00,0.00,0.00,1105.00,1924.00,423.00,694.00,1153.00,1838.00,992.00,1625.00,,,,,,,,,,,,0,0,0,,-1572,14988,4864,290,-246,-543
1.375,0.21,0.00,0.00,0.00,0.00,0.00,0.00,0.00,0.00,0.00,1127.00,1914.00,373.00,623.00,1269.00,1782.00,1081.00,1621.00,,,,,,,,,,,,0,0,0,,-1264,14696,4624,528,661,102
1.395,0.26,0.00,0.00,0.00,0.00,0.00,0.00,0.00,0.00,0.00,1146.00,1915.00,469.00,560.00,1213.00,1854.00,981.00,1597.00,,,,,,,,,,,,0,0,0,,-1300,15224,4100,-163,459,40
1.416,0.32,0.00,0.00,0.00,0.00,0.00,0.00,0.00,0.00,0.00,1157.00,1925.00,431.00,619.00,1111.00,1844.00,923.00,1584.00,,,,,,,,,,,,0,0,0,,-1428,15252,5208,406,342,465
1.436,1.07,0.00,0.00,0.00,0.00,0.00,0.00,0.00,0.00,0.00,1171.00,1886.00,444.00,620.00,1136.00,1811.00,906.00,1510.00,,,,,,,,,,,,0,0,0,,-2176,14840,4228,-576,2564,-240
1.456,1.12,0.00,0.00,0.00,0.00,0.00,0.00,0.00,0.00,0.00,1104.00,1959.00,355.00,638.00,1183.00,1712.00,943.00,1377.00,,,,,,,,,,,,0,0,0,,-2056,15252,3628,13,2429,162
1.476,1.18,0.00,0.00,0.00,0.00,0.00,0.00,0.00,0.00,0.00,1152.00,1856.00,409.00,522.00,1221.00,1790.00,927.00,1447.00,,,,,,,,,,,,0,0,0,,-2204,14724,3396,-1163,1363,-245
1.537,1.23,0.00,0.00,0.00,0.00,0.00,0.00,0.00,0.00,0.00,1201.00,1959.00,464.00,603.00,1126.00,1815.00,867.00,1456.00,,,,,,,,,,,,0,0,0,,-2400,15348,3780,-1696,574,-750
1.598,1.29,0.08,-1.95,1.63,-5.11,5.53,1.62,-0.27,1.74,-0.07,1088.00,1980.00,346.00,639.00,1168.00,1712.00,931.00,1442.00,,,,,,,,,,,,0,0,0,,-3204,14328,4792,-1740,832,-40
1.64,1.34,0.20,1.57,-1.41,1.51,1.28,2.50,-1.65,0.06,-1.15,1203.00,1869.00,386.00,551.00,1239.00,1716.00,1018.00,1587.00,,,,,,,,,,,,0,0,0,,-2332,14480,5132,-1496,-280,-75
1.701,1.40,0.13,-0.15,-0.23,5.87,-4.33,-1.30,0.72,-1.41,-0.24,1165.00,1939.00,483.00,539.00,1168.00,1872.00,995.00,1641.00,,,,,,,,,,,,0,0,0,,-2348,14696,5020,-307,13,1354
1.761,1.45,0.14,-0.44,0.12,-5.58,3.57,0.45,0.37,1.23,-0.48,1149.00,1943.00,388.00,686.00,1153.00,1763.00,961.00,1488.00,,,,,,,,,,,,0,0,0,,-1876,15024,4396,-772,-58,1065
1.823,1.51,0.27,-0.04,-0.33,-2.38,2.92,2.63,-1.81,2.77,-1.99,1169.00,1936.00,379.00,615.00,1247.00,1715.00,1014.00,1458.00,,,,,,,,,,,,0,0,0,,-1712,15312,4388,-1163,-1444,-646
1.886,1.56,0.26,-0.06,-0.31,4.26,-3.05,0.09,-0.25,-0.58,0.50,1168.00,1936.00,464.00,555.00,1200.00,1818.00,942.00,1557.00,,,,,,,,,,,,0,0,0,,-2380,14516,5344,-1061,-1410,-345
1.927,1.62,0.21,0.05,-0.74,-2.41,0.91,-0.74,1.19,-1.31,1.06,1193.00,1950.00,423.00,650.00,1127.00,1808.00,926.00,1579.00,,,,,,,,,,,,0,0,0,,-2264,15020,5052,-191,-1840,-214
1.988,1.67,0.30,-1.21,0.95,-4.12,4.00,2.07,-0.99,1.71,-1.06,1114.00,1959.00,369.00,640.00,1205.00,1715.00,983.00,1483.00,,,,,,,,,,,,0,0,0,,-1656,14556,4864,415,-2011,1103
2.05,1.73,0.34,1.12,-0.37,4.20,-1.10,1.03,-0.66,1.89,-0.72,1147.00,1851.00,418.00,528.00,1206.00,1771.00,962.00,1459.00,,,,,,,,,,,,0,0,0,,-1224,15364,4988,-61,-1962,580
2.111,1.78,0.27,0.45,-1.06,1.36,-1.05,-1.06,1.69,-0.00,1.92,1205.00,1936.00,439.00,590.00,1103.00,1806.00,863.00,1465.00,,,,,,,,,,,,0,0,0,,-1348,14920,5424,-1890,-2103,-1285
2.195,1.84,0.35,-1.82,1.86,-5.19,5.18,1.96,-0.12,2.57,0.04,1072.00,1958.00,353.00,647.00,1152.00,1683.00,912.00,1392.00,,,,,,,,,,,,0,0,0,,-1872,14316,6164,-938,-908,-1151
2.218,1.89,0.46,1.38,-1.14,0.44,1.40,2.53,-1.15,2.17,-0.78,1190.00,1870.00,391.00,573.00,1205.00,1691.00,960.00,1445.00,,,,,,,,,,,,0,0,0,,-2448,14404,7056,756,246,-114
2.259,1.95,0.41,0.05,-0.21,3.60,-3.45,-0.62,0.55,0.12,0.22,1159.00,1922.00,480.00,576.00,1164.00,1830.00,944.00,1526.00,,,,,,,,,,,,0,0,0,,-1716,14404,5520,1522,-308,81
2.302,2.00,0.40,-0.41,0.30,-4.46,1.82,0.34,0.45,0.76,0.34,1137.00,1931.00,418.00,688.00,1150.00,1767.00,927.00,1483.00,,,,,,,,,,,,0,0,0,,-1604,14684,5216,1835,-294,449
2.405,2.06,0.53,0.50,-0.61,-2.02,3.00,2.96,-2.04,3.00,-1.46,1175.00,1909.00,375.00,605.00,1255.00,1703.00,981.00,1424.00,,,,,,,,,,,,0,0,0,,-1236,15224,4436,1024,125,324
2.425,2.11,0.51,-0.16,-0.10,5.58,-3.77,0.11,-0.15,0.51,0.59,1157.00,1933.00,471.00,537.00,1193.00,1812.00,919.00,1488.00,,,,,,,,,,,,0,0,0,,-1364,15088,4624,-729,-208,-899
2.467,2.17,0.47,0.33,-0.69,-1.33,0.72,-0.25,1.42,1.14,1.11,1184.00,1926.00,419.00,626.00,1103.00,1762.00,883.00,1431.00,,,,,,,,,,,,0,0,0,,-1832,14564,5008,-832,-348,-847
2.569,2.22,0.58,-1.23,0.68,-4.13,5.14,2.63,-0.62,2.68,-0.18,1131.00,1975.00,347.00,621.00,1169.00,1661.00,921.00,1394.00,,,,,,,,,,,,0,0,0,,-1892,14552,5508,-39,-483,-542
2.59,2.28,0.61,1.17,-0.21,5.59,-1.57,1.25,-0.64,1.34,-0.09,1136.00,1839.00,418.00,506.00,1200.00,1755.00,939.00,1466.00,,,,,,,,,,,,0,0,0,,-1948,14956,5592,873,-659,-14
2.633,2.33,0.54,0.86,-0.64,1.44,-1.86,-0.92,1.71,0.65,1.22,1169.00,1883.00,458.00,601.00,1099.00,1795.00,886.00,1455.00,,,,,,,,,,,,0,0,0,,-1732,14320,5208,1896,-423,496
2.715,2.39,0.61,-1.21,1.97,-4.52,4.19,1.90,-0.56,3.66,-0.11,1054.00,1906.00,368.00,647.00,1181.00,1707.00,901.00,1338.00,,,,,,,,,,,,0,0,0,,-1180,14844,4504,837,-813,586
2.736,2.44,0.68,1.48,-0.54,1.31,-0.08,2.16,-1.19,3.44,-0.36,1150.00,1833.00,417.00,576.00,1216.00,1718.00,917.00,1359.00,,,,,,,,,,,,0,0,0,,-852,15484,4572,-8,-741,133
2.799,2.50,0.63,-0.23,0.21,4.20,-3.69,-0.40,0.69,1.06,1.43,1139.00,1922.00,481.00,566.00,1151.00,1808.00,869.00,1423.00,,,,,,,,,,,,0,0,0,,-1016,15152,4756,-479,-734,-384
2.861,2.55,0.63,-0.63,0.70,-4.72,2.04,0.70,0.62,2.29,0.52,1117.00,1927.00,415.00,691.00,1132.00,1734.00,893.00,1389.00,,,,,,,,,,,,0,0,0,,-1560,14912,4972,-269,-367,-687
2.923,2.61,0.75,0.94,-0.54,-2.05,3.11,3.01,-1.75,3.70,-1.64,1161.00,1872.00,373.00,604.00,1234.00,1686.00,978.00,1392.00,,,,,,,,,,,,0,0,0,,-1824,14680,5452,154,-307,-466
2.965,2.66,0.72,0.77,-0.30,5.05,-4.54,0.14,-0.17,0.76,1.20,1150.00,1873.00,496.00,560.00,1194.00,1811.00,885.00,1449.00,,,,,,,,,,,,0,0,0,,-1360,14796,4896,916,-353,35
3.026,2.72,0.68,0.97,-0.44,-2.96,0.70,-0.14,1.07,2.07,1.01,1154.00,1865.00,432.00,668.00,1122.00,1771.00,873.00,1383.00,,,,,,,,,,,,0,0,0,,-1060,15172,4580,375,-164,169
3.088,2.77,0.76,-0.67,0.93,-3.88,4.53,2.33,-0.69,3.97,-0.40,1104.00,1918.00,357.00,625.00,1180.00,1684.00,910.00,1332.00,,,,,,,,,,,,0,0,0,,-968,15456,4432,-187,-303,-994
3.15,2.83,0.76,0.71,0.11,4.06,-1.66,0.82,-0.45,2.02,0.36,1126.00,1857.00,432.00,539.00,1197.00,1776.00,905.00,1410.00,,,,,,,,,,,,0,0,0,,-1452,14776,4500,-334,-563,-881
3.191,2.88,0.68,0.21,-0.31,0.79,-2.23,-0.99,1.47,0.64,2.42,1162.00,1915.00,473.00,623.00,1115.00,1812.00,830.00,1409.00,,,,,,,,,,,,0,0,0,,-1964,14780,5244,-260,-66,-348
3.295,2.94,0.72,-1.39,1.79,-5.76,5.12,1.61,-0.59,3.13,-0.17,1068.00,1929.00,358.00,663.00,1189.00,1728.00,913.00,1369.00,,,,,,,,,,,,0,0,0,,-1540,14940,4980,678,-287,2
3.315,2.99,0.76,1.63,-0.85,1.21,-0.57,1.47,-1.50,2.72,-0.59,1166.00,1837.00,429.00,586.00,1252.00,1780.00,941.00,1407.00,,,,,,,,,,,,0,0,0,,-888,15396,4068,710,-706,109
3.357,3.05,0.70,0.31,-0.18,2.48,-3.46,-0.35,0.18,1.69,0.72,1152.00,1901.00,490.00,602.00,1182.00,1829.00,893.00,1415.00,,,,,,,,,,,,0,0,0,,-1036,15348,4540,-120,-743,-62
3.419,3.10,0.74,-0.64,0.91,-5.11,2.39,1.32,-0.66,2.82,0.18,1105.00,1917.00,410.00,695.00,1200.00,1751.00,901.00,1373.00,,,,,,,,,,,,0,0,0,,-1380,15008,4688,-386,-616,-997
3.459,3.16,0.85,1.00,-0.40,-1.23,2.59,2.97,-1.84,3.68,-1.09,1151.00,1861.00,378.00,593.00,1241.00,1693.00,950.00,1373.00,,,,,,,,,,,,0,0,0,,-1524,15036,4416,61,-379,-718
3.522,3.21,0.81,0.45,-0.43,4.89,-4.38,0.10,0.01,1.07,0.74,1165.00,1904.00,493.00,561.00,1183.00,1805.00,902.00,1449.00,,,,,,,,,,,,0,0,0,,-1780,15176,4744,922,-417,-148
3.585,3.27,0.76,0.24,0.15,-3.90,0.55,-0.27,1.16,2.02,0.92,1133.00,1890.00,443.00,696.00,1119.00,1776.00,878.00,1389.00,,,,,,,,,,,,0,0,0,,-1420,14772,4664,1327,-558,78
3.708,3.32,0.82,-0.34,0.72,-4.39,3.60,2.03,-1.24,4.51,-1.27,1110.00,1904.00,379.00,654.00,1222.00,1729.00,945.00,1335.00,,,,,,,,,,,,0,0,0,,-1120,14968,4520,579,227,503
3.75,3.38,0.83,0.75,0.21,3.16,-2.15,0.95,-0.83,2.76,0.49,1119.00,1849.00,451.00,566.00,1219.00,1785.00,887.00,1365.00,,,,,,,,,,,,0,0,0,,-1064,15460,4168,-835,955,-68
3.77,3.43,0.74,0.65,-0.77,-1.82,-1.04,-0.96,1.17,1.78,1.93,1182.00,1906.00,465.00,669.00,1133.00,1825.00,835.00,1365.00,,,,,,,,,,,,0,0,0,,-1124,15356,4364,-471,522,-230
3.811,3.49,0.79,-1.63,1.99,-6.27,5.03,1.79,-0.84,4.23,-0.24,1061.00,1937.00,363.00,678.00,1201.00,1727.00,898.00,1313.00,,,,,,,,,,,,0,0,0,,-1288,15308,4436,-11,-428,-60
3.851,3.54,0.82,1.34,-0.70,1.45,-0.74,1.49,-1.41,3.17,-0.43,1163.00,1851.00,431.00,583.00,1246.00,1775.00,925.00,1376.00,,,,,,,,,,,,0,0,0,,-1692,15088,4620,239,-546,-81
3.911,3.60,0.73,0.23,-0.42,1.42,-3.28,-1.02,0.33,1.29,1.13,1169.00,1920.00,495.00,625.00,1187.00,1871.00,880.00,1422.00,,,,,,,,,,,,0,0,0,,-1480,14884,4448,1076,-499,316
3.974,3.65,0.70,-0.37,0.78,-4.57,1.12,0.07,-0.01,3.08,0.15,1107.00,1903.00,435.00,704.00,1185.00,1808.00,898.00,1360.00,,,,,,,,,,,,0,0,0,,-912,14880,3876,-90,-296,500
4.036,3.71,0.77,0.61,-0.68,-1.83,0.28,2.05,-2.29,3.91,-1.65,1177.00,1904.00,433.00,646.00,1293.00,1777.00,975.00,1381.00,,,,,,,,,,,,0,0,0,,-712,15612,4244,-1036,-205,-5
4.057,3.76,0.69,0.03,-0.34,4.01,-5.52,-0.73,-0.13,1.21,1.01,1168.00,1931.00,533.00,599.00,1210.00,1872.00,887.00,1431.00,,,,,,,,,,,,0,0,0,,-880,14928,4620,-1319,-444,-648
4.12,3.82,0.63,-0.06,-0.15,-4.19,0.61,-0.51,0.95,2.35,0.91,1158.00,1928.00,444.00,703.00,1137.00,1803.00,873.00,1371.00,,,,,,,,,,,,0,0,0,,-1520,15132,5288,-564,-510,-529
4.183,3.87,0.74,-0.46,0.55,-4.45,4.32,2.90,-2.16,4.15,-1.27,1123.00,1922.00,365.00,643.00,1264.00,1712.00,951.00,1354.00,,,,,,,,,,,,0,0,0,,-1160,15216,4828,305,-256,107
4.223,3.93,0.73,1.03,-0.17,2.98,-2.53,0.42,-0.53,2.13,0.20,1136.00,1847.00,462.00,576.00,1211.00,1808.00,911.00,1410.00,,,,,,,,,,,,0,0,0,,-1156,14752,4580,1053,-210,67
4.305,3.98,0.62,0.99,-0.43,-0.30,-1.63,-1.46,1.36,1.24,1.14,1153.00,1863.00,467.00,640.00,1131.00,1851.00,880.00,1424.00,,,,,,,,,,,,0,0,0,,-612,15236,4088,752,15,307
4.408,4.04,0.66,-1.30,2.02,-6.33,4.95,1.48,-0.90,3.85,-0.42,1053.00,1910.00,365.00,681.00,1212.00,1751.00,913.00,1339.00,,,,,,,,,,,,0,0,0,,-520,15364,4024,-421,-70,99
4.429,4.09,0.71,1.93,-0.47,2.15,-1.06,1.53,-1.72,2.02,-0.00,1136.00,1797.00,433.00,572.00,1266.00,1787.00,923.00,1424.00,,,,,,,,,,,,0,0,0,,-536,15280,4140,-1424,-427,-940
4.45,4.15,0.63,-0.03,-0.42,1.56,-3.37,-0.81,0.28,0.35,1.63,1174.00,1939.00,496.00,623.00,1185.00,1857.00,871.00,1456.00,,,,,,,,,,,,0,0,0,,-920,15376,4500,-1236,-657,-1316
4.512,4.20,0.63,-1.05,1.11,-5.02,1.83,0.59,-0.40,1.98,-0.03,1101.00,1938.00,422.00,703.00,1199.00,1790.00,925.00,1427.00,,,,,,,,,,,,0,0,0,,-1632,14796,5344,-325,-241,-688
4.553,4.26,0.70,1.07,-1.01,-1.76,1.18,2.16,-2.01,2.25,-1.15,1188.00,1886.00,412.00,629.00,1271.00,1756.00,978.00,1455.00,,,,,,,,,,,,0,0,0,,-1488,14936,4880,464,-343,-375
4.615,4.31,0.64,0.40,-0.47,3.30,-5.21,-0.64,0.24,-0.10,0.71,1168.00,1909.00,531.00,611.00,1184.00,1847.00,923.00,1519.00,,,,,,,,,,,,0,0,0,,-1512,14808,4416,1005,552,287
4.676,4.37,0.59,0.01,-0.05,-5.34,1.42,-0.31,0.60,1.26,1.11,1150.00,1917.00,434.00,720.00,1154.00,1805.00,881.00,1424.00,,,,,,,,,,,,0,0,0,,-940,15340,4176,190,1113,832
4.781,4.42,0.66,-0.08,0.21,-4.02,3.00,1.89,-1.67,3.60,-1.62,1136.00,1911.00,389.00,655.00,1254.00,1759.00,979.00,1397.00,,,,,,,,,,,,0,0,0,,-520,15892,3532,-1406,697,-45
4.802,4.48,0.63,0.42,-0.30,2.92,-3.22,0.12,-0.72,1.43,0.12,1157.00,1899.00,480.00,588.00,1230.00,1839.00,927.00,1453.00,,,,,,,,,,,,0,0,0,,-840,15460,4304,-2608,-165,-1262
4.842,4.53,0.54,0.64,-1.00,-1.06,-1.26,-1.07,1.14,-0.14,1.17,1197.00,1918.00,464.00,653.00,1137.00,1834.00,901.00,1503.00,,,,,,,,,,,,0,0,0,,-1708,14892,5872,-1905,-179,-1161
4.884,4.59,0.62,-1.61,1.43,-6.47,5.05,2.05,-0.46,1.01,-0.90,1093.00,1964.00,364.00,683.00,1171.00,1692.00,987.00,1518.00,,,,,,,,,,,,0,0,0,,-1696,14560,6080,-190,415,-525
4.945,4.64,0.64,1.55,-0.85,2.37,-1.64,1.03,-1.25,1.15,-0.34,1168.00,1843.00,445.00,576.00,1245.00,1799.00,955.00,1487.00,,,,,,,,,,,,0,0,0,,-1556,15396,5052,2145,-92,-344
5.028,4.70,0.53,0.30,-0.67,0.79,-2.88,-1.52,0.77,-0.04,1.24,1183.00,1927.00,490.00,634.00,1169.00,1885.00,896.00,1494.00,,,,,,,,,,,,0,0,0,,-1368,14692,4216,1951,-69,600
5.068,4.75,0.50,-1.31,1.42,-5.51,2.35,-0.17,-0.19,1.77,-0.33,1088.00,1942.00,414.00,707.00,1202.00,1834.00,944.00,1451.00,,,,,,,,,,,,0,0,0,,-780,14908,3516,234,324,847
5.13,4.81,0.53,0.69,-0.59,-2.62,0.93,1.15,-1.87,2.17,-0.78,1170.00,1894.00,424.00,655.00,1285.00,1821.00,960.00,1445.00,,,,,,,,,,,,0,0,0,,-680,15272,4104,-1897,614,257
5.21,4.86,0.44,-0.31,-0.57,1.60,-4.43,-1.28,-0.08,-0.26,0.71,1190.00,1969.00,525.00,640.00,1219.00,1911.00,926.00,1529.00,,,,,,,,,,,,0,0,0,,-932,15428,5016,-2077,499,-760
5.231,4.92,0.40,-0.84,0.29,-5.56,0.86,-0.41,0.38,0.74,0.39,1147.00,1965.00,449.00,737.00,1170.00,1823.00,925.00,1482.00,,,,,,,,,,,,0,0,0,,-1688,14856,5884,-872,254,-551
5.272,4.97,0.46,-0.09,-0.39,-3.53,2.04,1.74,-2.00,2.10,-1.64,1174.00,1943.00,406.00,659.00,1280.00,1785.00,1007.00,1483.00,,,,,,,,,,,,0,0,0,,-1308,14964,5304,753,-620,-278
5.355,5.03,0.39,0.67,-0.76,3.34,-5.09,-1.05,-0.62,-0.56,0.24,1181.00,1904.00,527.00,608.00,1250.00,1921.00,955.00,1567.00,,,,,,,,,,,,0,0,0,,-1264,14812,4864,1183,-100,328
5.396,5.08,0.27,0.11,-0.79,-2.21,-1.46,-1.90,0.90,0.02,0.51,1195.00,1948.00,479.00,687.00,1169.00,1907.00,931.00,1520.00,,,,,,,,,,,,0,0,0,,-936,14960,4172,480,468,542
5.498,5.14,0.30,-1.34,0.68,-4.99,2.81,0.74,-1.00,1.93,-0.70,1133.00,1983.00,400.00,684.00,1235.00,1808.00,960.00,1456.00,,,,,,,,,,,,0,0,0,,-640,15380,4112,-1026,766,165
5.519,5.19,0.27,0.67,-0.67,1.32,-2.29,-0.20,-1.11,0.78,-0.71,1175.00,1899.00,470.00,611.00,1264.00,1882.00,981.00,1524.00,,,,,,,,,,,,0,0,0,,-976,15032,4716,-2052,205,-874
5.581,5.25,0.16,-0.70,-0.84,-1.70,-2.31,-1.95,0.98,-1.66,1.32,1216.00,2014.00,497.00,689.00,1165.00,1907.00,919.00,1590.00,,,,,,,,,,,,0,0,0,,-1904,14752,5980,-325,413,-135
5.601,5.30,0.18,-1.96,1.30,-7.50,3.84,0.63,-0.52,1.50,-0.48,1108.00,1999.00,396.00,735.00,1206.00,1793.00,956.00,1472.00,,,,,,,,,,,,0,0,0,,-1392,14708,5296,762,-14,346
5.664,5.36,0.19,1.29,-1.25,-2.36,0.20,0.29,-1.34,1.06,-1.20,1199.00,1882.00,439.00,661.00,1268.00,1857.00,1002.00,1527.00,,,,,,,,,,,,0,0,0,,-1252,14460,5732,2178,-404,704
5.705,5.41,0.10,-0.32,-0.64,1.87,-5.58,-1.70,-0.09,-0.56,0.24,1195.00,1974.00,556.00,653.00,1229.00,1943.00,955.00,1567.00,,,,,,,,,,,,0,0,0,,-976,15084,4432,1651,-221,866
5.767,5.47,0.07,-1.23,0.23,-5.87,0.09,-0.48,-0.15,0.95,-0.12,1159.00,1999.00,471.00,762.00,1206.00,1855.00,947.00,1490.00,,,,,,,,,,,,0,0,0,,-1160,15204,4360,806,-1234,542
5.869,5.52,0.14,-0.61,-0.66,-4.19,1.68,1.52,-2.02,2.25,-1.76,1202.00,1997.00,419.00,683.00,1287.00,1802.00,1011.00,1479.00,,,,,,,,,,,,0,0,0,,-1148,14640,4608,749,-2099,632
5.89,5.58,0.06,-0.35,-1.09,2.69,-4.80,-1.49,0.56,-0.20,0.58,1225.00,2000.00,525.00,619.00,1182.00,1894.00,931.00,1530.00,,,,,,,,,,,,0,0,0,,-532,15264,4188,1605,-3122,1442
5.932,5.63,-0.00,-0.42,-0.77,-3.68,-1.19,-1.12,0.77,0.68,0.81,1205.00,1988.00,485.00,723.00,1161.00,1856.00,905.00,1469.00,,,,,,,,,,,,0,0,0,,224,14924,4276,2391,-3286,2121
5.992,5.69,0.06,-1.11,0.46,-5.97,3.18,1.25,-0.96,2.34,-0.89,1142.00,1977.00,399.00,704.00,1221.00,1770.00,963.00,1440.00,,,,,,,,,,,,0,0,0,,664,15136,4340,2400,-2853,1823
6.055,5.74,0.07,0.61,-0.30,1.69,-1.66,0.31,-1.12,1.35,-0.41,1153.00,1885.00,451.00,592.00,1253.00,1845.00,955.00,1478.00,,,,,,,,,,,,0,0,0,,1280,16740,3720,2628,-2195,1813
6.096,5.80,-0.02,-0.66,-0.09,-1.67,-2.36,-1.87,1.11,-0.60,1.57,1167.00,1971.00,498.00,689.00,1155.00,1894.00,889.00,1514.00,,,,,,,,,,,,0,0,0,,1368,16060,3832,2276,-1586,-31
6.157,5.85,0.02,-2.09,1.72,-6.69,3.19,0.75,-0.70,1.84,-0.49,1086.00,1987.00,404.00,724.00,1215.00,1793.00,951.00,1453.00,,,,,,,,,,,,0,0,0,,1204,16616,3172,2471,-863,-1422
6.259,5.91,0.06,0.40,-0.47,-1.12,-0.71,0.91,-1.72,1.06,-1.14,1168.00,1909.00,451.00,645.00,1280.00,1831.00,999.00,1525.00,,,,,,,,,,,,0,0,0,,772,16284,2908,2203,-386,-2539
6.279,5.96,-0.01,-0.74,0.13,0.20,-3.46,-1.32,0.06,-0.79,0.12,1155.00,1966.00,511.00,659.00,1211.00,1907.00,965.00,1586.00,,,,,,,,,,,,0,0,0,,444,15428,2396,1831,450,-1747
6.32,6.02,-0.01,-1.52,0.69,-6.14,0.53,-0.12,-0.04,0.01,0.16,1136.00,1997.00,462.00,761.00,1191.00,1823.00,949.00,1535.00,,,,,,,,,,,,0,0,0,,28,15996,1984,1809,925,-1754
6.38,6.07,0.09,-0.32,0.01,-3.53,2.04,2.05,-2.03,0.21,-2.12,1153.00,1939.00,406.00,659.00,1275.00,1765.00,1070.00,1619.00,,,,,,,,,,,,0,0,0,,-1040,15520,2380,531,1442,-2133
6.441,6.13,0.05,0.18,-0.38,3.96,-5.58,-0.68,0.03,-3.85,-0.25,1167.00,1921.00,535.00,601.00,1199.00,1861.00,1041.00,1808.00,,,,,,,,,,,,0,0,0,,-1224,15068,2484,598,2947,-1082
6.523,6.18,0.02,-0.62,0.55,-3.41,0.10,-0.61,1.03,-3.73,-0.33,1126.00,1934.00,450.00,691.00,1134.00,1806.00,1043.00,1803.00,,,,,,,,,,,,0,0,0,,-1092,15408,1980,760,4151,948
6.545,6.24,0.12,-0.80,1.49,-4.54,3.70,2.00,-0.89,-2.99,-1.90,1074.00,1900.00,378.00,656.00,1200.00,1715.00,1121.00,1827.00,,,,,,,,,,,,0,0,0,,-628,15100,2172,-9,5649,3184
6.606,6.29,0.17,0.87,0.42,4.50,-1.89,1.10,-0.76,-3.30,-1.74,1104.00,1830.00,434.00,533.00,1211.00,1771.00,1117.00,1841.00,,,,,,,,,,,,0,0,0,,456,16604,1240,725,6282,3208
6.667,6.35,0.09,0.32,0.59,0.21,-1.44,-1.32,1.62,-4.12,0.45,1105.00,1862.00,458.00,624.00,1113.00,1829.00,1007.00,1793.00,,,,,,,,,,,,0,0,0,,696,17712,944,538,5290,1198
6.73,6.40,0.16,-1.02,2.26,-6.09,4.27,1.42,-0.64,-2.29,-1.50,1034.00,1877.00,377.00,687.00,1196.00,1743.00,1083.00,1758.00,,,,,,,,,,,,0,0,0,,692,15240,1068,1004,4975,1024
6.772,6.46,0.20,1.39,0.24,0.95,-0.31,0.99,-1.32,-3.06,-1.60,1104.00,1801.00,425.00,588.00,1251.00,1806.00,1104.00,1817.00,,,,,,,,,,,,0,0,0,,940,15108,1392,47,5770,969
6.835,6.51,0.13,-0.07,0.68,1.62,-3.94,-1.10,0.48,-4.57,-0.55,1107.00,1886.00,511.00,631.00,1179.00,1869.00,1072.00,1875.00,,,,,,,,,,,,0,0,0,,1036,15520,1252,139,6027,323
6.876,6.57,0.14,-0.92,1.56,-4.46,0.74,0.18,0.01,-3.06,-1.05,1072.00,1905.00,443.00,708.00,1181.00,1799.00,1072.00,1791.00,,,,,,,,,,,,0,0,0,,532,17244,1628,366,7174,-139
6.98,6.62,0.21,0.24,0.25,-3.43,1.56,1.58,-2.17,-2.03,-2.47,1127.00,1885.00,416.00,665.00,1296.00,1805.00,1136.00,1786.00,,,,,,,,,,,,0,0,0,,-120,16860,1196,-96,5977,-1328
7.001,6.68,0.14,0.26,-0.17,2.64,-5.20,-1.14,-0.16,-4.44,-0.68,1152.00,1904.00,537.00,627.00,1221.00,1904.00,1077.00,1872.00,,,,,,,,,,,,0,0,0,,-804,15540,936,285,4973,-932
7.041,6.73,0.09,-0.45,0.48,-4.37,0.14,-0.94,0.79,-3.74,-0.16,1127.00,1925.00,457.00,717.00,1156.00,1842.00,1034.00,1796.00,,,,,,,,,,,,0,0,0,,-916,15332,388,-297,3443,-712
7.103,6.79,0.19,-0.67,0.57,-4.01,2.52,2.07,-1.88,-2.17,-2.07,1126.00,1937.00,399.00,663.00,1264.00,1756.00,1114.00,1776.00,,,,,,,,,,,,0,0,0,,-976,15932,504,-1377,1169,-538
7.143,6.84,0.22,0.39,-0.07,2.77,-2.74,0.92,-1.27,-3.55,-0.84,1143.00,1889.00,469.00,584.00,1249.00,1808.00,1069.00,1815.00,,,,,,,,,,,,0,0,0,,-656,16040,1984,-111,-135,-54
7.205,6.90,0.15,0.30,-0.59,-1.48,-1.70,-1.33,1.32,-4.44,0.27,1178.00,1923.00,479.00,672.00,1131.00,1844.00,1023.00,1825.00,,,,,,,,,,,,0,0,0,,-428,16040,1420,1050,121,113
7.267,6.95,0.22,-1.69,1.82,-6.82,4.91,1.71,-0.98,-2.08,-1.37,1072.00,1950.00,369.00,695.00,1212.00,1739.00,1071.00,1737.00,,,,,,,,,,,,0,0,0,,-264,16112,1052,880,-507,-98
7.329,7.01,0.27,1.19,-0.48,1.59,-1.71,1.23,-1.59,-2.95,-1.37,1152.00,1851.00,453.00,595.00,1264.00,1802.00,1088.00,1798.00,,,,,,,,,,,,0,0,0,,-292,16340,752,422,-34,-11
7.37,7.06,0.20,-0.32,-0.19,0.22,-2.92,-1.17,0.50,-4.74,0.43,1166.00,1950.00,496.00,649.00,1179.00,1873.00,1020.00,1839.00,,,,,,,,,,,,0,0,0,,-560,16072,1112,52,-46,-536
7.411,7.12,0.19,-1.08,0.91,-5.88,1.39,0.04,-0.23,-2.90,-1.11,1114.00,1951.00,439.00,736.00,1200.00,1821.00,1072.00,1782.00,,,,,,,,,,,,0,0,0,,-708,15824,1052,1600,1178,-94
7.47,7.17,0.26,0.32,-0.44,-1.68,-0.40,1.52,-2.15,-1.91,-2.24,1168.00,1914.00,448.00,654.00,1296.00,1808.00,1119.00,1766.00,,,,,,,,,,,,0,0,0,,-280,15836,404,1748,1753,571
7.531,7.23,0.19,-0.28,-0.24,2.01,-5.33,-1.19,-0.14,-3.95,-0.25,1168.00,1949.00,547.00,645.00,1221.00,1907.00,1043.00,1815.00,,,,,,,,,,,,0,0,0,,-16,16524,-580,1117,1596,655
7.573,7.28,0.13,-0.57,0.18,-4.89,-0.32,-0.99,0.31,-2.70,-0.15,1148.00,1950.00,473.00,741.00,1187.00,1869.00,1014.00,1723.00,,,,,,,,,,,,0,0,0,,-48,16568,-132,-550,690,-91
7.655,7.34,0.22,-0.73,0.61,-5.37,2.89,1.89,-1.81,-0.95,-1.75,1125.00,1940.00,401.00,693.00,1264.00,1766.00,1071.00,1678.00,,,,,,,,,,,,0,0,0,,-344,16100,744,-1165,1068,-778
7.736,7.39,0.23,0.21,0.11,1.60,-2.58,0.56,-1.15,-2.14,-0.50,1136.00,1894.00,475.00,609.00,1249.00,1828.00,1023.00,1701.00,,,,,,,,,,,,0,0,0,,-668,16220,1128,-1457,1219,-1263
7.757,7.45,0.15,0.54,-0.51,-1.08,-1.80,-1.44,1.16,-2.62,0.70,1168.00,1901.00,478.00,663.00,1143.00,1860.00,967.00,1679.00,,,,,,,,,,,,0,0,0,,-916,16136,1156,-1180,1567,-1182
7.797,7.50,0.23,-1.42,1.49,-6.53,4.86,1.68,-1.16,0.94,-2.76,1086.00,1947.00,368.00,688.00,1225.00,1750.00,1093.00,1600.00,,,,,,,,,,,,0,0,0,,-1184,15924,1468,-749,1651,-800
7.86,7.56,0.27,1.38,-0.54,1.69,-1.53,1.19,-1.67,-1.06,-0.87,1152.00,1840.00,448.00,590.00,1270.00,1808.00,1023.00,1646.00,,,,,,,,,,,,0,0,0,,-1196,16084,1360,-31,1842,-384
7.901,7.61,0.19,-0.03,-0.42,-0.18,-2.78,-1.44,0.87,-2.48,1.12,1174.00,1939.00,496.00,657.00,1161.00,1874.00,943.00,1651.00,,,,,,,,,,,,0,0,0,,-1236,16120,1060,77,2426,-241
7.982,7.67,0.20,-1.36,1.56,-5.60,2.38,0.32,-0.10,-0.82,-0.40,1081.00,1939.00,414.00,709.00,1185.00,1794.00,993.00,1610.00,,,,,,,,,,,,0,0,0,,-1240,16084,1820,209,3455,-349
8.065,7.72,0.26,0.77,-0.73,-1.00,-0.42,1.58,-2.13,0.02,-1.81,1177.00,1895.00,443.00,637.00,1293.00,1803.00,1056.00,1618.00,,,,,,,,,,,,0,0,0,,-1240,15712,1788,343,6130,-113
8.086,7.78,0.19,0.36,-0.88,2.47,-4.22,-1.16,0.17,-2.25,0.35,1195.00,1933.00,511.00,615.00,1200.00,1889.00,979.00,1670.00,,,,,,,,,,,,0,0,0,,-656,16596,1352,-32,10877,130
8.149,7.83,0.17,-0.75,0.42,-5.08,1.04,-0.21,0.19,-1.22,0.07,1137.00,1951.00,441.00,720.00,1178.00,1818.00,975.00,1615.00,,,,,,,,,,,,0,0,0,,-772,16616,-460,-98,10757,-1371
8.19,7.89,0.25,-0.41,0.21,-3.12,2.18,1.76,-1.96,0.63,-2.23,1143.00,1936.00,400.00,646.00,1277.00,1782.00,1068.00,1597.00,,,,,,,,,,,,0,0,0,,-1292,16008,-880,157,8080,-1109
8.251,7.94,0.22,0.55,-0.69,4.41,-4.07,-0.31,-0.69,-1.96,-0.01,1179.00,1909.00,489.00,567.00,1238.00,1869.00,993.00,1667.00,,,,,,,,,,,,0,0,0,,-1236,16348,-1564,231,4953,-342
8.291,8.00,0.16,0.55,-0.47,0.27,-1.94,-1.05,0.81,-1.90,0.80,1165.00,1898.00,470.00,631.00,1157.00,1849.00,949.00,1627.00,,,,,,,,,,,,0,0,0,,-1472,15904,-1328,220,1760,54
8.353,8.05,0.24,-1.01,1.27,-5.11,4.95,1.68,-0.83,0.91,-1.16,1091.00,1927.00,357.00,649.00,1203.00,1734.00,1003.00,1535.00,,,,,,,,,,,,0,0,0,,-1836,15980,64,-9,617,280
8.436,8.11,0.27,1.59,-0.34,4.05,-1.78,0.94,-1.28,-0.76,-0.69,1135.00,1815.00,435.00,541.00,1249.00,1807.00,1008.00,1619.00,,,,,,,,,,,,0,0,0,,-1628,16384,252,-633,522,-456
8.457,8.16,0.19,0.26,-0.28,1.86,-2.90,-1.35,1.31,-2.28,1.33,1159.00,1910.00,481.00,608.00,1132.00,1846.00,929.00,1629.00,,,,,,,,,,,,0,0,0,,-1772,16188,-152,-540,318,-741
8.519,8.22,0.24,-1.47,2.04,-4.57,3.13,1.13,-0.55,-0.51,-0.22,1055.00,1922.00,390.00,667.00,1197.00,1759.00,978.00,1583.00,,,,,,,,,,,,0,0,0,,-1860,15976,436,-123,-601,-870
8.581,8.27,0.31,1.07,-0.58,-2.59,0.88,1.61,-1.68,-0.38,-1.10,1161.00,1865.00,425.00,655.00,1261.00,1779.00,1023.00,1612.00,,,,,,,,,,,,0,0,0,,-2164,16088,-40,704,-736,-1016
8.622,8.33,0.26,-0.11,-0.02,2.76,-3.92,-0.70,0.05,-2.20,0.37,1151.00,1925.00,500.00,603.00,1198.00,1861.00,977.00,1666.00,,,,,,,,,,,,0,0,0,,-2240,15752,-468,385,-614,-486
8.684,8.38,0.24,-1.40,1.69,-4.17,1.11,0.00,0.29,-1.36,-0.18,1074.00,1935.00,432.00,693.00,1167.00,1798.00,991.00,1635.00,,,,,,,,,,,,0,0,0,,-2408,15360,-312,-89,-1465,-80
8.745,8.44,0.34,0.12,0.22,-2.86,3.08,2.13,-1.84,0.29,-1.82,1131.00,1895.00,379.00,624.00,1260.00,1750.00,1051.00,1601.00,,,,,,,,,,,,0,0,0,,-2316,16032,-788,236,-1774,532
8.829,8.49,0.31,0.17,0.01,4.23,-3.93,-0.22,-0.24,-2.07,-0.16,1143.00,1902.00,487.00,569.00,1206.00,1840.00,1003.00,1681.00,,,,,,,,,,,,0,0,0,,-2028,15568,32,12,-2689,1250
8.849,8.55,0.24,0.03,-0.25,-1.13,-0.46,-1.04,1.00,-1.84,0.27,1162.00,1926.00,445.00,641.00,1145.00,1839.00,976.00,1647.00,,,,,,,,,,,,0,0,0,,-1560,16204,-448,140,-2734,1235
8.91,8.60,0.30,-1.28,1.21,-4.92,4.32,1.32,-0.74,0.27,-1.02,1100.00,1951.00,368.00,655.00,1205.00,1755.00,1007.00,1568.00,,,,,,,,,,,,0,0,0,,-820,16572,-2804,-903,-6106,727
8.952,8.66,0.32,0.90,0.02,4.86,-1.93,0.73,-1.03,-0.54,-0.53,1127.00,1847.00,432.00,526.00,1237.00,1810.00,995.00,1598.00,,,,,,,,,,,,0,0,0,,-412,15864,-1936,-2157,-11078,589
9.013,8.71,0.22,0.40,-0.39,0.43,-1.76,-1.55,1.53,-1.81,1.63,1163.00,1905.00,464.00,624.00,1123.00,1850.00,906.00,1586.00,,,,,,,,,,,,0,0,0,,16,16732,208,-3437,-15440,263
9.075,8.77,0.28,-1.72,2.37,-5.79,5.39,1.34,-0.52,0.89,-0.33,1041.00,1924.00,353.00,659.00,1190.00,1743.00,959.00,1502.00,,,,,,,,,,,,0,0,0,,640,15520,1572,-3729,-17632,-685
9.2,8.82,0.32,1.37,-0.28,0.99,-0.63,1.05,-1.22,0.58,-0.68,1136.00,1828.00,432.00,592.00,1243.00,1797.00,983.00,1535.00,,,,,,,,,,,,0,0,0,,920,15812,2608,-2341,-16541,-1225
9.226,8.88,0.28,-0.28,0.65,1.18,-2.86,-0.53,0.22,-0.94,0.36,1113.00,1903.00,486.00,624.00,1183.00,1840.00,955.00,1585.00,,,,,,,,,,,,0,0,0,,240,15772,4932,-1657,-12010,-1261
9.265,8.93,0.26,-0.68,1.50,-5.52,2.04,-0.01,0.80,0.20,0.08,1071.00,1890.00,421.00,713.00,1136.00,1775.00,950.00,1527.00,,,,,,,,,,,,0,0,0,,12,15796,5748,-1466,-7245,-1192
9.286,8.99,0.36,0.14,0.95,-3.08,2.35,2.18,-1.83,2.16,-2.31,1087.00,1857.00,396.00,642.00,1258.00,1746.00,1043.00,1506.00,,,,,,,,,,,,0,0,0,,-200,16264,3936,-681,-2701,-2220
9.347,9.04,0.31,0.16,0.94,4.34,-4.41,-0.56,0.20,-1.33,0.51,1087.00,1856.00,499.00,574.00,1185.00,1843.00,954.00,1603.00,,,,,,,,,,,,0,0,0,,-524,15480,3032,-300,-1307,-2518
9.388,9.10,0.26,-0.43,0.95,-3.12,0.54,-0.76,1.28,-0.18,0.44,1098.00,1899.00,437.00,675.00,1122.00,1805.00,938.00,1535.00,,,,,,,,,,,,0,0,0,,-908,15492,2740,-327,-264,-1578
9.449,9.15,0.33,-0.63,1.58,-4.80,4.03,1.69,-0.77,0.78,-0.63,1065.00,1882.00,373.00,657.00,1199.00,1731.00,977.00,1521.00,,,,,,,,,,,,0,0,0,,-1036,15600,2584,-512,-13,-1174
9.531,9.21,0.34,0.47,0.72,2.45,-1.62,0.49,-0.63,-0.70,-0.08,1094.00,1844.00,444.00,574.00,1216.00,1808.00,974.00,1589.00,,,,,,,,,,,,0,0,0,,-1084,15508,2872,-675,45,-752
9.551,9.26,0.28,-0.06,0.53,-0.85,-1.68,-0.76,0.53,-1.79,1.32,1116.00,1893.00,473.00,655.00,1168.00,1841.00,921.00,1598.00,,,,,,,,,,,,0,0,0,,-992,15588,3468,-796,495,-193
9.612,9.32,0.31,-1.57,2.16,-6.88,4.64,0.79,-0.29,1.39,-0.82,1050.00,1923.00,375.00,702.00,1187.00,1770.00,976.00,1492.00,,,,,,,,,,,,0,0,0,,-744,16064,3280,-609,650,-609
9.673,9.37,0.35,1.55,-0.18,1.08,-0.44,1.23,-1.33,0.00,-0.86,1126.00,1810.00,427.00,587.00,1246.00,1789.00,1003.00,1578.00,,,,,,,,,,,,0,0,0,,-868,15540,2912,414,697,-759
9.735,9.43,0.28,0.17,0.17,0.96,-2.60,-1.14,0.66,-1.12,0.43,1133.00,1894.00,481.00,625.00,1168.00,1863.00,955.00,1594.00,,,,,,,,,,,,0,0,0,,-1260,15640,2792,95,566,-981
9.797,9.48,0.27,-0.95,1.49,-5.14,2.22,0.13,0.24,0.20,-0.11,1077.00,1911.00,414.00,699.00,1168.00,1792.00,960.00,1535.00,,,,,,,,,,,,0,0,0,,-1396,15712,2720,17,550,-715
9.838,9.54,0.36,0.54,-0.00,-2.06,1.91,2.05,-2.07,1.46,-1.98,1136.00,1875.00,398.00,624.00,1278.00,1767.00,1038.00,1535.00,,,,,,,,,,,,0,0,0,,-1500,15640,2564,83,413,-404
9.899,9.59,0.30,0.33,-0.27,3.67,-4.26,-0.90,0.08,-1.98,0.79,1157.00,1904.00,501.00,587.00,1200.00,1874.00,951.00,1633.00,,,,,,,,,,,,0,0,0,,-1264,15328,2616,444,221,22
9.959,9.65,0.25,-0.34,0.31,-4.36,1.39,-0.56,0.97,0.24,-0.99,1135.00,1925.00,427.00,693.00,1137.00,1806.00,1006.00,1569.00,,,,,,,,,,,,0,0,0,,-1268,15700,2668,98,131,-114
10.02,9.70,0.31,-0.51,0.76,-5.29,4.70,1.41,-0.94,1.03,-1.35,1111.00,1915.00,363.00,658.00,1216.00,1758.00,1011.00,1535.00,,,,,,,,,,,,0,0,0,,-1268,15884,2680,-143,170,-210
10.08,9.76,0.32,0.38,0.32,1.72,-1.00,0.41,-0.84,-0.54,-0.17,1120.00,1871.00,435.00,581.00,1232.00,1824.00,976.00,1583.00,,,,,,,,,,,,0,0,0,,-1320,15616,2980,-2,161,-163
10.121,9.81,0.22,-0.08,0.03,-0.57,-1.46,-1.57,1.29,-1.61,1.14,1147.00,1920.00,465.00,644.00,1138.00,1863.00,927.00,1594.00,,,,,,,,,,,,0,0,0,,-1160,15800,2892,-40,132,-70
10.182,9.87,0.28,-2.06,2.21,-7.36,5.65,1.31,-0.64,0.63,-0.75,1057.00,1959.00,358.00,696.00,1199.00,1751.00,986.00,1535.00,,,,,,,,,,,,0,0,0,,-1248,15760,2772,-87,-6,-98
10.285,9.92,0.29,0.91,-0.43,1.01,-0.85,0.50,-1.20,-0.30,-1.05,1155.00,1869.00,437.00,595.00,1254.00,1835.00,1019.00,1605.00,,,,,,,,,,,,0,0,0,,-1244,16112,2760,-401,-343,-120
10.305,9.98,0.19,-0.75,-0.03,0.52,-3.02,-1.70,0.85,-1.82,0.91,1165.00,1975.00,496.00,643.00,1168.00,1895.00,942.00,1617.00,,,,,,,,,,,,0,0,0,,-1264,16252,2688,-97,-482,-317
10.346,10.03,0.16,-1.17,1.12,-5.33,1.50,-0.39,0.36,-0.34,-0.43,1103.00,1947.00,432.00,718.00,1171.00,1823.00,986.00,1581.00,,,,,,,,,,,,0,0,0,,-1240,15048,2992,-1719,-354,17
10.408,10.09,0.22,0.26,-0.07,-5.49,2.47,1.34,-1.86,0.92,-1.92,1146.00,1899.00,411.00,704.00,1280.00,1807.00,1045.00,1566.00,,,,,,,,,,,,0,0,0,,-1172,15740,2824,-1781,-262,-171
10.449,10.14,0.13,-0.16,-0.10,2.68,-4.90,-1.61,0.23,-2.18,0.48,1157.00,1933.00,528.00,621.00,1206.00,1920.00,971.00,1660.00,,,,,,,,,,,,0,0,0,,-1164,15984,3732,-1908,-263,-439
10.51,10.20,0.07,-0.85,0.45,-3.72,0.83,-1.01,0.91,-1.27,0.34,1137.00,1957.00,435.00,686.00,1150.00,1841.00,962.00,1607.00,,,,,,,,,,,,0,0,0,,-1052,15252,3852,-818,-411,-515
10.571,10.25,0.14,-0.93,0.61,-5.14,3.85,1.53,-1.50,0.44,-1.62,1129.00,1955.00,379.00,669.00,1251.00,1776.00,1037.00,1583.00,,,,,,,,,,,,0,0,0,,-1104,15644,3692,295,-592,-847
10.653,10.31,0.14,-0.15,0.17,2.20,-2.35,0.01,-0.57,-1.24,-0.25,1140.00,1918.00,464.00,591.00,1223.00,1840.00,993.00,1631.00,,,,,,,,,,,,0,0,0,,-1652,15384,3324,851,-611,-749
10.674,10.36,0.04,-0.06,-0.59,-1.32,-1.05,-1.75,1.38,-1.59,0.82,1186.00,1951.00,461.00,656.00,1136.00,1872.00,943.00,1607.00,,,,,,,,,,,,0,0,0,,-1692,15560,2664,1588,-350,-505
10.713,10.42,0.08,-2.24,1.70,-6.88,5.54,0.77,-0.77,0.55,-0.63,1090.00,2000.00,357.00,685.00,1219.00,1795.00,981.00,1535.00,,,,,,,,,,,,0,0,0,,-1496,15044,2184,2586,113,388
10.775,10.47,0.07,0.65,-0.66,0.22,-0.66,-0.02,-1.17,-0.43,-0.60,1175.00,1900.00,439.00,611.00,1264.00,1872.00,997.00,1594.00,,,,,,,,,,,,0,0,0,,-1440,15024,2168,1991,388,227
10.837,10.53,-0.04,-0.81,-0.54,-1.07,-2.37,-2.26,0.90,-2.43,1.82,1199.00,2007.00,493.00,673.00,1177.00,1935.00,907.00,1617.00,,,,,,,,,,,,0,0,0,,-1388,15880,2124,1915,842,521
10.877,10.58,-0.04,-2.01,1.33,-7.59,3.36,-0.07,-1.31,0.03,-0.50,1107.00,2001.00,407.00,747.00,1275.00,1883.00,983.00,1561.00,,,,,,,,,,,,0,0,0,,-1284,16236,1796,1132,1070,96
10.939,10.64,-0.03,-0.20,-0.73,-3.60,0.92,0.21,-1.85,0.29,-1.57,1198.00,1969.00,432.00,681.00,1306.00,1889.00,1037.00,1590.00,,,,,,,,,,,,0,0,0,,-1664,15692,1956,501,1122,-299
11.001,10.69,-0.14,-1.07,-0.61,0.38,-4.78,-2.24,-0.01,-1.93,0.37,1209.00,2031.00,547.00,678.00,1236.00,1981.00,972.00,1648.00,,,,,,,,,,,,0,0,0,,-1548,15868,1668,163,922,-310
11.062,10.75,-0.20,-1.68,0.44,-6.68,1.28,-1.35,0.22,0.01,0.16,1155.00,2023.00,448.00,762.00,1201.00,1901.00,949.00,1535.00,,,,,,,,,,,,0,0,0,,-1536,15884,1692,202,220,-517
11.123,10.80,-0.15,-1.12,0.05,-5.86,3.29,0.82,-1.99,2.03,-2.08,1168.00,2000.00,396.00,699.00,1301.00,1851.00,1033.00,1505.00,,,,,,,,,,,,0,0,0,,-1716,15748,2040,-36,-407,-394
11.185,10.86,-0.20,-0.70,-0.21,1.29,-3.39,-1.15,-0.66,-0.92,0.13,1175.00,1980.00,499.00,630.00,1255.00,1931.00,967.00,1594.00,,,,,,,,,,,,0,0,0,,-1596,15736,2012,-162,-485,-162
11.226,10.91,-0.31,-0.51,-0.86,-3.75,-0.82,-2.37,0.92,-0.91,1.51,1213.00,2000.00,476.00,718.00,1178.00,1942.00,897.00,1535.00,,,,,,,,,,,,0,0,0,,-1556,15632,1892,-241,-455,-49
11.288,10.97,-0.27,-2.24,0.67,-7.56,4.33,0.55,-1.14,1.40,-0.73,1152.00,2055.00,386.00,727.00,1249.00,1829.00,971.00,1488.00,,,,,,,,,,,,0,0,0,,-1468,16076,2340,-240,-380,-400
11.392,11.02,-0.27,0.10,-0.57,0.36,-1.65,-0.34,-1.40,0.05,-0.31,1181.00,1937.00,462.00,624.00,1287.00,1907.00,973.00,1552.00,,,,,,,,,,,,0,0,0,,-1488,15912,2692,539,-92,-294
11.412,11.08,-0.37,-1.67,-0.60,-2.47,-2.56,-2.29,0.51,-1.33,1.35,1222.00,2080.00,511.00,715.00,1203.00,1958.00,912.00,1568.00,,,,,,,,,,,,0,0,0,,-1444,16180,2476,680,-110,-238
11.433,11.13,-0.38,-2.93,1.58,-8.05,3.79,-0.59,-0.51,0.93,-0.19,1111.00,2062.00,401.00,752.00,1232.00,1881.00,951.00,1494.00,,,,,,,,,,,,0,0,0,,-1420,15792,2148,598,-61,-306
11.495,11.19,-0.37,-0.22,-0.90,-3.33,-0.61,-0.03,-2.01,0.99,-1.28,1209.00,1979.00,467.00,702.00,1323.00,1915.00,1008.00,1535.00,,,,,,,,,,,,0,0,0,,-1452,15732,1624,598,111,120
11.537,11.24,-0.47,-1.72,-0.45,-0.69,-4.28,-2.55,-0.26,-0.97,0.20,1213.00,2075.00,543.00,698.00,1260.00,2019.00,964.00,1594.00,,,,,,,,,,,,0,0,0,,-1428,15564,1520,1408,256,426
11.617,11.30,-0.54,-2.20,0.41,-7.91,1.09,-1.82,-0.06,0.88,-0.36,1168.00,2067.00,463.00,804.00,1230.00,1951.00,961.00,1504.00,,,,,,,,,,,,0,0,0,,-1232,16372,680,-140,120,19
11.658,11.35,-0.50,-1.19,-0.35,-4.74,0.42,0.22,-2.17,2.02,-1.57,1195.00,2027.00,453.00,722.00,1328.00,1904.00,1005.00,1485.00,,,,,,,,,,,,0,0,0,,-1364,16068,1240,-3294,-356,-486
11.761,11.41,-0.56,-1.12,-0.54,0.24,-4.18,-1.72,-0.76,-1.08,0.74,1206.00,2032.00,531.00,671.00,1275.00,1980.00,938.00,1578.00,,,,,,,,,,,,0,0,0,,-1420,15852,2260,-2603,-748,-956
11.782,11.46,-0.67,-1.14,-0.55,-5.20,-0.41,-2.70,0.95,-0.30,0.62,1207.00,2034.00,478.00,752.00,1183.00,1966.00,931.00,1535.00,,,,,,,,,,,,0,0,0,,-1860,15392,3012,-949,-280,-469
11.823,11.52,-0.64,-1.85,-0.18,-7.99,3.96,-0.03,-1.15,1.29,-0.84,1198.00,2071.00,397.00,747.00,1263.00,1872.00,979.00,1499.00,,,,,,,,,,,,0,0,0,,-1616,16000,2752,536,56,252
11.907,11.57,-0.66,-0.36,-0.48,0.63,-2.06,-1.11,-0.81,-0.69,-0.14,1185.00,1968.00,470.00,624.00,1264.00,1935.00,977.00,1591.00,,,,,,,,,,,,0,0,0,,-1440,15800,2196,1460,153,363
11.928,11.63,-0.77,-1.04,-0.62,-3.31,-1.73,-2.77,0.93,-2.02,1.24,1209.00,2029.00,496.00,723.00,1186.00,1973.00,929.00,1616.00,,,,,,,,,,,,0,0,0,,-1152,15560,1752,1054,387,770
11.991,11.68,-0.74,-2.72,1.79,-8.19,3.74,-0.25,-0.92,0.56,-0.66,1094.00,2033.00,403.00,757.00,1252.00,1876.00,982.00,1535.00,,,,,,,,,,,,0,0,0,,-936,16096,1608,-147,315,-67
12.052,11.74,-0.71,0.27,-0.63,-1.18,-1.26,-0.16,-1.95,0.29,-1.57,1181.00,1927.00,465.00,656.00,1322.00,1922.00,1037.00,1590.00,,,,,,,,,,,,0,0,0,,-1064,16060,1708,-1957,137,-515
12.115,11.79,-0.81,-1.44,-0.08,-1.19,-4.08,-2.64,0.11,-2.21,0.33,1183.00,2032.00,542.00,708.00,1237.00,2006.00,979.00,1668.00,,,,,,,,,,,,0,0,0,,-1228,15788,2088,-3011,-64,-606
12.176,11.85,-0.87,-2.38,0.71,-8.07,1.75,-2.10,0.20,-1.19,-0.22,1153.00,2065.00,448.00,795.00,1219.00,1959.00,990.00,1626.00,,,,,,,,,,,,0,0,0,,-1544,15920,2636,-2537,-252,-866
12.196,11.90,-0.82,-0.87,-0.83,-4.86,0.75,0.14,-2.33,0.33,-2.23,1219.00,2027.00,446.00,719.00,1342.00,1919.00,1074.00,1616.00,,,,,,,,,,,,0,0,0,,-1784,15624,3156,-1543,-46,-745
12.258,11.96,-0.90,-1.75,-0.58,0.61,-4.79,-2.32,-0.56,-2.36,-0.17,1222.00,2085.00,545.00,672.00,1275.00,2017.00,1009.00,1701.00,,,,,,,,,,,,0,0,0,,-1784,15568,3444,-434,362,52
12.32,12.01,-0.95,-1.56,-0.64,-5.87,-0.27,-2.00,0.13,-1.61,0.63,1222.00,2073.00,480.00,769.00,1221.00,1955.00,953.00,1616.00,,,,,,,,,,,,0,0,0,,-1576,15692,3068,351,628,57
12.381,12.07,-0.90,-2.20,0.17,-7.49,4.07,0.01,-1.20,0.64,-1.27,1183.00,2080.00,391.00,730.00,1265.00,1871.00,1014.00,1556.00,,,,,,,,,,,,0,0,0,,-1464,15516,2600,573,784,171
12.422,12.12,-0.90,-0.91,-0.24,0.32,-1.96,-0.80,-1.14,-0.51,-0.41,1182.00,1999.00,470.00,630.00,1280.00,1929.00,988.00,1591.00,,,,,,,,,,,,0,0,0,,-1252,16136,2232,305,748,-80
12.483,12.18,-1.00,-0.77,-1.09,-2.77,-1.80,-2.90,1.21,-1.59,1.25,1234.00,2033.00,493.00,709.00,1171.00,1968.00,921.00,1588.00,,,,,,,,,,,,0,0,0,,-1648,15588,2604,-545,377,-607
12.544,12.23,-0.95,-3.15,1.34,-8.76,4.59,-0.06,-0.94,0.68,-0.58,1130.00,2093.00,389.00,757.00,1249.00,1863.00,976.00,1525.00,,,,,,,,,,,,0,0,0,,-1708,15688,2832,-255,207,-558
12.585,12.29,-0.93,0.33,-1.68,-1.11,-1.36,-0.46,-1.43,0.10,-1.15,1249.00,1978.00,467.00,656.00,1292.00,1918.00,1017.00,1584.00,,,,,,,,,,,,0,0,0,,-1896,15340,2948,-111,153,-347
12.646,12.34,-1.02,-1.97,-0.79,-1.49,-2.89,-2.71,0.34,-2.10,1.14,1241.00,2115.00,511.00,694.00,1223.00,1999.00,935.00,1625.00,,,,,,,,,,,,0,0,0,,-1784,15636,2956,-355,60,-199
12.708,12.40,-1.02,-2.60,0.50,-7.38,0.87,-0.99,-0.74,-0.91,0.28,1171.00,2095.00,464.00,792.00,1257.00,1923.00,959.00,1587.00,,,,,,,,,,,,0,0,0,,-1676,15600,3020,-366,-10,-167
12.749,12.45,-0.95,-0.83,-1.38,-4.03,0.27,0.24,-2.18,1.66,-2.23,1255.00,2054.00,451.00,705.00,1329.00,1904.00,1048.00,1533.00,,,,,,,,,,,,0,0,0,,-1732,15656,3144,-51,6,-315
12.849,12.51,-1.02,-2.16,-0.68,-2.31,-1.31,-2.38,-0.38,-2.15,0.56,1238.00,2125.00,476.00,687.00,1264.00,2012.00,966.00,1654.00,,,,,,,,,,,,0,0,0,,-1632,15440,2824,-186,103,-141
12.869,12.56,-1.10,-1.88,-0.65,-7.01,0.47,-2.51,0.43,-1.15,0.32,1230.00,2100.00,471.00,789.00,1213.00,1979.00,961.00,1600.00,,,,,,,,,,,,0,0,0,,-1752,15460,2832,-314,35,-335
12.931,12.62,-1.05,-2.28,-0.46,-6.93,2.69,-0.06,-1.55,1.09,-1.96,1226.00,2122.00,417.00,741.00,1291.00,1894.00,1044.00,1557.00,,,,,,,,,,,,0,0,0,,-1716,15832,2952,-99,44,-80
12.973,12.67,-1.05,-1.31,-0.79,0.39,-2.94,-1.16,-0.86,-0.51,-0.30,1226.00,2060.00,495.00,645.00,1269.00,1942.00,982.00,1586.00,,,,,,,,,,,,0,0,0,,-1764,15552,2984,309,132,101
13.056,12.73,-1.14,-0.86,-1.52,-2.93,-1.67,-2.76,1.11,-1.28,1.01,1265.00,2064.00,491.00,711.00,1174.00,1962.00,928.00,1579.00,,,,,,,,,,,,0,0,0,,-1592,15428,2788,409,242,168
13.076,12.78,-1.07,-3.42,1.40,-8.47,4.25,0.29,-1.25,1.56,-0.92,1132.00,2112.00,394.00,755.00,1262.00,1853.00,978.00,1486.00,,,,,,,,,,,,0,0,0,,-1508,15752,2680,189,265,279
13.138,12.84,-1.00,0.03,-1.34,-0.78,-1.27,0.24,-1.93,-0.19,-0.72,1233.00,1983.00,462.00,646.00,1311.00,1891.00,999.00,1584.00,,,,,,,,,,,,0,0,0,,-1484,15608,2696,10,298,317
13.219,12.89,-1.08,-1.60,-1.02,-2.69,-2.49,-2.52,0.31,-1.51,1.07,1248.00,2097.00,511.00,720.00,1221.00,1986.00,929.00,1591.00,,,,,,,,,,,,0,0,0,,-1544,15724,2468,-31,229,95
13.281,12.95,-1.06,-3.26,1.20,-7.85,2.52,-0.81,-0.82,-0.00,-0.35,1141.00,2110.00,428.00,772.00,1258.00,1913.00,976.00,1557.00,,,,,,,,,,,,0,0,0,,-1392,15676,2792,-485,216,163
13.301,13.00,-1.01,-0.76,-1.30,-4.02,1.06,0.04,-2.20,0.55,-1.71,1248.00,2044.00,432.00,690.00,1335.00,1920.00,1040.00,1580.00,,,,,,,,,,,,0,0,0,,-1520,15836,2900,-306,148,-116
13.361,13.06,-1.08,-1.83,-0.90,0.25,-4.87,-2.53,-0.14,-1.77,0.20,1245.00,2109.00,551.00,683.00,1251.00,2011.00,978.00,1645.00,,,,,,,,,,,,0,0,0,,-1480,15732,2904,-113,69,-143
13.425,13.11,-1.13,-2.19,-0.31,-7.39,1.07,-1.90,0.42,-0.27,-0.15,1214.00,2106.00,459.00,788.00,1200.00,1932.00,970.00,1565.00,,,,,,,,,,,,0,0,0,,-1632,15612,3028,141,158,-55
13.466,13.17,-1.04,-1.90,-0.54,-6.52,2.68,0.61,-2.24,0.88,-2.02,1223.00,2095.00,414.00,729.00,1324.00,1879.00,1051.00,1572.00,,,,,,,,,,,,0,0,0,,-1464,15736,2740,53,329,-4
13.526,13.22,-1.06,-1.48,-0.81,-1.60,-2.78,-1.38,-1.02,-0.72,-0.52,1231.00,2075.00,509.00,695.00,1285.00,1967.00,998.00,1609.00,,,,,,,,,,,,0,0,0,,-1500,15812,2532,68,375,129
13.588,13.28,-1.15,-1.19,-1.14,-4.13,-0.73,-2.86,0.94,-1.07,0.58,1247.00,2070.00,477.00,727.00,1187.00,1979.00,946.00,1584.00,,,,,,,,,,,,0,0,0,,-1428,15456,2652,-233,201,9
13.651,13.33,-1.06,-2.87,0.87,-10.06,7.35,0.50,-1.30,1.33,-0.78,1153.00,2096.00,343.00,740.00,1261.00,1840.00,975.00,1494.00,,,,,,,,,,,,0,0,0,,-1284,15640,2636,-393,162,110
13.691,13.39,-1.03,-0.29,-0.98,0.20,-1.60,-0.42,-1.52,0.10,-0.41,1216.00,1989.00,462.00,627.00,1297.00,1919.00,977.00,1553.00,,,,,,,,,,,,0,0,0,,-1376,15784,2720,-199,283,64
13.753,13.44,-1.10,-1.52,-0.77,-1.45,-2.36,-2.38,0.61,-2.32,1.68,1230.00,2077.00,496.00,683.00,1198.00,1959.00,912.00,1616.00,,,,,,,,,,,,0,0,0,,-1152,15868,2744,-126,273,-50
13.814,13.50,-1.09,-3.49,1.70,-7.78,3.75,-0.91,-0.46,0.74,-0.92,1115.00,2101.00,400.00,745.00,1236.00,1902.00,993.00,1535.00,,,,,,,,,,,,0,0,0,,-1284,15808,2848,26,155,-163
13.856,13.55,-1.04,-0.50,-1.15,-3.55,0.69,-0.06,-1.85,0.65,-1.22,1232.00,2015.00,437.00,684.00,1312.00,1909.00,1011.00,1553.00,,,,,,,,,,,,0,0,0,,-1304,15852,2616,146,0,-344
13.957,13.61,-1.11,-2.06,-0.61,-0.23,-4.54,-2.47,-0.02,-1.51,0.12,1231.00,2112.00,546.00,690.00,1242.00,2000.00,978.00,1632.00,,,,,,,,,,,,0,0,0,,-1408,15752,2772,82,39,-245
13.977,13.66,-1.15,-2.28,0.05,-7.86,1.43,-1.90,0.39,-0.19,0.01,1193.00,2094.00,454.00,795.00,1202.00,1934.00,960.00,1553.00,,,,,,,,,,,,0,0,0,,-1540,15664,2640,103,-11,-421
14.018,13.72,-1.08,-1.60,-0.55,-5.78,1.91,0.30,-2.07,1.71,-2.35,1217.00,2071.00,426.00,723.00,1319.00,1893.00,1054.00,1535.00,,,,,,,,,,,,0,0,0,,-1488,15668,2536,77,105,-120
14.081,13.77,-1.13,-1.77,-0.56,0.68,-4.33,-2.11,-0.54,-1.29,-0.09,1221.00,2085.00,531.00,662.00,1269.00,1999.00,985.00,1627.00,,,,,,,,,,,,0,0,0,,-1488,15468,2692,-110,195,-266
14.122,13.83,-1.19,-1.35,-1.18,-5.46,-0.82,-2.38,0.63,-1.16,0.67,1253.00,2085.00,491.00,768.00,1197.00,1958.00,943.00,1586.00,,,,,,,,,,,,0,0,0,,-1388,15952,2580,-305,328,-139
14.183,13.88,-1.11,-2.67,0.30,-7.61,3.69,0.35,-1.08,2.09,-2.12,1185.00,2112.00,400.00,741.00,1249.00,1840.00,1034.00,1503.00,,,,,,,,,,,,0,0,0,,-1452,15544,2704,-499,225,-235
14.245,13.94,-1.09,-0.46,-0.68,-0.41,-1.36,-0.68,-1.12,0.27,-0.71,1200.00,1986.00,461.00,638.00,1276.00,1919.00,990.00,1555.00,,,,,,,,,,,,0,0,0,,-1420,15628,2848,-805,89,-357
14.348,13.99,-1.16,-1.27,-1.11,-3.12,-1.76,-2.54,0.93,-1.30,1.42,1247.00,2075.00,495.00,718.00,1181.00,1955.00,908.00,1563.00,,,,,,,,,,,,0,0,0,,-1460,15584,3120,-694,93,-336
14.369,14.05,-1.15,-3.25,1.27,-8.89,4.54,-0.83,0.06,-0.48,-0.17,1136.00,2105.00,391.00,762.00,1200.00,1870.00,975.00,1579.00,,,,,,,,,,,,0,0,0,,-1620,15736,3108,-269,10,-295
14.41,14.10,-1.09,0.44,-2.17,-1.95,-0.96,0.06,-1.75,1.16,-1.54,1280.00,1995.00,464.00,671.00,1302.00,1895.00,1019.00,1535.00,,,,,,,,,,,,0,0,0,,-1648,15572,3152,437,5,-262
14.473,14.16,-1.15,-2.00,-0.65,-1.73,-2.59,-2.42,-0.01,-1.12,0.25,1232.00,2109.00,505.00,695.00,1240.00,1995.00,964.00,1601.00,,,,,,,,,,,,0,0,0,,-1632,15592,2780,551,59,-49
14.554,14.21,-1.18,-2.42,0.37,-7.99,1.72,-1.71,0.34,-0.22,0.08,1175.00,2087.00,448.00,793.00,1201.00,1922.00,957.00,1552.00,,,,,,,,,,,,0,0,0,,-1492,15640,2448,330,178,-86
14.574,14.27,-1.08,-1.19,-0.92,-5.93,2.18,0.83,-2.37,1.91,-2.64,1232.00,2058.00,421.00,722.00,1328.00,1869.00,1067.00,1535.00,,,,,,,,,,,,0,0,0,,-1556,15652,2264,-288,271,-127
14.636,14.32,-1.12,-1.74,-0.52,1.17,-4.77,-1.92,-0.56,-1.38,0.24,1218.00,2081.00,539.00,657.00,1266.00,1985.00,969.00,1618.00,,,,,,,,,,,,0,0,0,,-1548,15632,2504,-995,187,-209
14.678,14.38,-1.17,-1.63,-0.84,-6.24,0.49,-2.04,0.67,-0.57,0.34,1237.00,2090.00,464.00,765.00,1187.00,1930.00,950.00,1563.00,,,,,,,,,,,,0,0,0,,-1596,15456,2972,-760,53,-101
14.741,14.43,-1.09,-2.70,0.09,-5.98,3.14,0.48,-1.06,0.65,-0.78,1199.00,2126.00,400.00,705.00,1245.00,1830.00,987.00,1535.00,,,,,,,,,,,,0,0,0,,-1552,15732,3240,-265,-78,-288
14.803,14.49,-1.06,-0.75,-0.56,0.03,-0.93,-0.49,-0.85,-0.22,-0.30,1199.00,2003.00,447.00,620.00,1253.00,1891.00,977.00,1568.00,,,,,,,,,,,,0,0,0,,-1556,15484,3264,22,44,-93
14.844,14.54,-1.13,-0.75,-1.23,-1.98,-1.69,-2.52,1.53,-0.95,1.14,1243.00,2039.00,483.00,685.00,1143.00,1922.00,916.00,1553.00,,,,,,,,,,,,0,0,0,,-1532,15388,3052,59,148,-10
14.906,14.60,-1.04,-3.25,1.72,-7.55,4.42,0.65,-0.85,1.45,-0.73,1109.00,2080.00,384.00,725.00,1227.00,1807.00,970.00,1485.00,,,,,,,,,,,,0,0,0,,-1444,15636,2732,-124,186,-25
14.968,14.65,-0.97,0.31,-1.40,-0.07,-0.48,0.28,-1.42,0.76,-0.95,1231.00,1965.00,437.00,615.00,1274.00,1862.00,994.00,1535.00,,,,,,,,,,,,0,0,0,,-1448,15712,2860,-344,221,-13
15.051,14.71,-1.03,-1.88,-0.43,-0.77,-2.58,-2.14,0.48,-1.16,0.59,1215.00,2087.00,496.00,669.00,1201.00,1947.00,947.00,1589.00,,,,,,,,,,,,0,0,0,,-1524,15552,3092,-419,67,-120
15.072,14.76,-1.02,-2.17,0.38,-6.91,1.86,-0.86,0.09,0.73,-0.58,1169.00,2066.00,436.00,757.00,1199.00,1871.00,975.00,1522.00,,,,,,,,,,,,0,0,0,,-1360,15720,3168,-367,-15,-109
15.113,14.82,-0.91,-0.53,-1.33,-3.46,0.83,1.20,-2.31,1.49,-2.03,1245.00,2027.00,433.00,679.00,1315.00,1839.00,1040.00,1535.00,,,,,,,,,,,,0,0,0,,-1500,15700,3080,-50,71,-145
15.196,14.87,-0.96,-1.45,-0.65,2.44,-5.44,-1.79,-0.12,-1.39,0.30,1220.00,2064.00,546.00,636.00,1233.00,1952.00,966.00,1616.00,,,,,,,,,,,,0,0,0,,-1532,15652,2916,157,104,-158
15.257,14.93,-0.97,-1.97,-0.37,-5.31,0.70,-1.25,0.34,-0.42,0.38,1213.00,2091.00,451.00,733.00,1191.00,1887.00,945.00,1552.00,,,,,,,,,,,,0,0,0,,-1428,15508,2860,60,81,-100
15.277,14.98,-0.88,-1.96,-0.10,-5.74,3.10,0.77,-1.45,1.36,-1.53,1195.00,2075.00,399.00,699.00,1265.00,1828.00,1015.00,1523.00,,,,,,,,,,,,0,0,0,,-1480,15532,2900,-130,122,-98
15.339,15.04,-0.85,-1.01,-0.41,-0.47,-1.73,-0.17,-0.99,-0.44,-0.19,1195.00,2016.00,471.00,646.00,1255.00,1874.00,975.00,1577.00,,,,,,,,,,,,0,0,0,,-1544,15604,2808,-341,23,-316
15.421,15.09,-0.89,-0.67,-1.12,-1.39,-0.95,-1.74,1.54,-1.38,1.32,1234.00,2027.00,459.00,656.00,1126.00,1863.00,914.00,1572.00,,,,,,,,,,,,0,0,0,,-1624,15448,3088,-268,-26,-126
15.441,15.15,-0.77,-2.58,1.34,-6.79,5.46,1.58,-0.55,1.22,-0.69,1118.00,2046.00,358.00,684.00,1187.00,1728.00,972.00,1497.00,,,,,,,,,,,,0,0,0,,-1460,15556,3188,-267,9,-66
15.504,15.20,-0.69,0.38,-0.96,1.49,-0.27,0.85,-1.10,0.31,-0.96,1200.00,1936.00,420.00,575.00,1239.00,1805.00,1003.00,1563.00,,,,,,,,,,,,0,0,0,,-1496,15576,3152,-70,38,-90
15.566,15.26,-0.72,-1.14,-0.80,0.03,-1.58,-1.38,1.26,-1.74,1.26,1223.00,2047.00,463.00,631.00,1136.00,1851.00,923.00,1597.00,,,,,,,,,,,,0,0,0,,-1384,15728,3028,85,101,5
15.628,15.31,-0.68,-2.27,1.09,-5.40,3.37,0.19,0.37,-0.85,0.26,1127.00,2035.00,391.00,685.00,1158.00,1781.00,959.00,1584.00,,,,,,,,,,,,0,0,0,,-1428,15644,2972,61,137,-102
15.69,15.37,-0.55,-0.89,-0.56,-2.03,2.23,1.84,-1.81,0.75,-1.94,1202.00,2014.00,391.00,618.00,1265.00,1769.00,1049.00,1577.00,,,,,,,,,,,,0,0,0,,-1440,15656,2828,-16,99,-118
15.732,15.42,-0.58,-1.36,-0.36,3.61,-4.17,-1.06,0.41,-2.08,0.35,1199.00,2041.00,499.00,587.00,1182.00,1869.00,976.00,1659.00,,,,,,,,,,,,0,0,0,,-1436,15540,2868,141,27,-148
15.794,15.48,-0.56,-1.36,0.05,-4.82,2.07,-0.32,0.90,-0.72,-0.05,1173.00,2019.00,415.00,693.00,1136.00,1792.00,973.00,1589.00,,,,,,,,,,,,0,0,0,,-1480,15624,2996,65,53,-104
15.836,15.53,-0.43,-1.56,0.10,-3.64,4.25,2.09,-1.50,0.87,-2.13,1174.00,2032.00,361.00,624.00,1238.00,1737.00,1058.00,1578.00,,,,,,,,,,,,0,0,0,,-1472,15576,2992,51,162,-65
15.899,15.59,-0.41,-0.62,-0.44,3.12,-2.42,0.02,-0.23,-1.48,-0.06,1188.00,1986.00,458.00,571.00,1200.00,1822.00,987.00,1638.00,,,,,,,,,,,,0,0,0,,-1392,15840,2772,35,224,-53
15.961,15.64,-0.45,-0.67,-0.71,-0.58,-0.27,-1.21,1.69,-1.65,0.39,1207.00,2005.00,436.00,624.00,1106.00,1817.00,966.00,1629.00,,,,,,,,,,,,0,0,0,,-1444,15728,2836,-66,164,-17
16.023,15.70,-0.34,-2.36,1.24,-5.98,6.80,1.78,-0.30,-0.02,-0.67,1120.00,2034.00,328.00,639.00,1167.00,1703.00,993.00,1571.00,,,,,,,,,,,,0,0,0,,-1384,15556,2868,-22,46,-220
16.064,15.75,-0.25,-0.00,-0.39,4.01,-0.81,1.39,-1.08,-0.46,-0.83,1172.00,1936.00,413.00,528.00,1226.00,1766.00,1010.00,1606.00,,,,,,,,,,,,0,0,0,,-1504,15596,2800,-40,37,-132
16.147,15.81,-0.29,-0.72,-0.60,0.76,-1.34,-1.06,1.68,-2.14,1.12,1201.00,2003.00,451.00,609.00,1104.00,1807.00,937.00,1629.00,,,,,,,,,,,,0,0,0,,-1428,15596,2732,-69,88,-97
16.167,15.86,-0.23,-2.55,1.67,-5.16,4.46,1.00,0.20,0.61,-0.58,1098.00,2026.00,367.00,659.00,1152.00,1733.00,977.00,1529.00,,,,,,,,,,,,0,0,0,,-1412,15640,2852,-71,212,-45
16.228,15.92,-0.11,-0.08,-0.77,-0.55,1.45,2.14,-1.43,0.02,-1.43,1198.00,1962.00,397.00,595.00,1232.00,1730.00,1034.00,1601.00,,,,,,,,,,,,0,0,0,,-1460,15592,2648,-28,194,-95
16.27,15.97,-0.16,-1.17,-0.21,3.76,-3.70,-1.07,0.88,-2.16,0.37,1185.00,2017.00,485.00,576.00,1153.00,1847.00,976.00,1663.00,,,,,,,,,,,,0,0,0,,-1364,15696,2780,-110,174,-43
16.333,16.03,-0.14,-1.73,0.55,-4.93,2.56,0.25,0.77,-0.82,-0.12,1149.00,2021.00,405.00,687.00,1132.00,1758.00,978.00,1598.00,,,,,,,,,,,,0,0,0,,-1304,15652,2736,-98,133,-114
16.395,16.08,-0.01,-1.06,-0.09,-2.60,3.24,2.46,-1.55,0.75,-2.15,1175.00,2002.00,374.00,615.00,1233.00,1714.00,1061.00,1586.00,,,,,,,,,,,,0,0,0,,-1504,15652,2804,-51,139,-133
16.477,16.14,0.01,-0.69,-0.27,4.64,-3.13,0.22,-0.16,-1.91,0.01,1179.00,1983.00,463.00,548.00,1191.00,1804.00,991.00,1663.00,,,,,,,,,,,,0,0,0,,-1436,15688,2836,-37,76,-132
16.518,16.19,-0.04,-0.77,-0.57,-1.53,0.83,-0.84,1.69,-1.79,0.82,1200.00,2005.00,418.00,629.00,1099.00,1791.00,946.00,1619.00,,,,,,,,,,,,0,0,0,,-1428,15744,2716,-137,161,-94
16.539,16.25,0.06,-2.38,1.03,-5.34,5.98,1.96,-0.46,0.02,-0.86,1133.00,2047.00,339.00,637.00,1173.00,1698.00,1003.00,1577.00,,,,,,,,,,,,0,0,0,,-1356,15628,2916,-97,187,-86
16.6,16.30,0.10,-0.11,-0.40,4.14,-1.43,0.83,-0.53,-0.74,-0.79,1175.00,1945.00,426.00,534.00,1202.00,1779.00,1013.00,1622.00,,,,,,,,,,,,0,0,0,,-1308,15624,2688,-27,120,-52
16.661,16.36,0.02,-1.05,-0.63,0.34,-1.32,-1.49,2.01,-1.97,0.73,1210.00,2031.00,454.00,619.00,1093.00,1822.00,954.00,1635.00,,,,,,,,,,,,0,0,0,,-1364,15584,2816,-131,6,-334
16.722,16.41,0.09,-2.75,1.90,-5.05,5.03,1.33,0.04,0.68,-0.83,1088.00,2029.00,355.00,646.00,1155.00,1718.00,989.00,1535.00,,,,,,,,,,,,0,0,0,,-1432,15560,2716,-114,74,-209
16.764,16.47,0.17,0.35,-0.84,0.87,0.84,1.68,-1.27,-0.24,-0.85,1193.00,1932.00,400.00,572.00,1232.00,1755.00,1007.00,1593.00,,,,,,,,,,,,0,0,0,,-1432,15564,2948,-54,76,-194
16.929,16.52,0.11,-1.05,-0.40,2.19,-3.39,-0.90,0.58,-2.15,0.69,1195.00,2018.00,491.00,608.00,1168.00,1849.00,959.00,1648.00,,,,,,,,,,,,0,0,0,,-1484,15560,2900,74,80,-171
16.949,16.58,0.12,-1.79,0.52,-5.36,2.66,0.30,0.55,-0.92,-0.06,1152.00,2027.00,406.00,697.00,1145.00,1765.00,977.00,1602.00,,,,,,,,,,,,0,0,0,,-1456,15708,2820,-49,95,-177
16.971,16.63,0.24,-0.85,-0.19,-2.86,3.63,2.50,-2.02,1.06,-2.50,1177.00,1991.00,368.00,615.00,1264.00,1733.00,1075.00,1581.00,,,,,,,,,,,,0,0,0,,-1388,15604,2768,27,138,-109
16.991,16.69,0.22,-0.86,-0.40,5.02,-4.49,-0.27,0.12,-2.00,0.19,1191.00,2003.00,495.00,560.00,1184.00,1826.00,983.00,1661.00,,,,,,,,,,,,0,0,0,,-1436,15716,2792,-5,160,-166
17.054,16.74,0.18,-1.16,-0.18,-3.08,1.26,-0.52,1.20,-1.88,0.88,1183.00,2015.00,420.00,661.00,1122.00,1792.00,945.00,1623.00,,,,,,,,,,,,0,0,0,,-1376,15740,2904,45,117,-123
17.116,16.80,0.26,-2.01,0.84,-4.66,5.21,1.84,-0.61,0.01,-0.90,1137.00,2028.00,349.00,633.00,1185.00,1713.00,1005.00,1579.00,,,,,,,,,,,,0,0,0,,-1404,15588,2656,27,101,-58
17.179,16.85,0.28,-0.81,0.18,3.16,-1.36,0.62,-0.67,-1.14,-0.55,1153.00,1968.00,432.00,554.00,1216.00,1801.00,1007.00,1637.00,,,,,,,,,,,,0,0,0,,-1428,15748,2792,-79,125,-88
17.26,16.91,0.21,-1.09,-0.46,-0.78,-0.16,-1.11,1.43,-2.22,0.91,1200.00,2025.00,435.00,627.00,1120.00,1823.00,949.00,1643.00,,,,,,,,,,,,0,0,0,,-1404,15812,2664,-81,163,-90
17.28,16.96,0.24,-3.21,1.85,-6.99,6.59,0.80,0.03,-0.04,-0.86,1100.00,2069.00,338.00,669.00,1167.00,1755.00,1004.00,1581.00,,,,,,,,,,,,0,0,0,,-1468,15632,2552,-35,184,18
17.321,17.02,0.27,0.25,-0.82,1.70,-0.65,0.86,-1.00,-1.01,-0.85,1194.00,1939.00,427.00,576.00,1232.00,1799.00,1021.00,1642.00,,,,,,,,,,,,0,0,0,,-1488,15628,2656,-181,87,-257
17.381,17.07,0.21,-1.45,-0.34,2.14,-2.77,-1.02,0.62,-2.18,0.49,1200.00,2047.00,475.00,599.00,1168.00,1856.00,970.00,1659.00,,,,,,,,,,,,0,0,0,,-1420,15520,2696,-200,192,-56
17.441,17.13,0.19,-2.32,0.82,-5.67,2.00,-0.11,0.25,0.18,-1.28,1145.00,2054.00,423.00,718.00,1172.00,1808.00,1023.00,1585.00,,,,,,,,,,,,0,0,0,,-1348,15764,2908,-46,169,-189
17.503,17.18,0.28,-0.74,-0.77,-2.78,2.20,1.92,-2.26,0.52,-1.93,1212.00,2013.00,397.00,637.00,1294.00,1785.00,1053.00,1591.00,,,,,,,,,,,,0,0,0,,-1332,15716,2600,-12,158,-8
17.543,17.24,0.22,-1.37,-0.37,3.24,-4.19,-0.95,0.10,-2.44,0.43,1200.00,2042.00,503.00,596.00,1200.00,1877.00,978.00,1679.00,,,,,,,,,,,,0,0,0,,-1320,15540,2560,34,100,-349
17.625,17.29,0.16,-1.80,-0.15,-5.01,0.93,-0.80,0.64,-1.21,0.57,1195.00,2065.00,443.00,720.00,1162.00,1839.00,949.00,1593.00,,,,,,,,,,,,0,0,0,,-1356,15768,2432,-163,28,-399
17.646,17.35,0.23,-2.07,0.27,-4.72,3.91,1.46,-1.27,0.49,-1.60,1174.00,2064.00,375.00,657.00,1237.00,1770.00,1035.00,1579.00,,,,,,,,,,,,0,0,0,,-1592,15508,2740,-286,-46,-337
17.707,17.40,0.22,-1.34,-0.10,2.35,-1.67,-0.04,-0.65,-0.87,-0.44,1182.00,2025.00,446.00,577.00,1229.00,1847.00,996.00,1615.00,,,,,,,,,,,,0,0,0,,-1596,15652,2872,-261,16,-311
17.749,17.46,0.11,-1.30,-1.00,-1.87,-1.02,-1.80,1.41,-1.98,0.69,1240.00,2071.00,465.00,670.00,1135.00,1874.00,956.00,1637.00,,,,,,,,,,,,0,0,0,,-1704,15628,2776,-149,203,-72
17.809,17.51,0.18,-3.26,1.28,-6.62,4.95,1.49,-1.06,0.05,-1.08,1136.00,2106.00,367.00,689.00,1222.00,1758.00,1014.00,1584.00,,,,,,,,,,,,0,0,0,,-1572,15612,2892,-223,240,44
17.871,17.57,0.20,-0.40,-1.08,1.47,-1.34,0.48,-1.37,-0.85,-1.24,1225.00,2003.00,445.00,592.00,1266.00,1845.00,1040.00,1649.00,,,,,,,,,,,,0,0,0,,-1488,15680,2664,-159,249,124
17.932,17.62,0.09,-2.00,-0.78,-0.05,-3.09,-1.89,0.92,-2.25,0.69,1241.00,2117.00,503.00,659.00,1168.00,1906.00,961.00,1655.00,,,,,,,,,,,,0,0,0,,-1436,15728,2740,-135,186,-195
17.995,17.68,0.08,-2.87,0.74,-7.15,2.77,-0.17,-0.38,-0.46,-0.76,1161.00,2103.00,417.00,746.00,1214.00,1843.00,1006.00,1603.00,,,,,,,,,,,,0,0,0,,-1504,15640,2876,-182,168,-113
18.036,17.73,0.14,-0.83,-1.22,-3.94,1.20,1.26,-2.22,0.27,-1.64,1244.00,2045.00,428.00,685.00,1307.00,1830.00,1041.00,1594.00,,,,,,,,,,,,0,0,0,,-1504,15612,2696,-217,35,-162
18.097,17.79,0.04,-2.02,-0.67,1.78,-5.05,-1.79,-0.03,-2.34,0.41,1234.00,2112.00,541.00,646.00,1227.00,1947.00,977.00,1673.00,,,,,,,,,,,,0,0,0,,-1552,15416,2904,-216,98,-60
18.139,17.84,-0.01,-2.30,-0.21,-6.47,1.21,-1.11,0.43,-0.86,-0.21,1210.00,2110.00,448.00,757.00,1182.00,1872.00,984.00,1605.00,,,,,,,,,,,,0,0,0,,-1392,15744,2920,-159,218,-46
18.243,17.90,0.06,-2.30,-0.41,-5.31,2.68,1.40,-2.11,0.48,-2.07,1223.00,2121.00,405.00,695.00,1296.00,1815.00,1062.00,1600.00,,,,,,,,,,,,0,0,0,,-1284,15648,2768,-190,238,39
18.263,17.95,-0.00,-1.83,-0.72,0.62,-3.16,-1.11,-0.50,-1.67,-0.37,1233.00,2099.00,499.00,643.00,1243.00,1919.00,1007.00,1664.00,,,,,,,,,,,,0,0,0,,-1384,15692,2696,-142,139,31
18.304,18.01,-0.11,-1.49,-0.98,-3.88,-0.74,-2.07,1.01,-1.85,0.59,1243.00,2086.00,475.00,720.00,1166.00,1915.00,959.00,1633.00,,,,,,,,,,,,0,0,0,,-1476,15780,2872,-72,161,-35
18.386,18.06,-0.08,-3.17,0.55,-7.21,4.07,0.40,-0.94,0.40,-1.36,1180.00,2140.00,389.00,722.00,1239.00,1830.00,1023.00,1574.00,,,,,,,,,,,,0,0,0,,-1448,15620,2812,-33,213,-77
18.427,18.12,-0.09,-0.86,-1.03,-0.40,-1.08,-0.36,-1.36,-1.04,-1.14,1232.00,2037.00,454.00,633.00,1285.00,1907.00,1038.00,1657.00,,,,,,,,,,,,0,0,0,,-1408,15668,2904,-167,135,-83
18.468,18.17,-0.22,-2.27,-1.03,-2.79,-2.35,-2.54,1.04,-2.28,0.54,1264.00,2154.00,508.00,720.00,1174.00,1949.00,969.00,1663.00,,,,,,,,,,,,0,0,0,,-1396,15752,2776,-96,106,-49
18.55,18.23,-0.22,-3.56,1.17,-7.62,3.06,-0.25,-0.87,-0.39,-0.82,1149.00,2137.00,414.00,754.00,1249.00,1874.00,1008.00,1601.00,,,,,,,,,,,,0,0,0,,-1512,15788,2948,-72,191,-16
18.591,18.28,-0.19,-0.97,-1.48,-3.28,0.02,0.31,-1.96,-0.23,-1.45,1265.00,2071.00,451.00,689.00,1311.00,1887.00,1040.00,1618.00,,,,,,,,,,,,0,0,0,,-1376,15640,2832,-74,152,-127
18.632,18.34,-0.29,-2.11,-0.82,-0.08,-4.32,-2.11,-0.16,-2.71,0.67,1246.00,2128.00,538.00,682.00,1243.00,1979.00,970.00,1686.00,,,,,,,,,,,,0,0,0,,-1344,15712,2848,-76,75,-65
18.735,18.39,-0.34,-2.59,0.18,-7.31,1.29,-1.30,0.27,-0.85,0.03,1191.00,2112.00,453.00,781.00,1197.00,1895.00,971.00,1594.00,,,,,,,,,,,,0,0,0,,-1228,15660,2800,-53,92,-7
18.755,18.45,-0.27,-1.81,-0.44,-5.14,2.22,0.97,-2.00,1.07,-2.36,1214.00,2082.00,414.00,699.00,1298.00,1840.00,1067.00,1575.00,,,,,,,,,,,,0,0,0,,-1340,15832,2816,-8,198,-36
18.795,18.50,-0.33,-1.42,-0.87,0.98,-4.33,-1.46,-0.62,-1.82,0.26,1234.00,2074.00,528.00,654.00,1259.00,1952.00,976.00,1646.00,,,,,,,,,,,,0,0,0,,-1244,15768,2676,29,163,-208
18.856,18.56,-0.41,-1.35,-0.86,-4.82,-0.27,-1.95,0.82,-1.56,0.89,1232.00,2068.00,471.00,738.00,1175.00,1915.00,939.00,1602.00,,,,,,,,,,,,0,0,0,,-1368,15692,2764,-96,52,-103
18.92,18.61,-0.36,-2.58,0.42,-6.29,3.29,0.75,-1.20,0.28,-0.69,1175.00,2097.00,399.00,711.00,1248.00,1817.00,989.00,1554.00,,,,,,,,,,,,0,0,0,,-1356,15724,2800,-54,25,-179
18.959,18.67,-0.36,-0.70,-0.76,0.85,-1.90,-0.53,-1.06,-0.85,-0.35,1211.00,2010.00,464.00,616.00,1268.00,1904.00,991.00,1610.00,,,,,,,,,,,,0,0,0,,-1408,15672,2632,-47,175,-131
19.042,18.72,-0.47,-1.65,-0.93,-1.86,-2.40,-2.52,1.14,-2.12,1.15,1243.00,2096.00,501.00,695.00,1167.00,1942.00,935.00,1626.00,,,,,,,,,,,,0,0,0,,-1368,15544,2712,-142,113,-147
19.103,18.78,-0.43,-3.43,1.42,-7.93,4.22,0.33,-1.02,0.31,-0.74,1131.00,2112.00,391.00,740.00,1246.00,1839.00,991.00,1554.00,,,,,,,,,,,,0,0,0,,-1372,15636,2884,-211,135,-31
19.164,18.83,-0.40,-0.49,-1.17,-1.70,-0.60,0.29,-1.91,-0.36,-0.96,1233.00,2015.00,453.00,658.00,1308.00,1886.00,1015.00,1605.00,,,,,,,,,,,,0,0,0,,-1292,15640,2780,-237,180,-18
19.186,18.89,-0.48,-2.45,-0.40,0.39,-4.85,-2.15,0.12,-1.80,0.06,1226.00,2133.00,549.00,679.00,1225.00,1967.00,986.00,1653.00,,,,,,,,,,,,0,0,0,,-1300,15756,2844,-183,109,-218
19.246,18.94,-0.49,-2.47,0.20,-7.43,1.66,-0.72,-0.21,-0.55,-0.19,1187.00,2101.00,445.00,777.00,1215.00,1875.00,977.00,1584.00,,,,,,,,,,,,0,0,0,,-1352,15608,2944,-173,47,-138
19.308,19.00,-0.41,-1.23,-0.84,-3.11,0.75,1.22,-2.23,0.94,-1.93,1228.00,2057.00,432.00,671.00,1309.00,1834.00,1045.00,1565.00,,,,,,,,,,,,0,0,0,,-1360,15684,2840,-103,53,-67
19.349,19.05,-0.46,-1.38,-0.72,2.21,-4.74,-1.41,-0.27,-1.74,0.35,1223.00,2062.00,528.00,630.00,1235.00,1931.00,970.00,1637.00,,,,,,,,,,,,0,0,0,,-1372,15664,2924,-74,200,-100
19.412,19.11,-0.52,-1.62,-0.59,-5.85,0.60,-1.67,0.75,-0.70,0.24,1220.00,2075.00,458.00,751.00,1174.00,1898.00,957.00,1575.00,,,,,,,,,,,,0,0,0,,-1300,15736,2856,17,188,-124
19.474,19.16,-0.45,-2.34,0.22,-6.51,3.98,0.98,-1.49,1.07,-1.40,1183.00,2089.00,386.00,704.00,1263.00,1815.00,1013.00,1535.00,,,,,,,,,,,,0,0,0,,-1236,15516,2788,-65,130,-16
19.557,19.22,-0.43,-1.28,-0.25,0.62,-1.74,-0.12,-1.07,-0.53,-0.38,1190.00,2028.00,462.00,619.00,1259.00,1874.00,987.00,1591.00,,,,,,,,,,,,0,0,0,,-1260,15652,2788,-67,65,-125
19.577,19.27,-0.52,-1.33,-0.84,-3.54,-1.09,-2.30,1.31,-1.62,0.91,1230.00,2065.00,481.00,717.00,1152.00,1917.00,939.00,1605.00,,,,,,,,,,,,0,0,0,,-1284,15828,2656,-91,153,-167
19.619,19.33,-0.47,-3.17,1.25,-7.25,4.08,0.56,-0.88,0.58,-0.68,1136.00,2100.00,389.00,723.00,1231.00,1815.00,983.00,1535.00,,,,,,,,,,,,0,0,0,,-1380,15632,2728,-85,86,-156
19.68,19.38,-0.44,0.00,-1.32,-0.34,-1.34,0.11,-1.66,0.03,-1.07,1232.00,1984.00,460.00,636.00,1295.00,1887.00,1014.00,1585.00,,,,,,,,,,,,0,0,0,,-1192,15692,2804,-172,72,-120
19.743,19.44,-0.53,-1.65,-0.86,-0.95,-3.04,-2.33,0.58,-1.98,0.93,1239.00,2093.00,510.00,682.00,1199.00,1957.00,944.00,1627.00,,,,,,,,,,,,0,0,0,,-1248,15716,2652,-223,94,-212
19.845,19.49,-0.54,-2.57,0.52,-6.80,1.41,-0.62,-0.35,-0.53,-0.21,1169.00,2091.00,446.00,763.00,1222.00,1875.00,978.00,1584.00,,,,,,,,,,,,0,0,0,,-1108,15972,2676,-293,73,-304
19.866,19.55,-0.46,-1.08,-0.88,-4.07,1.29,1.05,-2.38,0.90,-1.92,1227.00,2047.00,427.00,687.00,1323.00,1853.00,1045.00,1567.00,,,,,,,,,,,,0,0,0,,-1184,15616,2712,-381,-106,-411
19.907,19.60,-0.53,-1.54,-0.77,1.45,-4.73,-1.92,0.04,0.52,-0.32,1230.00,2078.00,535.00,649.00,1225.00,1953.00,965.00,1524.00,,,,,,,,,,,,0,0,0,,-1376,15692,2804,-372,-225,-464
19.948,19.66,-0.55,-1.87,-0.20,-6.38,1.43,-0.82,0.30,-0.62,0.28,1200.00,2074.00,442.00,750.00,1184.00,1857.00,954.00,1569.00,,,,,,,,,,,,0,0,0,,-1396,15788,3280,-69,-60,-395
20.009,19.71,-0.45,-1.77,-0.14,-5.38,3.17,1.30,-1.72,1.49,-2.03,1194.00,2062.00,395.00,688.00,1271.00,1803.00,1040.00,1535.00,,,,,,,,,,,,0,0,0,,-1420,15628,3028,290,96,-279
20.07,19.77,-0.46,-1.00,-0.71,0.89,-2.50,-0.51,-0.54,-0.79,-0.18,1214.00,2031.00,479.00,625.00,1232.00,1876.00,981.00,1599.00,,,,,,,,,,,,0,0,0,,-1412,15460,2740,295,138,-251
20.13,19.82,-0.52,-0.76,-1.14,-2.71,-0.82,-1.65,0.91,-1.39,0.73,1237.00,2035.00,467.00,689.00,1163.00,1888.00,944.00,1598.00,,,,,,,,,,,,0,0,0,,-1404,15564,2648,76,102,-120
20.192,19.88,-0.44,-2.83,0.97,-6.92,4.75,1.00,-0.91,1.23,-1.05,1146.00,2087.00,373.00,701.00,1223.00,1785.00,991.00,1511.00,,,,,,,,,,,,0,0,0,,-1376,15620,2664,-155,68,-186
20.253,19.93,-0.41,-0.28,-1.03,1.55,-2.13,0.14,-1.39,-0.30,-0.55,1219.00,1991.00,464.00,603.00,1275.00,1871.00,992.00,1584.00,,,,,,,,,,,,0,0,0,,-1496,15596,2620,-340,136,-215
20.315,19.99,-0.49,-1.59,-0.68,-0.50,-3.66,-2.07,0.93,-1.83,1.08,1225.00,2077.00,523.00,681.00,1171.00,1919.00,934.00,1611.00,,,,,,,,,,,,0,0,0,,-1516,15596,2820,-277,239,-117
20.336,20.04,-0.48,-3.36,1.52,-7.85,3.49,-0.17,-0.62,0.58,-0.68,1123.00,2100.00,406.00,752.00,1230.00,1855.00,983.00,1535.00,,,,,,,,,,,,0,0,0,,-1488,15884,2928,-68,259,-109
20.398,20.10,-0.43,-0.77,-1.34,-2.85,0.04,0.41,-1.76,0.12,-1.24,1251.00,2047.00,447.00,677.00,1295.00,1870.00,1022.00,1587.00,,,,,,,,,,,,0,0,0,,-1568,15608,2864,-17,212,24
20.461,20.15,-0.51,-1.95,-0.58,0.38,-4.33,-1.92,0.11,-1.93,0.35,1227.00,2102.00,534.00,670.00,1221.00,1950.00,973.00,1649.00,,,,,,,,,,,,0,0,0,,-1424,15780,2620,13,199,27
20.523,20.21,-0.53,-2.01,-0.14,-6.60,1.01,-0.89,0.33,0.28,-0.24,1199.00,2082.00,454.00,765.00,1184.00,1861.00,965.00,1535.00,,,,,,,,,,,,0,0,0,,-1424,15400,2756,-133,276,143
20.567,20.26,-0.43,-1.44,-0.67,-5.03,2.82,1.40,-2.11,2.07,-2.56,1221.00,2064.00,400.00,685.00,1296.00,1815.00,1059.00,1522.00,,,,,,,,,,,,0,0,0,,-1324,15796,2712,-397,196,-62
20.63,20.32,-0.46,-1.20,-0.67,1.51,-3.35,-1.00,-0.34,-1.32,0.09,1216.00,2045.00,496.00,624.00,1230.00,1903.00,976.00,1621.00,,,,,,,,,,,,0,0,0,,-1204,15820,2812,-525,167,165
20.671,20.37,-0.53,-1.04,-0.91,-4.13,-0.26,-1.80,1.16,-1.19,0.53,1228.00,2045.00,465.00,718.00,1151.00,1887.00,951.00,1594.00,,,,,,,,,,,,0,0,0,,-1252,15592,3176,-385,116,-91
20.733,20.43,-0.45,-2.44,0.49,-5.93,3.12,0.96,-1.03,0.65,-0.78,1168.00,2082.00,400.00,704.00,1232.00,1794.00,987.00,1535.00,,,,,,,,,,,,0,0,0,,-1332,15704,2840,-166,100,-105
20.795,20.48,-0.44,-0.29,-0.90,0.92,-1.88,-0.21,-0.80,-0.04,-0.93,1211.00,1985.00,463.00,614.00,1243.00,1867.00,1008.00,1584.00,,,,,,,,,,,,0,0,0,,-1552,15588,3024,91,-50,3
20.857,20.54,-0.55,-1.24,-0.99,-2.44,-1.38,-2.58,1.37,-1.58,1.19,1238.00,2066.00,479.00,692.00,1154.00,1935.00,924.00,1590.00,,,,,,,,,,,,0,0,0,,-1376,15692,3172,316,-135,-9
20.958,20.59,-0.52,-3.19,1.60,-7.89,4.11,-0.01,-0.49,0.77,-0.75,1115.00,2082.00,393.00,741.00,1218.00,1837.00,983.00,1526.00,,,,,,,,,,,,0,0,0,,-1396,15760,2844,1348,-403,123
20.978,20.65,-0.48,-0.30,-0.93,-1.53,-0.74,0.36,-1.73,0.24,-1.52,1213.00,1987.00,455.00,656.00,1294.00,1872.00,1035.00,1591.00,,,,,,,,,,,,0,0,0,,-1260,16004,2932,1459,-156,223
21.018,20.70,-0.55,-1.74,-0.38,-0.58,-3.80,-2.02,0.13,-1.78,0.15,1209.00,2073.00,528.00,686.00,1222.00,1957.00,981.00,1648.00,,,,,,,,,,,,0,0,0,,-1236,15388,2432,1734,627,294
21.079,20.76,-0.57,-2.39,0.50,-7.65,1.65,-0.86,0.07,-0.14,-0.63,1166.00,2077.00,447.00,784.00,1200.00,1872.00,993.00,1577.00,,,,,,,,,,,,0,0,0,,-1092,15852,1936,1107,945,44
21.16,20.81,-0.48,-1.42,-0.21,-3.65,1.32,1.16,-2.08,1.30,-2.30,1191.00,2038.00,423.00,675.00,1299.00,1830.00,1059.00,1558.00,,,,,,,,,,,,0,0,0,,-1136,15824,1484,293,580,-19
21.181,20.87,-0.55,-0.32,-1.57,4.31,-5.52,-1.73,-0.02,-2.19,0.55,1256.00,2023.00,530.00,592.00,1225.00,1942.00,967.00,1657.00,,,,,,,,,,,,0,0,0,,-1100,15788,1196,-655,53,44
21.242,20.92,-0.59,-1.73,0.23,-5.55,0.70,-1.50,0.69,-0.70,0.24,1169.00,2038.00,453.00,740.00,1174.00,1888.00,957.00,1575.00,,,,,,,,,,,,0,0,0,,-900,15424,1588,-2402,-334,494
21.304,20.98,-0.53,-2.04,0.64,-4.25,1.18,0.76,-1.05,0.64,-1.33,1150.00,2041.00,431.00,694.00,1238.00,1809.00,1017.00,1558.00,,,,,,,,,,,,0,0,0,,-684,15824,2364,-3873,-621,73
21.345,21.03,-0.51,-1.06,0.20,0.95,-1.93,-0.23,-0.94,-0.81,-0.25,1157.00,1987.00,464.00,614.00,1253.00,1876.00,985.00,1603.00,,,,,,,,,,,,0,0,0,,-720,16048,3364,-2822,-943,-512
21.406,21.09,-0.59,-0.87,-0.92,-2.64,-1.20,-2.07,1.21,-2.12,1.01,1225.00,2032.00,476.00,694.00,1153.00,1904.00,942.00,1632.00,,,,,,,,,,,,0,0,0,,-1292,15572,3888,-678,-920,-1251
21.448,21.14,-0.51,-2.55,1.28,-8.28,5.76,0.95,-0.94,0.15,-0.80,1121.00,2047.00,362.00,720.00,1226.00,1790.00,997.00,1566.00,,,,,,,,,,,,0,0,0,,-1548,15220,4024,152,-157,-460
21.509,21.20,-0.48,-0.16,-0.78,-0.11,-0.97,0.19,-1.24,-0.39,-1.31,1200.00,1968.00,449.00,624.00,1264.00,1860.00,1035.00,1622.00,,,,,,,,,,,,0,0,0,,-1364,15100,3260,451,788,648
21.549,21.25,-0.56,-1.54,-0.40,-0.53,-3.21,-2.22,0.68,-2.26,0.65,1206.00,2058.00,511.00,674.00,1190.00,1943.00,963.00,1657.00,,,,,,,,,,,,0,0,0,,-1144,15528,2892,145,818,776
21.611,21.31,-0.59,-2.49,1.02,-7.49,2.23,-1.05,0.07,-0.55,-0.58,1136.00,2057.00,432.00,767.00,1204.00,1886.00,998.00,1601.00,,,,,,,,,,,,0,0,0,,-492,16228,2848,-459,761,847
21.673,21.36,-0.51,-0.76,-0.51,-3.99,1.01,0.92,-2.12,0.74,-2.16,1196.00,2001.00,433.00,690.00,1308.00,1850.00,1062.00,1587.00,,,,,,,,,,,,0,0,0,,-500,16000,2608,-1453,314,-156
21.736,21.42,-0.58,-0.89,-0.61,1.79,-4.43,-1.79,0.17,-2.63,0.78,1205.00,2017.00,523.00,635.00,1214.00,1937.00,963.00,1676.00,,,,,,,,,,,,0,0,0,,-608,15592,3140,-2272,-592,-931
21.777,21.47,-0.61,-1.88,0.30,-5.98,1.09,-1.32,0.87,-1.27,0.13,1168.00,2047.00,447.00,745.00,1159.00,1866.00,973.00,1616.00,,,,,,,,,,,,0,0,0,,-1048,15624,4156,-1438,-694,-1162
21.839,21.53,-0.50,-1.85,0.31,-5.23,2.89,1.59,-1.96,0.91,-2.20,1167.00,2044.00,400.00,689.00,1281.00,1794.00,1061.00,1578.00,,,,,,,,,,,,0,0,0,,-1296,15436,4268,357,-74,-699
21.9,21.58,-0.50,-0.88,-0.15,1.67,-2.37,-0.44,-0.56,-1.02,-0.61,1175.00,1991.00,469.00,604.00,1232.00,1872.00,1008.00,1632.00,,,,,,,,,,,,0,0,0,,-1208,15480,3716,936,271,-594
21.961,21.64,-0.57,-0.80,-0.67,0.76,-5.34,-1.94,1.28,-1.65,0.72,1207.00,2013.00,560.00,678.00,1146.00,1891.00,949.00,1615.00,,,,,,,,,,,,0,0,0,,-1252,15508,3276,748,398,-428
22.023,21.69,-0.51,-2.50,1.30,-7.45,5.63,0.69,-0.74,1.00,-1.30,1119.00,2042.00,359.00,699.00,1219.00,1799.00,1009.00,1535.00,,,,,,,,,,,,0,0,0,,-1160,15524,3180,-129,166,-569
22.043,21.75,-0.48,-0.02,-0.72,1.18,-1.28,0.09,-1.08,-0.55,-0.93,1193.00,1954.00,446.00,598.00,1255.00,1859.00,1017.00,1616.00,,,,,,,,,,,,0,0,0,,-1392,15420,3304,-252,77,-390
22.105,21.80,-0.57,-1.39,-0.58,-1.21,-2.44,-2.28,0.97,-2.50,1.10,1214.00,2055.00,496.00,678.00,1173.00,1933.00,944.00,1653.00,,,,,,,,,,,,0,0,0,,-1332,15256,3588,-576,65,-130
22.187,21.86,-0.57,-3.17,1.66,-6.88,2.76,-0.52,-0.12,-0.62,-0.65,1111.00,2077.00,415.00,738.00,1205.00,1856.00,1003.00,1608.00,,,,,,,,,,,,0,0,0,,-1304,15440,3760,-50,154,-60
22.228,21.91,-0.49,-0.89,-0.61,-3.36,1.01,0.87,-1.75,-0.14,-1.59,1205.00,2017.00,428.00,673.00,1283.00,1835.00,1046.00,1618.00,,,,,,,,,,,,0,0,0,,-1268,15404,3652,-287,235,-346
22.29,21.97,-0.56,-1.50,-0.46,1.03,-4.35,-1.78,0.15,-2.27,0.32,1209.00,2058.00,528.00,653.00,1215.00,1937.00,981.00,1673.00,,,,,,,,,,,,0,0,0,,-1536,15284,3796,69,378,-53
22.33,22.02,-0.57,-2.01,0.36,-6.33,1.75,-0.84,0.56,-0.96,0.16,1167.00,2054.00,434.00,742.00,1168.00,1846.00,966.00,1595.00,,,,,,,,,,,,0,0,0,,-1284,15572,3368,237,377,79
22.413,22.08,-0.46,-1.35,-0.21,-3.78,1.63,1.70,-2.08,0.99,-2.05,1189.00,2032.00,417.00,673.00,1287.00,1792.00,1051.00,1567.00,,,,,,,,,,,,0,0,0,,-1308,15392,3356,13,164,-83
22.433,22.13,-0.48,-1.01,-0.40,2.09,-3.55,-0.84,-0.44,-1.45,-0.41,1194.00,2015.00,496.00,613.00,1233.00,1896.00,1005.00,1651.00,,,,,,,,,,,,0,0,0,,-1396,15556,3376,-141,14,-193
22.516,22.19,-0.54,-1.32,-0.52,-3.70,-0.01,-1.70,1.27,-1.70,0.58,1209.00,2047.00,455.00,701.00,1142.00,1874.00,957.00,1624.00,,,,,,,,,,,,0,0,0,,-1424,15396,3496,-158,62,-61
22.557,22.24,-0.45,-2.68,0.78,-7.19,5.09,1.23,-1.07,0.23,-1.03,1155.00,2086.00,368.00,702.00,1229.00,1777.00,1008.00,1571.00,,,,,,,,,,,,0,0,0,,-1352,15588,3716,107,173,-39
22.619,22.30,-0.42,-0.21,-0.76,1.30,-1.77,0.11,-0.85,-1.06,-0.70,1200.00,1971.00,457.00,603.00,1239.00,1846.00,1014.00,1639.00,,,,,,,,,,,,0,0,0,,-1328,15448,3420,161,117,-40
22.681,22.35,-0.50,-1.31,-0.92,-1.84,-1.89,-2.04,1.17,-2.50,1.10,1235.00,2068.00,487.00,685.00,1155.00,1904.00,944.00,1653.00,,,,,,,,,,,,0,0,0,,-1196,15460,3304,220,205,52
22.702,22.41,-0.46,-3.43,1.83,-7.05,3.78,0.45,-0.51,-0.23,-0.87,1106.00,2089.00,394.00,723.00,1209.00,1805.00,1008.00,1593.00,,,,,,,,,,,,0,0,0,,-1320,15464,3316,-57,125,45
22.765,22.46,-0.40,-0.40,-1.02,-1.76,-0.16,0.72,-1.74,-0.49,-1.59,1221.00,2000.00,443.00,652.00,1286.00,1846.00,1053.00,1641.00,,,,,,,,,,,,0,0,0,,-1120,15788,3268,-20,136,7
22.827,22.52,-0.46,-1.94,-0.38,0.37,-3.48,-1.68,0.24,-2.34,0.40,1213.00,2089.00,510.00,655.00,1207.00,1925.00,978.00,1674.00,,,,,,,,,,,,0,0,0,,-1252,15420,3356,-179,97,-25
22.867,22.57,-0.46,-2.15,0.39,-6.68,1.57,-0.39,0.02,-0.68,-0.37,1168.00,2064.00,441.00,756.00,1193.00,1840.00,989.00,1600.00,,,,,,,,,,,,0,0,0,,-1172,15504,3336,-84,134,-30
22.929,22.63,-0.35,-0.92,-0.57,-3.20,1.39,1.80,-2.19,0.58,-2.09,1203.00,2017.00,418.00,662.00,1292.00,1790.00,1061.00,1594.00,,,,,,,,,,,,0,0,0,,-1212,15692,3288,-4,221,44
22.992,22.68,-0.38,-1.12,-0.53,2.52,-4.85,-1.11,-0.20,-2.28,0.28,1205.00,2031.00,528.00,624.00,1223.00,1904.00,983.00,1675.00,,,,,,,,,,,,0,0,0,,-1068,15520,3300,121,187,15
23.033,22.74,-0.44,-1.43,-0.36,-4.96,0.74,-1.48,1.26,-1.41,0.54,1201.00,2047.00,447.00,722.00,1138.00,1858.00,954.00,1607.00,,,,,,,,,,,,0,0,0,,-1244,15600,3100,114,106,-129
23.136,22.79,-0.35,-2.15,0.55,-6.00,4.14,1.29,-1.14,0.22,-0.99,1158.00,2055.00,379.00,687.00,1232.00,1776.00,1006.00,1570.00,,,,,,,,,,,,0,0,0,,-1148,15548,3220,69,85,-111
23.156,22.85,-0.33,-1.17,0.41,1.56,-1.53,0.08,-0.99,-0.87,-0.53,1146.00,1984.00,449.00,593.00,1249.00,1855.00,1001.00,1619.00,,,,,,,,,,,,0,0,0,,-1140,15628,3296,143,102,-243
23.24,22.90,-0.42,-1.26,-0.42,-2.32,-1.07,-2.16,1.47,-1.77,0.94,1201.00,2036.00,470.00,683.00,1139.00,1898.00,940.00,1613.00,,,,,,,,,,,,0,0,0,,-1088,15712,3348,40,16,-192
23.26,22.96,-0.37,-3.24,1.88,-8.47,5.52,0.69,-0.74,0.22,-0.97,1099.00,2070.00,368.00,730.00,1219.00,1799.00,1005.00,1569.00,,,,,,,,,,,,0,0,0,,-1192,15560,3200,92,74,-178
23.322,23.01,-0.38,-0.11,-0.82,-0.15,-0.79,-0.54,-0.31,-0.60,-0.86,1202.00,1967.00,445.00,622.00,1218.00,1867.00,1014.00,1616.00,,,,,,,,,,,,0,0,0,,-1172,15592,3072,-23,151,-154
23.363,23.07,-0.45,-1.55,-0.54,-0.48,-3.23,-1.87,0.29,-2.16,0.49,1215.00,2066.00,511.00,673.00,1208.00,1937.00,970.00,1658.00,,,,,,,,,,,,0,0,0,,-1172,15600,3368,-31,277,12
23.425,23.12,-0.46,-2.30,0.67,-5.91,0.98,-0.60,-0.07,-0.59,-0.44,1154.00,2061.00,449.00,745.00,1203.00,1859.00,991.00,1597.00,,,,,,,,,,,,0,0,0,,-1264,15564,3160,-77,177,-300
23.548,23.18,-0.38,-1.09,-0.43,-3.55,1.29,1.13,-2.01,0.77,-2.40,1198.00,2023.00,423.00,673.00,1295.00,1829.00,1075.00,1595.00,,,,,,,,,,,,0,0,0,,-1192,15592,3100,-74,131,-170
23.568,23.23,-0.43,-1.15,-0.70,2.11,-4.95,-1.49,-0.16,-1.65,0.18,1217.00,2043.00,535.00,636.00,1229.00,1931.00,977.00,1638.00,,,,,,,,,,,,0,0,0,,-1212,15508,3228,0,56,-131
23.61,23.29,-0.47,-2.01,0.23,-6.55,1.53,-1.20,0.75,-0.90,0.25,1175.00,2061.00,441.00,753.00,1164.00,1863.00,960.00,1587.00,,,,,,,,,,,,0,0,0,,-1224,15728,3148,29,203,-139
23.652,23.34,-0.39,-1.50,-0.37,-5.32,3.24,1.21,-1.59,0.14,-1.57,1203.00,2053.00,393.00,685.00,1264.00,1803.00,1040.00,1600.00,,,,,,,,,,,,0,0,0,,-1308,15664,3012,74,205,-255
23.715,23.40,-0.39,-1.01,-0.60,1.89,-2.95,-0.42,-0.56,-0.84,-0.39,1207.00,2026.00,482.00,608.00,1232.00,1871.00,993.00,1611.00,,,,,,,,,,,,0,0,0,,-1300,15604,2944,-20,80,-168
23.777,23.45,-0.46,-1.05,-0.68,-2.52,-1.00,-1.78,0.99,-1.09,0.61,1213.00,2033.00,470.00,687.00,1161.00,1894.00,945.00,1584.00,,,,,,,,,,,,0,0,0,,-1328,15700,3004,-137,13,-196
23.798,23.51,-0.39,-3.00,1.40,-7.74,5.32,0.92,-0.97,1.11,-1.12,1123.00,2077.00,367.00,713.00,1229.00,1794.00,997.00,1521.00,,,,,,,,,,,,0,0,0,,-1276,15464,3044,-89,95,-218
23.88,23.56,-0.37,-0.19,-0.77,0.51,-1.34,0.12,-1.22,-0.28,-1.06,1200.00,1970.00,453.00,615.00,1264.00,1864.00,1019.00,1604.00,,,,,,,,,,,,0,0,0,,-1268,15576,2908,-107,127,-139
23.941,23.62,-0.46,-1.81,-0.44,-1.58,-2.39,-2.19,0.97,-2.14,1.02,1214.00,2082.00,498.00,687.00,1171.00,1926.00,942.00,1633.00,,,,,,,,,,,,0,0,0,,-1240,15620,3080,-126,139,-148
23.982,23.67,-0.46,-3.15,1.47,-7.38,3.20,-0.44,-0.32,0.06,-0.88,1122.00,2086.00,409.00,744.00,1216.00,1860.00,1003.00,1575.00,,,,,,,,,,,,0,0,0,,-1192,15616,3164,-199,110,-72
24.045,23.73,-0.42,-1.12,-0.73,-3.22,0.58,0.33,-1.80,0.06,-1.62,1218.00,2042.00,437.00,677.00,1299.00,1877.00,1044.00,1607.00,,,,,,,,,,,,0,0,0,,-1216,15628,3112,-159,120,-79
24.106,23.78,-0.50,-1.78,-0.61,1.40,-5.05,-2.00,-0.02,-2.10,0.34,1225.00,2089.00,545.00,656.00,1231.00,1963.00,977.00,1661.00,,,,,,,,,,,,0,0,0,,-1280,15624,3376,-174,99,-229
24.147,23.84,-0.53,-2.53,0.42,-7.16,1.69,-1.17,0.58,-0.63,0.24,1174.00,2093.00,442.00,768.00,1174.00,1869.00,956.00,1571.00,,,,,,,,,,,,0,0,0,,-1216,15592,3084,-82,113,-175
24.249,23.89,-0.40,-1.65,-0.23,-5.33,3.15,2.12,-2.31,1.77,-2.44,1197.00,2057.00,395.00,687.00,1293.00,1773.00,1058.00,1535.00,,,,,,,,,,,,0,0,0,,-1280,15608,3212,-152,95,-80
24.269,23.95,-0.42,-1.25,-0.56,-0.12,-1.01,-0.96,-0.53,-1.40,0.12,1210.00,2043.00,450.00,625.00,1242.00,1910.00,976.00,1625.00,,,,,,,,,,,,0,0,0,,-1244,15596,3040,-76,161,-68
24.31,24.00,-0.48,-1.45,-0.54,-3.60,-0.68,-1.53,0.70,-0.88,0.44,1213.00,2058.00,471.00,711.00,1174.00,1890.00,950.00,1578.00,,,,,,,,,,,,0,0,0,,-1380,15480,3192,-58,118,-207
24.37,24.06,-0.42,-2.50,0.53,-5.94,3.41,0.74,-1.00,0.84,-0.92,1167.00,2085.00,394.00,699.00,1235.00,1808.00,991.00,1529.00,,,,,,,,,,,,0,0,0,,-1220,15588,3176,-90,102,-100
24.412,24.11,-0.40,-0.67,-0.34,1.58,-1.50,-0.02,-1.17,-0.20,-0.68,1183.00,1985.00,448.00,592.00,1264.00,1872.00,997.00,1583.00,,,,,,,,,,,,0,0,0,,-1268,15580,3020,-94,71,-189
24.474,24.17,-0.51,-1.51,-0.79,-1.74,-2.26,-2.53,1.73,-2.20,1.60,1231.00,2077.00,496.00,689.00,1131.00,1913.00,914.00,1612.00,,,,,,,,,,,,0,0,0,,-1272,15684,3112,-132,79,-183
24.535,24.22,-0.47,-3.54,1.59,-7.34,3.60,0.18,-0.53,0.65,-0.78,1123.00,2112.00,400.00,735.00,1216.00,1825.00,987.00,1535.00,,,,,,,,,,,,0,0,0,,-1260,15548,3164,-52,125,-151
24.617,24.28,-0.43,-0.49,-0.91,-2.05,0.31,0.27,-1.65,-0.15,-1.17,1216.00,2001.00,434.00,651.00,1290.00,1874.00,1023.00,1601.00,,,,,,,,,,,,0,0,0,,-1240,15672,3272,-143,170,-95
24.638,24.33,-0.51,-1.99,-0.62,-1.02,-3.05,-1.93,-0.01,-1.86,0.27,1230.00,2107.00,511.00,684.00,1229.00,1957.00,976.00,1648.00,,,,,,,,,,,,0,0,0,,-1228,15708,3056,-77,149,-71
24.7,24.39,-0.53,-2.72,0.29,-7.82,1.67,-0.95,-0.11,-0.67,-0.33,1187.00,2117.00,448.00,789.00,1214.00,1888.00,987.00,1598.00,,,,,,,,,,,,0,0,0,,-1080,15580,3140,-37,143,-56
24.804,24.44,-0.44,-1.78,-0.34,-4.37,1.31,1.20,-2.31,1.31,-2.53,1207.00,2074.00,429.00,695.00,1315.00,1839.00,1072.00,1567.00,,,,,,,,,,,,0,0,0,,-1236,15592,3120,-105,91,-216
24.824,24.50,-0.51,-1.54,-0.80,0.22,-4.21,-1.73,-0.21,-1.78,0.25,1232.00,2080.00,532.00,672.00,1238.00,1952.00,976.00,1644.00,,,,,,,,,,,,0,0,0,,-1192,15608,3108,-106,132,-144
24.844,24.55,-0.55,-1.88,-0.46,-5.29,0.17,-1.42,0.55,-0.77,0.52,1217.00,2089.00,464.00,743.00,1181.00,1889.00,944.00,1568.00,,,,,,,,,,,,0,0,0,,-1276,15592,3168,-84,167,-116
24.906,24.61,-0.48,-2.32,0.17,-6.77,4.21,0.98,-1.48,1.18,-1.56,1186.00,2090.00,383.00,707.00,1262.00,1814.00,1020.00,1535.00,,,,,,,,,,,,0,0,0,,-1192,15680,3216,-123,159,-77
24.968,24.66,-0.46,-1.20,-0.43,1.45,-2.30,-0.14,-1.18,-0.25,-0.62,1200.00,2032.00,469.00,608.00,1267.00,1881.00,995.00,1584.00,,,,,,,,,,,,0,0,0,,-1292,15580,3172,24,155,-162
25.031,24.72,-0.56,-1.57,-0.77,-2.48,-1.60,-2.44,1.35,-1.66,1.32,1231.00,2081.00,485.00,697.00,1152.00,1925.00,919.00,1590.00,,,,,,,,,,,,0,0,0,,-1288,15584,3100,-66,125,-100
25.095,24.77,-0.50,-3.31,1.33,-7.89,5.17,0.60,-0.89,1.12,-1.14,1134.00,2107.00,371.00,720.00,1231.00,1813.00,998.00,1521.00,,,,,,,,,,,,0,0,0,,-1268,15616,3084,-73,51,-167
25.136,24.83,-0.48,-0.37,-1.10,0.25,-1.50,-0.04,-1.49,-0.12,-1.04,1226.00,2002.00,459.00,624.00,1286.00,1889.00,1015.00,1593.00,,,,,,,,,,,,0,0,0,,-1272,15632,3132,-101,153,-161
25.177,24.88,-0.56,-1.79,-0.88,-1.33,-2.80,-2.20,0.53,-2.05,0.93,1243.00,2105.00,507.00,688.00,1199.00,1949.00,945.00,1631.00,,,,,,,,,,,,0,0,0,,-1292,15544,3140,-93,185,-93
25.239,24.94,-0.59,-2.92,0.49,-6.58,1.33,-1.02,-0.21,-0.31,-0.51,1178.00,2122.00,446.00,758.00,1222.00,1898.00,990.00,1583.00,,,,,,,,,,,,0,0,0,,-1256,15616,3160,-245,179,-57
25.34,24.99,-0.52,-1.40,-0.95,-3.66,0.68,0.76,-2.31,0.87,-2.38,1239.00,2077.00,438.00,687.00,1325.00,1871.00,1072.00,1588.00,,,,,,,,,,,,0,0,0,,-1304,15752,3208,-187,132,-105
25.36,25.05,-0.59,-1.93,-1.04,1.66,-5.61,-1.98,-0.35,-2.33,0.24,1257.00,2126.00,559.00,659.00,1253.00,1979.00,986.00,1680.00,,,,,,,,,,,,0,0,0,,-1196,15636,3120,-186,144,-59
25.423,25.10,-0.64,-2.73,-0.14,-7.24,1.18,-1.47,0.43,-0.69,-0.01,1215.00,2142.00,455.00,781.00,1190.00,1899.00,970.00,1585.00,,,,,,,,,,,,0,0,0,,-1200,15544,3196,-144,97,-183
25.465,25.16,-0.55,-2.06,-0.52,-5.60,2.69,1.11,-1.87,1.52,-2.07,1225.00,2107.00,407.00,703.00,1286.00,1824.00,1042.00,1535.00,,,,,,,,,,,,0,0,0,,-1176,15664,3104,-106,137,-98
25.505,25.21,-0.57,-1.62,-0.77,1.62,-3.57,-1.01,-0.63,-0.90,-0.26,1232.00,2085.00,501.00,625.00,1250.00,1919.00,987.00,1609.00,,,,,,,,,,,,0,0,0,,-1208,15740,3204,-116,180,-85
25.566,25.27,-0.65,-1.67,-0.87,-3.17,-1.06,-2.19,1.17,-1.06,0.62,1240.00,2095.00,477.00,706.00,1158.00,1915.00,944.00,1582.00,,,,,,,,,,,,0,0,0,,-1204,15628,3164,-60,177,-63
25.627,25.32,-0.59,-3.18,0.77,-7.45,3.91,0.52,-0.88,1.11,-0.97,1166.00,2128.00,394.00,732.00,1232.00,1818.00,989.00,1515.00,,,,,,,,,,,,0,0,0,,-1344,15640,3216,-5,88,-131
25.709,25.38,-0.57,-0.69,-0.95,0.69,-1.84,-0.12,-1.33,-0.23,-1.04,1223.00,2019.00,464.00,619.00,1277.00,1887.00,1017.00,1600.00,,,,,,,,,,,,0,0,0,,-1340,15584,3128,-116,107,-111
25.729,25.43,-0.67,-2.01,-0.91,-2.11,-2.25,-2.53,0.99,-1.93,1.11,1250.00,2125.00,499.00,699.00,1177.00,1951.00,934.00,1616.00,,,,,,,,,,,,0,0,0,,-1232,15752,3164,-56,72,-201
25.791,25.49,-0.66,-3.47,1.07,-7.95,3.35,-0.59,-0.16,0.63,-0.75,1153.00,2135.00,410.00,758.00,1209.00,1863.00,986.00,1535.00,,,,,,,,,,,,0,0,0,,-1304,15616,3084,-9,115,-131
25.833,25.54,-0.63,-1.35,-1.13,-2.92,-0.51,0.10,-1.73,0.14,-1.57,1250.00,2083.00,461.00,689.00,1300.00,1891.00,1040.00,1600.00,,,,,,,,,,,,0,0,0,,-1288,15580,3128,-34,159,-120
25.895,25.60,-0.71,-2.21,-0.97,0.02,-4.79,-2.36,0.01,-2.20,0.39,1259.00,2146.00,551.00,688.00,1237.00,1989.00,976.00,1665.00,,,,,,,,,,,,0,0,0,,-1104,15616,3092,-135,234,-54
25.956,25.65,-0.75,-3.12,0.20,-8.29,1.10,-1.51,0.12,-0.67,-0.15,1201.00,2155.00,466.00,816.00,1211.00,1918.00,977.00,1590.00,,,,,,,,,,,,0,0,0,,-1152,15688,2980,-279,113,-191
26.017,25.71,-0.69,-2.31,-0.57,-5.85,1.80,0.53,-2.13,1.21,-2.53,1234.00,2131.00,429.00,727.00,1318.00,1879.00,1074.00,1573.00,,,,,,,,,,,,0,0,0,,-1088,15920,3008,-303,37,-188
26.159,25.76,-0.74,-1.83,-0.94,1.19,-4.74,-1.72,-0.59,-1.63,-0.14,1248.00,2112.00,538.00,656.00,1263.00,1971.00,994.00,1651.00,,,,,,,,,,,,0,0,0,,-1264,15580,3360,-264,61,-201
26.18,25.82,-0.81,-2.02,-0.68,-5.02,-0.63,-2.14,0.73,-1.52,0.87,1235.00,2113.00,482.00,751.00,1185.00,1934.00,939.00,1600.00,,,,,,,,,,,,0,0,0,,-1124,15664,3380,-96,137,-204
26.201,25.87,-0.74,-2.85,0.28,-7.06,3.60,0.53,-1.14,0.70,-0.83,1190.00,2128.00,398.00,727.00,1249.00,1830.00,989.00,1534.00,,,,,,,,,,,,0,0,0,,-1296,15740,3296,-27,67,-255
26.241,25.93,-0.74,-1.14,-0.65,-0.01,-1.89,-0.60,-1.01,-0.27,-0.77,1213.00,2039.00,471.00,637.00,1266.00,1907.00,1003.00,1591.00,,,,,,,,,,,,0,0,0,,-1116,15664,3092,21,77,-166
26.302,25.98,-0.84,-1.86,-0.91,-3.01,-1.87,-2.74,1.09,-2.23,1.39,1247.00,2113.00,497.00,717.00,1175.00,1962.00,925.00,1623.00,,,,,,,,,,,,0,0,0,,-1240,15588,3100,63,63,-269
26.344,26.04,-0.80,-3.53,1.10,-8.59,4.44,-0.15,-0.52,0.73,-0.90,1153.00,2139.00,391.00,755.00,1223.00,1849.00,992.00,1535.00,,,,,,,,,,,,0,0,0,,-1188,15712,3116,-102,39,-280
26.468,26.09,-0.77,-0.73,-1.13,-2.08,-0.71,-0.18,-1.56,0.21,-1.56,1236.00,2032.00,459.00,670.00,1295.00,1904.00,1038.00,1595.00,,,,,,,,,,,,0,0,0,,-1340,15532,3080,-138,-28,-327
26.489,26.15,-0.86,-2.00,-1.06,-1.51,-2.71,-2.59,0.16,-1.41,0.07,1260.00,2133.00,506.00,691.00,1232.00,1999.00,979.00,1628.00,,,,,,,,,,,,0,0,0,,-1388,15640,3032,-117,51,-248
26.51,26.20,-0.88,-2.90,0.16,-7.02,0.67,-1.26,-0.19,-0.35,-0.50,1199.00,2139.00,466.00,785.00,1226.00,1915.00,990.00,1585.00,,,,,,,,,,,,0,0,0,,-1416,15488,3148,-91,153,-125
26.55,26.26,-0.82,-1.74,-0.96,-5.12,1.09,0.26,-2.04,1.15,-2.52,1247.00,2105.00,440.00,720.00,1318.00,1895.00,1075.00,1577.00,,,,,,,,,,,,0,0,0,,-1332,15464,3204,-135,159,-187
26.612,26.31,-0.90,-1.77,-1.20,1.06,-5.51,-2.28,-0.19,-2.06,-0.11,1264.00,2121.00,562.00,673.00,1249.00,1994.00,1000.00,1678.00,,,,,,,,,,,,0,0,0,,-1360,15732,3208,-94,110,-204
26.674,26.37,-0.94,-2.22,-0.64,-6.29,0.07,-1.69,0.52,-1.00,0.40,1237.00,2128.00,475.00,775.00,1189.00,1911.00,954.00,1587.00,,,,,,,,,,,,0,0,0,,-1372,15520,3068,-86,147,-180
26.716,26.42,-0.89,-2.49,-0.05,-6.05,2.62,0.05,-1.30,1.08,-1.42,1204.00,2117.00,412.00,717.00,1271.00,1873.00,1014.00,1535.00,,,,,,,,,,,,0,0,0,,-1220,15536,3076,-86,134,-175
26.817,26.48,-0.87,-1.60,-0.46,0.13,-2.21,-0.46,-1.15,-0.61,-0.36,1211.00,2066.00,478.00,639.00,1273.00,1904.00,987.00,1595.00,,,,,,,,,,,,0,0,0,,-1400,15508,3116,-218,141,-117
26.838,26.53,-0.96,-1.63,-0.98,-3.22,-1.76,-2.72,1.05,-1.88,1.33,1246.00,2097.00,496.00,721.00,1177.00,1962.00,922.00,1603.00,,,,,,,,,,,,0,0,0,,-1256,15564,3280,-208,203,-208
26.878,26.59,-0.91,-3.48,1.17,-9.61,5.16,-0.03,-0.80,0.94,-0.99,1147.00,2130.00,383.00,771.00,1239.00,1854.00,993.00,1526.00,,,,,,,,,,,,0,0,0,,-1404,15512,3160,-168,165,-59
26.938,26.64,-0.89,-0.41,-1.28,-1.38,-1.58,-0.43,-1.45,0.01,-1.01,1239.00,2015.00,475.00,667.00,1293.00,1917.00,1011.00,1584.00,,,,,,,,,,,,0,0,0,,-1248,15516,3184,-121,101,-21
27.0,26.70,-0.97,-1.85,-0.95,-1.31,-3.90,-2.54,0.68,-1.82,0.87,1249.00,2114.00,538.00,708.00,1197.00,1968.00,944.00,1619.00,,,,,,,,,,,,0,0,0,,-1352,15504,3156,-76,165,-71
27.062,26.75,-0.98,-2.98,0.83,-7.80,1.87,-1.12,-0.18,-0.28,-0.47,1158.00,2108.00,443.00,784.00,1222.00,1904.00,987.00,1579.00,,,,,,,,,,,,0,0,0,,-1280,15524,3048,-110,166,-47
27.104,26.81,-0.91,-1.00,-0.98,-3.57,-0.25,0.50,-1.94,0.24,-1.59,1232.00,2046.00,460.00,702.00,1305.00,1872.00,1039.00,1594.00,,,,,,,,,,,,0,0,0,,-1320,15628,2928,-242,160,-53
27.188,26.86,-0.99,-1.67,-0.95,1.49,-5.82,-2.54,0.07,-2.03,0.14,1245.00,2099.00,567.00,667.00,1237.00,2000.00,986.00,1665.00,,,,,,,,,,,,0,0,0,,-1208,15640,3160,-168,188,69
27.248,26.92,-1.03,-2.32,0.12,-7.05,0.76,-1.86,0.73,-0.70,0.24,1189.00,2093.00,464.00,784.00,1179.00,1913.00,957.00,1575.00,,,,,,,,,,,,0,0,0,,-1188,15608,3144,-220,165,-133
27.269,26.97,-0.92,-1.86,0.09,-5.18,2.87,1.08,-1.59,1.48,-2.01,1181.00,2057.00,400.00,688.00,1267.00,1812.00,1039.00,1535.00,,,,,,,,,,,,0,0,0,,-1252,15500,3276,-180,95,-143
27.372,27.03,-0.92,-1.05,-0.34,1.61,-3.39,-0.91,-0.21,-0.62,-0.20,1191.00,2015.00,496.00,622.00,1219.00,1889.00,979.00,1589.00,,,,,,,,,,,,0,0,0,,-1284,15556,3308,-110,114,-64
27.393,27.08,-1.01,-0.64,-0.80,-3.25,-1.14,-2.55,1.44,-0.35,0.70,1212.00,2007.00,480.00,710.00,1149.00,1929.00,928.00,1535.00,,,,,,,,,,,,0,0,0,,-1404,15552,3272,-74,213,-5
27.456,27.14,-0.92,-2.64,1.07,-8.46,4.30,0.71,-1.03,2.20,-1.13,1136.00,2066.00,393.00,754.00,1238.00,1812.00,978.00,1457.00,,,,,,,,,,,,0,0,0,,-1256,15560,3080,-33,244,-171
27.498,27.19,-0.89,-0.13,-0.75,-0.82,-0.97,-0.34,-1.30,0.56,-0.66,1198.00,1965.00,455.00,642.00,1280.00,1902.00,982.00,1535.00,,,,,,,,,,,,0,0,0,,-1292,15500,3088,-205,186,-42
27.559,27.25,-0.97,-1.01,-0.69,-3.72,-0.24,-2.46,1.00,-1.79,1.62,1213.00,2031.00,461.00,706.00,1175.00,1945.00,906.00,1585.00,,,,,,,,,,,,0,0,0,,-1220,15640,3256,-182,128,-69
27.601,27.30,-0.95,-2.88,1.46,-7.53,2.28,-0.52,-0.21,1.13,-0.43,1117.00,2064.00,431.00,767.00,1211.00,1861.00,960.00,1492.00,,,,,,,,,,,,0,0,0,,-1196,15616,3284,-174,208,-120
27.662,27.36,-0.89,-0.22,-1.00,-3.76,0.51,0.19,-1.55,1.03,-1.35,1216.00,1985.00,443.00,693.00,1285.00,1875.00,1011.00,1535.00,,,,,,,,,,,,0,0,0,,-1276,15404,3316,-157,162,-109
27.723,27.41,-0.98,-1.48,-0.52,0.45,-4.67,-2.67,0.57,-1.40,0.21,1212.00,2059.00,543.00,674.00,1207.00,1984.00,971.00,1621.00,,,,,,,,,,,,0,0,0,,-1384,15468,3256,-218,153,-33
27.783,27.47,-1.01,-2.15,0.39,-6.69,1.25,-1.61,0.71,0.23,-0.16,1168.00,2064.00,449.00,763.00,1175.00,1895.00,962.00,1535.00,,,,,,,,,,,,0,0,0,,-1236,15744,3360,-331,236,-164
27.825,27.52,-0.90,-1.18,-0.29,-5.19,2.78,1.21,-2.12,2.14,-2.25,1191.00,2023.00,402.00,690.00,1301.00,1829.00,1040.00,1505.00,,,,,,,,,,,,0,0,0,,-1320,15532,3316,-162,160,-105
27.907,27.58,-0.92,-0.77,-0.48,1.93,-4.33,-1.23,-0.37,-0.94,0.36,1194.00,2000.00,519.00,630.00,1237.00,1922.00,955.00,1585.00,,,,,,,,,,,,0,0,0,,-1396,15360,3288,-139,60,7
27.928,27.63,-0.96,-1.05,-0.43,-4.41,-0.52,-1.84,1.07,0.61,0.41,1197.00,2020.00,474.00,731.00,1157.00,1894.00,926.00,1489.00,,,,,,,,,,,,0,0,0,,-1108,15612,3348,-85,241,11
27.989,27.69,-0.88,-1.98,0.72,-8.23,4.60,0.75,-0.64,1.71,-0.91,1144.00,2032.00,385.00,741.00,1211.00,1790.00,975.00,1477.00,,,,,,,,,,,,0,0,0,,-1256,15592,3020,18,345,42
28.051,27.74,-0.84,-0.13,-0.49,0.19,-1.11,-0.06,-1.00,0.37,0.10,1181.00,1951.00,450.00,619.00,1253.00,1866.00,946.00,1516.00,,,,,,,,,,,,0,0,0,,-1192,15556,3024,36,236,-37
28.112,27.80,-0.92,-0.80,-0.64,-1.96,-2.15,-2.45,1.50,-0.94,1.56,1205.00,2011.00,495.00,693.00,1143.00,1918.00,895.00,1535.00,,,,,,,,,,,,0,0,0,,-1220,15508,3052,-74,75,-40
28.154,27.85,-0.86,-2.58,1.73,-8.42,4.29,0.27,-0.33,1.55,-0.55,1095.00,2025.00,393.00,753.00,1201.00,1809.00,959.00,1472.00,,,,,,,,,,,,0,0,0,,-1112,15500,3132,-74,98,-130
28.215,27.91,-0.78,0.41,-0.83,-2.05,-0.03,0.71,-1.65,1.76,-1.36,1191.00,1927.00,442.00,657.00,1280.00,1842.00,998.00,1492.00,,,,,,,,,,,,0,0,0,,-1268,15496,3236,-119,140,-108
28.297,27.96,-0.84,-0.91,-0.49,-1.13,-2.83,-2.07,0.37,-0.94,0.60,1198.00,2012.00,506.00,683.00,1207.00,1948.00,943.00,1575.00,,,,,,,,,,,,0,0,0,,-1220,15628,3144,-195,175,0
28.318,28.02,-0.86,-1.82,0.50,-7.66,1.57,-1.18,0.47,0.09,0.33,1154.00,2031.00,449.00,786.00,1181.00,1875.00,939.00,1523.00,,,,,,,,,,,,0,0,0,,-1040,15668,3152,-231,261,30
28.38,28.07,-0.77,-0.71,-0.44,-4.63,1.74,0.97,-1.97,2.38,-1.95,1190.00,1993.00,421.00,694.00,1296.00,1839.00,1019.00,1479.00,,,,,,,,,,,,0,0,0,,-1120,15508,3252,-241,135,-181
28.421,28.13,-0.79,-0.65,-0.30,2.39,-5.01,-1.28,-0.12,-0.45,0.35,1180.00,1981.00,534.00,630.00,1222.00,1913.00,947.00,1555.00,,,,,,,,,,,,0,0,0,,-1164,15624,3080,-115,64,-116
28.483,28.18,-0.81,-0.96,-0.02,-5.15,0.32,-1.17,1.02,0.57,0.57,1169.00,1991.00,459.00,736.00,1146.00,1847.00,919.00,1485.00,,,,,,,,,,,,0,0,0,,-1152,15548,3332,-53,100,-96
28.543,28.24,-0.70,-1.36,0.75,-6.10,4.22,1.35,-1.03,2.56,-1.42,1129.00,1981.00,378.00,688.00,1223.00,1766.00,987.00,1448.00,,,,,,,,,,,,0,0,0,,-1188,15596,3240,-39,187,-76
28.626,28.29,-0.67,-0.22,0.14,0.87,-1.38,-0.02,-0.67,1.40,-0.96,1143.00,1925.00,451.00,607.00,1230.00,1847.00,983.00,1497.00,,,,,,,,,,,,0,0,0,,-1092,15512,3296,-30,173,-151
28.71,28.35,-0.72,-0.37,-0.43,-2.88,-0.53,-1.72,1.37,-0.81,1.83,1182.00,1966.00,461.00,688.00,1136.00,1870.00,880.00,1516.00,,,,,,,,,,,,0,0,0,,-1152,15468,3112,-79,150,-63
28.73,28.40,-0.64,-2.18,1.71,-8.38,5.54,0.99,-0.54,2.39,-0.81,1088.00,1994.00,367.00,727.00,1199.00,1768.00,958.00,1434.00,,,,,,,,,,,,0,0,0,,-1076,15600,3196,-123,133,-111
28.77,28.46,-0.58,0.75,-0.57,0.07,-0.44,0.53,-1.28,1.27,-0.90,1167.00,1888.00,435.00,611.00,1259.00,1837.00,982.00,1502.00,,,,,,,,,,,,0,0,0,,-1160,15612,3136,-82,158,-105
28.812,28.51,-0.64,-0.87,-0.28,-0.48,-3.01,-1.88,0.90,-0.06,0.48,1183.00,1997.00,505.00,669.00,1169.00,1906.00,934.00,1526.00,,,,,,,,,,,,0,0,0,,-1272,15536,3220,-103,119,-73
28.874,28.57,-0.63,-1.68,1.06,-4.15,-1.96,-0.46,0.12,1.19,-0.45,1117.00,1990.00,510.00,752.00,1188.00,1840.00,960.00,1489.00,,,,,,,,,,,,0,0,0,,-1152,15468,3052,-175,206,-32
28.916,28.62,-0.53,-0.33,-0.32,-3.55,1.29,1.48,-2.10,2.87,-2.67,1174.00,1957.00,423.00,673.00,1293.00,1808.00,1050.00,1479.00,,,,,,,,,,,,0,0,0,,-1116,15456,3380,-187,216,-46
29.019,28.68,-0.59,-0.48,-0.61,1.85,-4.87,-1.78,0.38,-0.96,0.37,1196.00,1984.00,535.00,641.00,1200.00,1925.00,955.00,1586.00,,,,,,,,,,,,0,0,0,,-1104,15624,3292,-232,117,-203
29.039,28.73,-0.64,-1.10,0.29,-5.96,1.46,-1.57,1.29,0.69,0.35,1152.00,1985.00,438.00,737.00,1138.00,1863.00,928.00,1487.00,,,,,,,,,,,,0,0,0,,-1080,15364,3344,-114,116,-97
29.1,28.79,-0.53,-1.16,0.72,-6.14,4.29,1.64,-1.26,2.68,-1.82,1127.00,1967.00,377.00,688.00,1232.00,1757.00,1006.00,1456.00,,,,,,,,,,,,0,0,0,,-1092,15532,3288,-85,120,-76
29.141,28.84,-0.50,0.01,-0.13,1.97,-2.08,0.01,-0.51,0.71,-0.11,1155.00,1921.00,459.00,592.00,1219.00,1837.00,951.00,1504.00,,,,,,,,,,,,0,0,0,,-1096,15576,3328,-91,168,-116
29.203,28.90,-0.56,-0.21,-0.18,-1.40,-1.10,-1.64,1.56,0.05,1.11,1163.00,1941.00,463.00,659.00,1123.00,1855.00,901.00,1494.00,,,,,,,,,,,,0,0,0,,-944,15696,3132,-60,190,-147
29.265,28.95,-0.45,-2.00,1.80,-7.44,5.89,1.62,-0.77,2.75,-1.09,1079.00,1975.00,354.00,694.00,1200.00,1735.00,966.00,1424.00,,,,,,,,,,,,0,0,0,,-1040,15480,3212,-71,119,-142
29.306,29.01,-0.38,0.54,-0.32,0.22,-0.66,0.96,-1.37,1.44,-0.84,1156.00,1891.00,439.00,611.00,1255.00,1810.00,976.00,1490.00,,,,,,,,,,,,0,0,0,,-1108,15652,3224,-69,53,-150
29.389,29.06,-0.43,-0.44,-0.36,-0.41,-2.22,-1.42,1.01,-0.62,1.44,1179.00,1968.00,483.00,653.00,1152.00,1866.00,896.00,1521.00,,,,,,,,,,,,0,0,0,,-1084,15532,3108,-39,93,-224
29.409,29.12,-0.40,-1.69,1.28,-6.58,3.34,0.15,-0.07,1.01,-0.14,1104.00,1979.00,400.00,718.00,1187.00,1805.00,947.00,1487.00,,,,,,,,,,,,0,0,0,,-1200,15516,3036,-121,107,-188
29.472,29.17,-0.31,0.47,-0.66,-1.13,0.30,1.31,-1.78,2.01,-2.15,1179.00,1914.00,427.00,628.00,1275.00,1805.00,1037.00,1509.00,,,,,,,,,,,,0,0,0,,-1112,15584,3192,-174,162,-83
29.535,29.23,-0.37,-0.70,-0.59,3.24,-5.61,-1.33,0.09,-1.16,0.56,1200.00,2001.00,543.00,619.00,1209.00,1906.00,949.00,1591.00,,,,,,,,,,,,0,0,0,,-1112,15620,3020,-106,252,-190
29.576,29.28,-0.38,-1.51,0.29,-7.41,2.12,-0.65,0.50,0.33,0.07,1161.00,2018.00,434.00,767.00,1168.00,1835.00,948.00,1519.00,,,,,,,,,,,,0,0,0,,-1236,15340,3108,-71,158,-259
29.638,29.34,-0.30,-1.03,-0.03,-4.37,3.11,1.29,-1.14,2.48,-2.32,1171.00,1997.00,389.00,662.00,1232.00,1776.00,1038.00,1488.00,,,,,,,,,,,,0,0,0,,-1184,15632,3224,-66,160,-109
29.698,29.39,-0.29,-0.15,-0.49,3.08,-3.39,-0.13,-0.38,0.12,0.13,1181.00,1952.00,483.00,587.00,1213.00,1840.00,949.00,1530.00,,,,,,,,,,,,0,0,0,,-1280,15392,3256,-67,377,121
29.761,29.45,-0.34,-0.10,-0.53,-1.81,-0.60,-1.38,1.55,-0.06,0.90,1183.00,1951.00,454.00,661.00,1118.00,1836.00,913.00,1509.00,,,,,,,,,,,,0,0,0,,-1196,15424,3036,-223,369,97
29.802,29.50,-0.23,-1.63,1.11,-6.84,5.42,1.98,-1.16,2.27,-0.79,1113.00,1983.00,359.00,686.00,1218.00,1729.00,959.00,1440.00,,,,,,,,,,,,0,0,0,,-1068,15420,3240,-230,360,271
29.864,29.56,-0.18,0.54,-0.42,2.87,-2.38,0.77,-1.07,1.17,-0.75,1162.00,1896.00,459.00,576.00,1239.00,1809.00,976.00,1502.00,,,,,,,,,,,,0,0,0,,-1024,15528,3320,-260,359,63
29.925,29.61,-0.23,-0.73,-0.48,-0.49,-2.49,-1.28,1.19,-0.91,1.51,1193.00,1997.00,491.00,660.00,1138.00,1847.00,897.00,1535.00,,,,,,,,,,,,0,0,0,,-864,15604,3156,-241,306,-112
29.966,29.67,-0.18,-2.00,1.60,-7.10,4.22,0.86,-0.50,1.50,-0.65,1091.00,1986.00,385.00,716.00,1199.00,1775.00,965.00,1479.00,,,,,,,,,,,,0,0,0,,-948,15732,3152,-190,91,-227
30.028,29.72,-0.10,-0.11,-0.40,-1.29,-0.57,1.44,-1.78,1.82,-1.52,1175.00,1945.00,449.00,647.00,1272.00,1796.00,1006.00,1495.00,,,,,,,,,,,,1,1,0,,-948,15524,3436,-95,-27,-435
30.129,29.78,-0.18,-0.74,-0.08,0.32,-3.47,-1.72,0.56,-1.16,0.48,1168.00,1977.00,510.00,656.00,1187.00,1911.00,953.00,1594.00,,,,,,,,,,,,1,1,0,,-900,15636,3324,-33,31,-291
30.15,29.83,-0.19,-1.45,0.41,-6.71,1.96,-0.42,0.01,0.14,0.22,1152.00,2006.00,432.00,749.00,1194.00,1842.00,944.00,1525.00,,,,,,,,,,,,1,1,0,,-1108,15516,3220,-153,35,-391
30.191,29.89,-0.09,-1.03,0.01,-3.40,2.36,1.73,-2.01,1.55,-1.74,1168.00,1994.00,398.00,650.00,1281.00,1786.00,1023.00,1520.00,,,,,,,,,,,,1,1,0,,-1128,15516,3180,-130,73,-312
30.253,29.94,-0.11,-0.43,-0.63,1.95,-3.46,-0.50,-0.43,-0.87,-0.02,1196.00,1981.00,495.00,615.00,1225.00,1870.00,974.00,1597.00,,,,,,,,,,,,1,1,0,,-1092,15732,3264,-231,21,-341
30.295,30.00,-0.17,-0.62,-0.61,-3.07,-0.30,-1.17,0.93,-0.22,0.91,1199.00,1995.00,457.00,689.00,1152.00,1852.00,915.00,1518.00,,,,,,,,,,,,1,1,0,,-1092,15444,3516,-234,75,-284
30.377,30.05,-0.06,-1.75,0.92,-6.43,4.83,2.05,-1.35,1.83,-0.61,1127.00,2003.00,368.00,686.00,1229.00,1733.00,957.00,1458.00,,,,,,,,,,,,1,1,0,,-1152,15668,3380,-102,159,-289
30.398,30.11,-0.03,0.13,-0.37,1.80,-1.81,0.50,-0.87,0.79,-0.75,1168.00,1925.00,454.00,592.00,1232.00,1819.00,983.00,1525.00,,,,,,,,,,,,1,1,0,,-1228,15504,3256,-84,135,-353
30.499,30.16,-0.10,-0.63,-0.69,-1.55,-2.10,-1.49,1.20,-0.46,0.85,1205.00,2001.00,490.00,681.00,1142.00,1862.00,922.00,1535.00,,,,,,,,,,,,1,1,0,,-1056,15704,3172,145,112,-323
30.52,30.22,-0.05,-2.12,1.41,-7.32,4.49,0.87,-0.54,1.61,-0.90,1105.00,2006.00,381.00,717.00,1202.00,1777.00,976.00,1482.00,,,,,,,,,,,,1,1,0,,-1384,15316,3248,158,68,-370
30.582,30.27,0.02,0.41,-0.91,-0.80,-0.07,1.33,-1.87,1.35,-1.03,1196.00,1931.00,433.00,626.00,1281.00,1808.00,988.00,1503.00,,,,,,,,,,,,1,1,0,,-1396,15608,3048,-23,-2,-269
30.624,30.33,-0.05,-0.85,-0.55,-0.49,-1.53,-1.29,0.11,-0.73,0.20,1200.00,2010.00,466.00,643.00,1207.00,1902.00,960.00,1579.00,,,,,,,,,,,,1,1,0,,-1232,15532,3148,-195,53,-276
30.686,30.38,-0.07,-1.60,0.30,-6.25,1.14,-0.45,0.15,0.43,-0.10,1162.00,2024.00,448.00,752.00,1186.00,1838.00,955.00,1520.00,,,,,,,,,,,,1,1,0,,-1408,15476,3168,-256,53,-167
30.728,30.44,0.02,-0.63,-0.57,-4.29,2.16,1.72,-2.09,2.23,-2.28,1197.00,1994.00,409.00,677.00,1287.00,1791.00,1040.00,1501.00,,,,,,,,,,,,1,1,0,,-1224,15580,3368,-240,162,-10
30.789,30.49,-0.04,-0.67,-0.61,2.81,-4.98,-1.15,-0.05,-1.17,0.29,1200.00,1999.00,529.00,619.00,1214.00,1899.00,963.00,1603.00,,,,,,,,,,,,1,1,0,,-1232,15456,3428,-134,247,30
30.85,30.55,-0.10,-0.75,-0.68,-4.35,-0.15,-1.28,0.96,-0.04,0.65,1207.00,2010.00,464.00,722.00,1152.00,1858.00,925.00,1518.00,,,,,,,,,,,,1,1,0,,-1228,15544,3176,-255,239,-96
30.912,30.60,-0.02,-1.76,0.58,-5.63,3.54,1.43,-1.08,1.86,-0.73,1148.00,2022.00,389.00,688.00,1225.00,1763.00,963.00,1461.00,,,,,,,,,,,,1,1,0,,-1156,15388,3228,-239,200,-21
30.973,30.66,0.01,-0.09,-0.30,2.20,-1.58,0.56,-1.15,0.76,-0.55,1168.00,1938.00,445.00,579.00,1249.00,1828.00,973.00,1519.00,,,,,,,,,,,,1,1,0,,-1152,15576,3236,-155,196,-95
31.034,30.71,-0.07,-0.68,-0.59,-2.19,-1.27,-1.46,1.17,-1.15,1.93,1199.00,1999.00,474.00,683.00,1143.00,1861.00,881.00,1533.00,,,,,,,,,,,,1,1,0,,-1156,15476,3416,-110,161,28
31.076,30.77,-0.02,-2.42,1.64,-8.02,5.46,0.97,-0.73,1.94,-0.66,1097.00,2017.00,366.00,718.00,1212.00,1779.00,958.00,1454.00,,,,,,,,,,,,1,1,0,,-1200,15548,3256,-5,125,-242
31.138,30.82,0.06,0.49,-1.01,-0.29,-0.70,1.42,-1.87,1.31,-0.85,1201.00,1930.00,444.00,624.00,1279.00,1802.00,979.00,1498.00,,,,,,,,,,,,1,1,0,,-1296,15420,3296,-152,90,-148
31.261,30.88,-0.01,-0.95,-0.53,0.50,-3.56,-1.28,0.06,-0.69,0.71,1201.00,2017.00,511.00,653.00,1210.00,1904.00,933.00,1555.00,,,,,,,,,,,,1,1,0,,-1244,15560,3372,-206,99,-153
31.282,30.93,-0.02,-1.99,0.50,-6.85,1.97,-0.20,-0.17,0.62,-0.26,1158.00,2045.00,433.00,753.00,1201.00,1835.00,960.00,1515.00,,,,,,,,,,,,1,1,0,,-1356,15460,3424,95,228,-46
31.303,30.99,0.10,-0.57,-0.90,-3.25,1.41,2.40,-3.67,2.73,-2.74,1217.00,2007.00,418.00,663.00,1385.00,1819.00,1057.00,1490.00,,,,,,,,,,,,1,1,0,,-1224,15396,3300,108,204,105
31.344,31.04,0.04,-0.99,-0.74,2.16,-4.80,-1.14,-0.37,-0.48,0.31,1216.00,2032.00,530.00,632.00,1235.00,1915.00,950.00,1559.00,,,,,,,,,,,,1,1,0,,-1204,15644,3224,30,184,78
31.408,31.10,-0.03,-1.68,-0.26,-4.89,-0.16,-1.25,0.62,0.24,0.46,1200.00,2062.00,469.00,738.00,1173.00,1873.00,930.00,1509.00,,,,,,,,,,,,1,1,0,,-1064,15612,3052,-23,342,59
31.448,31.15,0.03,-1.65,-0.04,-6.22,3.50,1.18,-1.36,2.45,-1.42,1185.00,2047.00,394.00,705.00,1249.00,1794.00,989.00,1454.00,,,,,,,,,,,,1,1,0,,-1192,15552,3276,-355,166,-75
31.508,31.21,0.03,-0.47,-0.42,0.96,-1.57,0.05,-1.09,1.40,-0.32,1184.00,1974.00,455.00,608.00,1257.00,1863.00,950.00,1472.00,,,,,,,,,,,,1,1,0,,-1236,15540,3224,-290,29,-67
31.59,31.26,-0.06,-0.70,-0.93,-2.22,-1.61,-1.77,1.03,-0.30,1.43,1222.00,2019.00,483.00,690.00,1158.00,1891.00,891.00,1502.00,,,,,,,,,,,,1,1,0,,-1196,15604,3408,-226,65,19
31.611,31.32,-0.01,-2.53,1.48,-7.58,4.72,0.88,-0.96,2.20,-0.62,1109.00,2035.00,378.00,720.00,1229.00,1796.00,951.00,1437.00,,,,,,,,,,,,1,1,0,,-1060,15360,3520,-87,237,169
31.694,31.37,0.02,0.24,-1.02,-0.47,-0.85,0.56,-1.69,1.52,-0.88,1207.00,1950.00,449.00,631.00,1286.00,1855.00,977.00,1487.00,,,,,,,,,,,,1,1,0,,-1112,15500,3152,48,228,83
31.736,31.43,-0.05,-1.42,-0.37,-0.24,-3.92,-1.44,-0.03,-0.02,0.53,1201.00,2046.00,528.00,679.00,1219.00,1920.00,931.00,1522.00,,,,,,,,,,,,1,1,0,,-1180,15584,3064,223,123,157
31.798,31.48,-0.08,-1.83,0.56,-6.98,1.38,-0.51,-0.22,1.42,-0.41,1151.00,2029.00,448.00,769.00,1211.00,1860.00,954.00,1474.00,,,,,,,,,,,,1,1,0,,-1152,15512,3044,115,-14,250
31.839,31.54,-0.01,-0.59,-0.66,-4.05,1.16,1.31,-2.53,2.24,-1.98,1202.00,1996.00,430.00,689.00,1328.00,1842.00,1023.00,1488.00,,,,,,,,,,,,1,1,0,,-916,15572,3016,-110,107,322
31.901,31.59,-0.08,-0.51,-1.00,2.57,-5.52,-1.56,-0.34,-0.43,0.15,1222.00,2007.00,547.00,634.00,1243.00,1946.00,957.00,1562.00,,,,,,,,,,,,1,1,0,,-696,15544,2712,-993,139,98
31.963,31.65,-0.15,-1.55,-0.16,-5.60,0.23,-1.30,0.37,0.09,0.73,1190.00,2045.00,465.00,751.00,1190.00,1889.00,919.00,1507.00,,,,,,,,,,,,1,1,0,,-720,15380,3236,-1789,168,-107
32.025,31.70,-0.09,-2.11,0.39,-6.67,3.37,0.94,-1.54,1.93,-1.27,1167.00,2060.00,400.00,720.00,1267.00,1820.00,990.00,1478.00,,,,,,,,,,,,1,1,0,,-732,16152,4064,-1886,87,-512
32.066,31.76,-0.08,-0.88,-0.26,0.43,-1.87,0.16,-1.33,0.72,-0.35,1182.00,1997.00,467.00,626.00,1271.00,1867.00,963.00,1513.00,,,,,,,,,,,,1,1,0,,-1112,15204,4824,-1290,-24,-548
32.129,31.81,-0.17,-0.67,-1.03,-2.49,-1.63,-1.99,1.41,-0.15,1.15,1228.00,2022.00,486.00,698.00,1139.00,1888.00,902.00,1504.00,,,,,,,,,,,,1,1,0,,-1220,15608,4664,1203,-202,-335
32.191,31.87,-0.11,-2.48,1.18,-7.85,5.01,1.01,-1.05,2.52,-0.89,1126.00,2047.00,374.00,722.00,1232.00,1791.00,960.00,1430.00,,,,,,,,,,,,1,1,0,,-1236,15652,4044,2842,-203,242
32.232,31.92,-0.08,0.55,-1.17,0.62,-1.38,0.63,-1.71,1.40,-0.73,1210.00,1934.00,453.00,613.00,1286.00,1851.00,971.00,1488.00,,,,,,,,,,,,1,1,0,,-956,15420,2788,4175,-160,740
32.336,31.98,-0.16,-0.83,-0.55,-1.19,-2.85,-1.78,0.29,-0.21,0.97,1200.00,2009.00,507.00,685.00,1206.00,1930.00,912.00,1515.00,,,,,,,,,,,,1,1,0,,-624,15320,1992,4039,-176,1066
32.356,32.03,-0.19,-1.61,0.72,-6.68,1.28,-0.65,-0.26,1.49,-0.02,1136.00,2002.00,448.00,762.00,1217.00,1873.00,933.00,1455.00,,,,,,,,,,,,1,1,0,,-224,15844,1520,2398,455,1241
32.397,32.09,-0.12,-0.50,-0.17,-2.91,0.01,1.09,-2.64,3.08,-1.98,1168.00,1962.00,448.00,679.00,1341.00,1863.00,1008.00,1440.00,,,,,,,,,,,,1,1,0,,-120,16236,1308,-381,661,408
32.479,32.14,-0.21,-0.42,-0.69,2.33,-5.57,-1.87,-0.45,-0.34,0.67,1200.00,1984.00,551.00,641.00,1257.00,1975.00,929.00,1535.00,,,,,,,,,,,,1,1,0,,-116,16368,1696,-2687,598,-945
32.5,32.20,-0.28,-1.53,0.18,-8.74,1.17,-1.54,0.22,0.89,0.42,1168.00,2025.00,468.00,829.00,1205.00,1915.00,921.00,1472.00,,,,,,,,,,,,1,1,0,,-636,15904,2396,-2721,323,-1660
32.541,32.25,-0.23,-1.32,0.13,-5.77,2.89,0.60,-1.38,2.68,-1.82,1167.00,2011.00,404.00,704.00,1264.00,1837.00,1006.00,1456.00,,,,,,,,,,,,1,1,0,,-892,15824,3012,-1202,-70,-1830
32.606,32.31,-0.24,-0.88,-0.33,1.21,-3.80,-0.47,-1.05,1.27,-0.61,1187.00,2001.00,511.00,639.00,1266.00,1899.00,967.00,1491.00,,,,,,,,,,,,1,1,0,,-1320,15704,3084,262,-98,-870
32.707,32.36,-0.35,-0.76,-0.80,-3.88,-0.58,-2.26,1.06,0.30,1.27,1215.00,2017.00,471.00,717.00,1167.00,1927.00,889.00,1473.00,,,,,,,,,,,,1,1,0,,-1328,15980,2928,158,-88,-199
32.727,32.42,-0.28,-2.41,1.35,-7.04,3.92,1.04,-1.29,2.82,-0.37,1114.00,2032.00,391.00,720.00,1248.00,1801.00,928.00,1393.00,,,,,,,,,,,,1,1,0,,-1248,15676,2584,220,32,-100
32.789,32.47,-0.26,0.36,-0.72,0.44,-1.24,0.03,-1.46,2.28,-0.76,1185.00,1925.00,451.00,615.00,1283.00,1883.00,957.00,1438.00,,,,,,,,,,,,1,1,0,,-1116,15568,2440,879,148,10
32.851,32.53,-0.34,-0.94,-0.41,-1.33,-2.80,-1.86,0.56,0.40,1.55,1193.00,2010.00,507.00,688.00,1190.00,1922.00,874.00,1456.00,,,,,,,,,,,,1,1,0,,-672,15596,2236,365,304,461
32.892,32.58,-0.35,-1.92,0.89,-7.60,2.39,-0.43,-0.47,2.28,-0.39,1132.00,2018.00,429.00,767.00,1226.00,1867.00,938.00,1424.00,,,,,,,,,,,,1,1,0,,-652,16228,2532,-989,433,-409
32.975,32.64,-0.27,-0.42,-0.44,-3.19,0.48,1.16,-2.55,2.66,-1.82,1184.00,1971.00,439.00,678.00,1333.00,1854.00,1007.00,1458.00,,,,,,,,,,,,1,1,0,,-928,15680,2688,-2499,436,-971
33.016,32.69,-0.35,-0.45,-0.92,1.62,-5.33,-1.93,-0.22,0.04,0.31,1216.00,1999.00,551.00,655.00,1243.00,1968.00,941.00,1527.00,,,,,,,,,,,,1,1,0,,-1480,15596,3528,-2347,221,-1355
33.058,32.75,-0.39,-1.25,-0.37,-6.29,0.95,-1.02,0.26,1.08,0.58,1197.00,2032.00,453.00,757.00,1191.00,1874.00,910.00,1455.00,,,,,,,,,,,,1,1,1,,-1872,15292,3972,-1219,164,-984
33.118,32.80,-0.30,-1.48,-0.12,-5.65,3.03,1.31,-1.98,3.20,-2.01,1186.00,2037.00,400.00,698.00,1289.00,1815.00,1007.00,1434.00,,,,,,,,,,,,1,1,1,,-1804,15160,3640,317,240,336
33.159,32.86,-0.32,-0.49,-0.68,1.36,-3.19,-0.73,-0.76,1.13,-0.33,1201.00,1989.00,493.00,625.00,1252.00,1904.00,955.00,1488.00,,,,,,,,,,,,1,1,1,,-1336,15760,3480,1408,299,860
33.22,32.91,-0.41,-0.51,-1.10,-3.30,-1.13,-2.09,0.93,0.52,0.95,1229.00,2013.00,480.00,711.00,1171.00,1920.00,901.00,1473.00,,,,,,,,,,,,1,1,1,,-884,15512,2672,1199,230,820
33.282,32.97,-0.35,-2.33,1.18,-8.07,5.13,0.74,-1.10,3.41,-1.08,1123.00,2035.00,373.00,726.00,1242.00,1813.00,954.00,1387.00,,,,,,,,,,,,1,1,1,,-768,15564,2480,982,374,603
33.344,33.02,-0.31,0.57,-0.70,1.48,-1.67,0.49,-1.81,2.15,-0.71,1179.00,1908.00,453.00,597.00,1296.00,1866.00,957.00,1444.00,,,,,,,,,,,,1,1,1,,-668,15776,2236,-572,60,13
33.427,33.08,-0.38,-0.79,-0.16,-1.08,-2.29,-1.71,0.57,0.20,1.49,1174.00,1985.00,491.00,672.00,1186.00,1910.00,880.00,1470.00,,,,,,,,,,,,1,1,1,,-608,15912,2816,-1947,69,-427
33.448,33.13,-0.39,-1.99,1.38,-6.84,2.70,-0.48,-0.50,1.99,-0.41,1104.00,1997.00,416.00,738.00,1229.00,1872.00,944.00,1441.00,,,,,,,,,,,,1,1,1,,-948,15968,3140,-2187,-112,-1323
33.49,33.19,-0.32,-0.16,-0.78,-2.31,-0.15,1.03,-2.20,2.51,-1.20,1200.00,1968.00,447.00,666.00,1311.00,1846.00,976.00,1442.00,,,,,,,,,,,,1,1,1,,-1452,15412,3960,-1298,-317,-1386
33.551,33.24,-0.40,-0.67,-0.87,0.30,-3.50,-2.04,0.21,-0.15,0.59,1217.00,2013.00,511.00,657.00,1217.00,1954.00,930.00,1527.00,,,,,,,,,,,,1,1,1,,-1720,15464,4520,-104,-284,-881
33.612,33.30,-0.43,-1.23,-0.18,-6.96,1.25,-1.01,0.32,1.35,0.38,1185.00,2021.00,451.00,771.00,1187.00,1870.00,915.00,1447.00,,,,,,,,,,,,1,1,1,,-1776,15412,3652,1286,-157,-84
33.653,33.35,-0.33,-0.89,-0.30,-4.36,2.59,1.63,-2.25,3.38,-2.12,1185.00,2000.00,400.00,671.00,1300.00,1805.00,1010.00,1428.00,,,,,,,,,,,,1,1,1,,-1512,15348,3116,1315,262,189
33.715,33.41,-0.35,-0.41,-0.43,2.12,-3.59,-0.73,-0.57,1.04,0.13,1183.00,1969.00,497.00,613.00,1239.00,1894.00,933.00,1475.00,,,,,,,,,,,,1,1,1,,-1264,15468,2648,444,467,405
33.798,33.46,-0.42,-0.43,-0.65,-2.77,-0.68,-1.76,0.85,0.47,1.07,1198.00,1983.00,464.00,688.00,1169.00,1899.00,896.00,1471.00,,,,,,,,,,,,1,1,1,,-1180,15492,2708,-630,478,379
33.839,33.52,-0.34,-2.15,1.09,-7.20,4.94,1.16,-1.35,2.99,-0.88,1125.00,2026.00,371.00,705.00,1249.00,1795.00,951.00,1403.00,,,,,,,,,,,,1,1,1,,-1020,15656,3140,-911,309,259
33.88,33.57,-0.31,0.60,-1.03,1.33,-2.06,0.25,-1.71,1.66,-0.67,1200.00,1923.00,464.00,607.00,1295.00,1879.00,963.00,1470.00,,,,,,,,,,,,1,1,1,,-1088,15860,3556,-440,195,-318
33.943,33.63,-0.38,-0.55,-0.78,-1.69,-2.28,-1.72,0.71,-0.08,1.61,1209.00,1999.00,496.00,688.00,1177.00,1903.00,879.00,1482.00,,,,,,,,,,,,1,1,1,,-1280,15460,3468,113,114,-119
34.005,33.68,-0.35,-2.00,1.42,-7.43,3.13,0.23,-0.56,2.15,-0.13,1102.00,1996.00,411.00,747.00,1217.00,1823.00,927.00,1421.00,,,,,,,,,,,,1,1,1,,-1156,15456,3368,589,104,18
34.047,33.74,-0.28,0.41,-0.98,-2.76,0.30,1.11,-2.00,2.82,-1.05,1201.00,1935.00,440.00,670.00,1295.00,1830.00,963.00,1419.00,,,,,,,,,,,,1,1,1,,-1008,15532,3088,361,102,-91
34.109,33.79,-0.35,-0.27,-0.74,1.72,-4.96,-1.74,0.08,0.38,0.47,1200.00,1975.00,539.00,646.00,1219.00,1938.00,927.00,1500.00,,,,,,,,,,,,1,1,1,,-948,15668,2596,-61,131,-183
34.171,33.85,-0.37,-1.27,0.30,-6.79,1.44,-0.81,0.28,1.52,0.45,1155.00,1998.00,445.00,762.00,1185.00,1857.00,909.00,1435.00,,,,,,,,,,,,1,1,1,,-1148,15784,3116,-603,158,-133
34.21,33.90,-0.26,-0.65,-0.06,-4.56,2.90,1.88,-2.33,3.52,-1.87,1165.00,1969.00,395.00,671.00,1300.00,1791.00,994.00,1411.00,,,,,,,,,,,,1,1,1,,-1180,15448,3396,-961,179,-205
34.292,33.96,-0.28,-0.00,-0.72,2.20,-4.13,-0.55,-0.74,0.86,0.09,1193.00,1953.00,511.00,620.00,1247.00,1890.00,938.00,1487.00,,,,,,,,,,,,1,1,1,,-1320,15580,3656,168,111,-290
34.332,34.01,-0.35,-0.10,-0.84,-2.74,-1.04,-1.74,0.93,0.47,1.17,1203.00,1967.00,473.00,694.00,1164.00,1894.00,891.00,1467.00,,,,,,,,,,,,1,1,1,,-1464,15540,3212,771,-9,-104
34.394,34.07,-0.26,-1.69,0.85,-6.75,4.45,1.34,-1.31,3.08,-0.77,1130.00,2002.00,378.00,702.00,1242.00,1780.00,944.00,1394.00,,,,,,,,,,,,1,1,1,,-1232,15572,2912,632,70,60
34.414,34.12,-0.23,0.59,-0.59,1.80,-1.81,0.36,-1.53,1.51,-0.52,1172.00,1901.00,454.00,592.00,1280.00,1862.00,958.00,1473.00,,,,,,,,,,,,1,1,1,,-1156,15560,2876,-3,406,227
34.475,34.18,-0.33,-0.57,-0.64,-1.80,-2.39,-2.12,0.96,-0.07,1.44,1200.00,1993.00,500.00,693.00,1170.00,1921.00,887.00,1488.00,,,,,,,,,,,,1,1,1,,-1044,15436,2916,-275,470,22
34.537,34.23,-0.31,-2.12,1.42,-7.79,3.70,0.10,-0.71,2.72,-0.75,1104.00,2005.00,401.00,746.00,1230.00,1840.00,949.00,1413.00,,,,,,,,,,,,1,1,1,,-1012,15688,3036,-254,170,-178
34.597,34.29,-0.24,0.37,-0.85,-2.38,0.30,1.08,-1.98,2.32,-1.15,1193.00,1931.00,437.00,660.00,1294.00,1831.00,977.00,1451.00,,,,,,,,,,,,1,1,1,,-1196,15460,3188,-401,-199,-174
34.638,34.34,-0.31,-0.42,-0.49,1.42,-4.86,-1.79,0.12,0.36,0.76,1187.00,1973.00,539.00,652.00,1217.00,1939.00,913.00,1490.00,,,,,,,,,,,,1,1,1,,-1192,15872,3284,73,-96,16
34.7,34.40,-0.32,-1.09,0.38,-6.04,0.78,-0.41,0.15,2.16,-0.03,1146.00,1979.00,455.00,753.00,1185.00,1835.00,922.00,1417.00,,,,,,,,,,,,1,1,1,,-1100,15720,3128,292,219,31
34.762,34.45,-0.22,-0.35,-0.22,-3.69,1.78,1.66,-2.03,3.92,-1.99,1168.00,1953.00,413.00,668.00,1284.00,1792.00,993.00,1393.00,,,,,,,,,,,,1,1,1,,-976,15588,2856,530,464,20
34.805,34.51,-0.28,-0.70,0.38,1.87,-2.98,-1.43,-0.26,1.29,0.07,1138.00,1949.00,483.00,609.00,1234.00,1931.00,932.00,1463.00,,,,,,,,,,,,1,1,1,,-924,15308,2864,-722,355,102
34.907,34.56,-0.33,-0.04,-0.71,-2.60,-1.09,-1.34,0.78,1.43,0.99,1193.00,1955.00,473.00,691.00,1165.00,1872.00,884.00,1419.00,,,,,,,,,,,,1,1,1,,-1156,16100,3128,-286,11,-402
34.927,34.62,-0.25,-1.13,0.55,-6.32,4.45,1.38,-1.27,2.89,-0.41,1137.00,1974.00,375.00,690.00,1239.00,1776.00,929.00,1391.00,,,,,,,,,,,,1,1,1,,-1088,15456,2996,255,96,-205
34.968,34.67,-0.23,1.01,-0.64,2.36,-1.76,0.21,-1.25,2.40,-0.56,1166.00,1872.00,448.00,578.00,1264.00,1859.00,945.00,1424.00,,,,,,,,,,,,1,1,1,,-1244,15928,2912,1014,-8,212
35.029,34.73,-0.30,-0.37,-0.46,-0.82,-2.57,-1.73,0.72,0.57,1.68,1184.00,1968.00,496.00,670.00,1177.00,1904.00,865.00,1441.00,,,,,,,,,,,,1,1,1,,-1172,15436,2800,594,-19,444
35.132,34.78,-0.26,-1.86,1.45,-7.44,3.54,0.60,-0.98,3.18,-0.86,1097.00,1983.00,402.00,739.00,1237.00,1817.00,947.00,1392.00,,,,,,,,,,,,1,1,1,,-712,14936,2696,575,430,319
35.154,34.84,-0.19,1.00,-1.15,-2.01,-0.08,1.00,-2.18,2.91,-1.24,1199.00,1899.00,443.00,657.00,1310.00,1847.00,971.00,1421.00,,,,,,,,,,,,1,1,1,,-728,15924,2304,-964,270,-476
35.193,34.89,-0.26,-0.39,-0.45,1.01,-4.37,-1.63,0.08,1.02,0.42,1184.00,1969.00,529.00,654.00,1216.00,1929.00,919.00,1465.00,,,,,,,,,,,,1,1,1,,-1156,15924,2848,-2330,-136,-975
35.254,34.95,-0.24,-0.85,0.24,-8.53,4.75,0.15,-0.27,2.29,0.15,1150.00,1968.00,384.00,747.00,1200.00,1815.00,911.00,1403.00,,,,,,,,,,,,1,1,1,,-1156,15532,3332,-1548,-191,-309
35.337,35.00,-0.11,0.22,-0.37,-3.84,2.56,2.36,-2.28,3.93,-2.22,1166.00,1918.00,397.00,658.00,1285.00,1755.00,1005.00,1401.00,,,,,,,,,,,,1,1,2,,-1252,15528,3988,-26,-285,-656
35.378,35.06,-0.13,0.61,-0.69,2.49,-4.19,-0.42,-0.56,0.79,0.11,1178.00,1905.00,510.00,614.00,1232.00,1871.00,938.00,1490.00,,,,,,,,,,,,1,1,2,,-1380,15748,3780,257,223,-643
35.439,35.11,-0.16,0.01,-0.43,-3.08,-0.34,-0.73,0.79,1.67,0.64,1174.00,1937.00,458.00,690.00,1151.00,1826.00,897.00,1419.00,,,,,,,,,,,,1,1,2,,-1536,15444,3020,708,147,-623
35.48,35.17,-0.06,-1.05,0.88,-6.48,4.85,1.84,-1.13,2.97,-0.64,1115.00,1950.00,368.00,687.00,1219.00,1737.00,939.00,1395.00,,,,,,,,,,,,1,1,2,,-1428,15296,2544,842,-333,-316
35.541,35.22,-0.01,1.23,-0.46,3.56,-2.41,0.85,-1.20,2.29,-0.49,1150.00,1847.00,454.00,561.00,1246.00,1810.00,943.00,1427.00,,,,,,,,,,,,1,1,2,,-1364,15456,2524,119,-367,-4
35.645,35.28,-0.09,0.33,-0.63,-0.74,-2.18,-1.57,1.21,0.22,1.44,1180.00,1923.00,485.00,661.00,1143.00,1867.00,882.00,1471.00,,,,,,,,,,,,1,1,2,,-1220,15320,2996,-982,-99,29
35.706,35.33,-0.03,-1.64,1.61,-6.91,3.73,1.09,-0.94,3.28,-0.88,1083.00,1957.00,394.00,720.00,1223.00,1780.00,946.00,1387.00,,,,,,,,,,,,1,1,2,,-1180,15700,3508,-894,441,116
35.727,35.39,0.03,1.74,-1.08,-0.64,-0.83,1.20,-1.86,2.32,-1.23,1178.00,1840.00,450.00,635.00,1283.00,1817.00,981.00,1454.00,,,,,,,,,,,,1,1,2,,-1184,15804,3664,68,542,388
35.767,35.44,-0.04,-0.33,-0.52,0.93,-4.31,-1.31,-0.10,1.00,-0.19,1187.00,1968.00,528.00,655.00,1221.00,1914.00,950.00,1490.00,,,,,,,,,,,,1,1,2,,-1008,15600,3116,649,334,593
35.829,35.50,-0.04,-1.00,0.40,-6.74,1.22,-0.04,-0.11,1.96,-0.26,1143.00,1971.00,450.00,765.00,1194.00,1821.00,937.00,1437.00,,,,,,,,,,,,1,1,2,,-884,15508,2832,451,391,554
35.85,35.55,0.08,0.33,-0.36,-3.26,1.19,2.28,-2.48,4.34,-2.44,1163.00,1909.00,423.00,667.00,1301.00,1770.00,1010.00,1387.00,,,,,,,,,,,,1,1,2,,-728,15764,2464,-548,340,377
35.91,35.61,0.05,0.84,-0.75,3.21,-5.08,-0.41,-0.48,0.94,0.30,1177.00,1891.00,528.00,611.00,1226.00,1866.00,926.00,1474.00,,,,,,,,,,,,1,1,2,,-740,15732,2912,-1024,81,-218
35.992,35.66,0.04,-0.16,-0.10,-4.38,0.47,-0.25,0.46,1.97,0.73,1157.00,1933.00,449.00,711.00,1162.00,1808.00,888.00,1399.00,,,,,,,,,,,,1,1,2,,-884,15696,3372,-989,-186,-573
36.013,35.72,0.14,-0.60,0.53,-5.20,3.77,2.08,-1.39,3.66,-1.07,1127.00,1934.00,381.00,672.00,1231.00,1733.00,949.00,1373.00,,,,,,,,,,,,1,1,2,,-1028,15892,3400,-688,-299,-687
36.075,35.77,0.17,1.17,-0.38,3.01,-2.38,0.81,-1.08,2.01,-0.49,1146.00,1847.00,458.00,573.00,1239.00,1807.00,948.00,1443.00,,,,,,,,,,,,1,1,2,,-1152,15516,3680,-467,-526,-726
36.137,35.83,0.12,0.58,-0.81,-1.40,-1.88,-0.94,0.95,0.15,1.98,1186.00,1913.00,483.00,673.00,1146.00,1834.00,858.00,1454.00,,,,,,,,,,,,1,1,2,,-1448,15456,3712,353,-452,-532
36.178,35.88,0.19,-1.45,1.46,-6.66,4.46,1.56,-0.99,3.33,-0.74,1088.00,1950.00,377.00,699.00,1216.00,1750.00,938.00,1379.00,,,,,,,,,,,,1,1,2,,-1476,15300,3756,1190,80,40
36.241,35.94,0.26,1.69,-1.07,0.33,-0.95,1.57,-1.90,3.03,-1.33,1179.00,1844.00,445.00,613.00,1277.00,1792.00,974.00,1418.00,,,,,,,,,,,,1,1,2,,-1152,15432,2752,1428,752,596
36.303,35.99,0.22,0.14,-0.41,0.65,-3.61,-0.60,-0.34,0.67,0.59,1170.00,1926.00,511.00,650.00,1221.00,1873.00,916.00,1478.00,,,,,,,,,,,,1,1,2,,-940,15444,2360,148,985,709
36.367,36.05,0.22,-0.82,0.54,-6.92,1.82,0.25,-0.26,2.13,-0.36,1131.00,1950.00,437.00,758.00,1197.00,1807.00,939.00,1431.00,,,,,,,,,,,,1,1,2,,-812,15960,2492,-937,758,407
36.408,36.10,0.30,0.53,-0.73,-3.00,1.15,1.95,-2.45,3.62,-2.42,1182.00,1913.00,422.00,661.00,1307.00,1792.00,1022.00,1426.00,,,,,,,,,,,,1,1,2,,-616,15912,2704,-1096,90,-282
36.47,36.16,0.25,0.56,-0.74,2.31,-4.17,-0.88,-0.24,0.79,0.09,1182.00,1911.00,511.00,618.00,1221.00,1889.00,939.00,1491.00,,,,,,,,,,,,1,1,2,,-1128,15224,3588,-1281,-296,-321
36.533,36.21,0.19,-0.13,-0.14,-4.10,0.37,-0.78,0.89,1.53,0.69,1159.00,1933.00,449.00,705.00,1146.00,1825.00,897.00,1425.00,,,,,,,,,,,,1,1,2,,-1048,15552,4044,-1056,-55,-161
36.575,36.27,0.28,-0.49,0.35,-5.17,3.62,1.97,-1.13,3.25,-0.73,1136.00,1935.00,384.00,674.00,1216.00,1728.00,939.00,1383.00,,,,,,,,,,,,1,1,2,,-1052,15764,4152,-653,404,9
36.657,36.32,0.32,1.02,-0.31,2.69,-2.12,1.11,-1.21,2.30,-0.47,1145.00,1855.00,454.00,576.00,1241.00,1792.00,942.00,1426.00,,,,,,,,,,,,1,1,2,,-964,15544,4028,156,514,80
36.697,36.38,0.24,0.57,-0.79,-0.85,-1.92,-1.46,1.36,0.26,1.66,1185.00,1913.00,479.00,659.00,1131.00,1851.00,871.00,1460.00,,,,,,,,,,,,1,1,2,,-844,15792,3300,1131,114,49
36.739,36.43,0.33,-1.25,1.50,-6.78,4.16,2.12,-1.24,3.84,-1.03,1082.00,1933.00,384.00,708.00,1220.00,1723.00,944.00,1362.00,,,,,,,,,,,,1,1,2,,-904,15728,3128,1687,141,217
36.801,36.49,0.39,1.97,-1.04,0.39,-0.68,1.52,-1.65,2.70,-0.94,1171.00,1822.00,438.00,607.00,1261.00,1784.00,959.00,1421.00,,,,,,,,,,,,1,1,2,,-716,15628,2588,1518,-75,-141
36.843,36.54,0.33,0.34,-0.49,1.62,-3.46,-0.74,-0.11,1.33,0.11,1171.00,1915.00,498.00,623.00,1209.00,1872.00,929.00,1459.00,,,,,,,,,,,,1,1,2,,-776,15692,2576,1162,-145,-267
36.905,36.60,0.35,-0.48,0.64,-5.67,1.23,0.76,-0.99,2.61,-0.40,1118.00,1919.00,441.00,733.00,1234.00,1806.00,933.00,1406.00,,,,,,,,,,,,1,1,2,,-812,15880,2400,559,-34,-378
36.947,36.65,0.46,0.70,-0.52,-2.48,0.67,2.41,-2.69,3.86,-2.25,1165.00,1889.00,429.00,656.00,1313.00,1771.00,1008.00,1406.00,,,,,,,,,,,,1,1,2,,-944,15604,2268,-157,-4,-710
37.028,36.71,0.40,0.46,-0.69,2.63,-5.13,-0.76,-0.43,0.94,-0.07,1181.00,1916.00,535.00,626.00,1231.00,1890.00,945.00,1489.00,,,,,,,,,,,,1,1,2,,-948,16144,2352,-553,-119,-662
37.11,36.76,0.34,-0.06,-0.22,-4.71,0.17,-0.80,0.88,2.06,0.33,1162.00,1931.00,459.00,726.00,1147.00,1827.00,906.00,1409.00,,,,,,,,,,,,1,1,2,,-1224,15564,2848,-874,-305,-617
37.13,36.82,0.43,-0.44,0.56,-4.55,2.94,2.21,-1.43,4.06,-1.41,1122.00,1920.00,394.00,670.00,1231.00,1726.00,960.00,1364.00,,,,,,,,,,,,1,1,2,,-1296,15552,3312,-947,-158,-449
37.171,36.87,0.45,1.15,-0.41,2.98,-2.73,0.78,-1.06,2.24,-0.35,1149.00,1851.00,467.00,579.00,1238.00,1808.00,937.00,1425.00,,,,,,,,,,,,1,1,2,,-1400,15708,3324,-468,263,-100
37.235,36.93,0.38,0.61,-0.54,-1.17,-1.50,-0.91,1.08,0.98,1.50,1168.00,1897.00,471.00,660.00,1137.00,1825.00,867.00,1425.00,,,,,,,,,,,,1,1,2,,-1124,15852,3172,130,536,323
37.295,36.98,0.46,-1.20,1.64,-6.76,4.40,2.00,-1.27,3.73,-0.82,1073.00,1922.00,379.00,703.00,1225.00,1733.00,935.00,1360.00,,,,,,,,,,,,1,1,2,,-1176,15516,2624,335,417,46
37.336,37.04,0.52,2.04,-1.19,0.76,-0.97,1.72,-1.99,2.72,-1.17,1179.00,1824.00,442.00,603.00,1280.00,1786.00,971.00,1429.00,,,,,,,,,,,,1,1,2,,-1036,15624,2624,-204,283,253
37.397,37.09,0.47,0.17,-0.53,0.60,-3.60,-0.53,-0.24,1.44,0.09,1177.00,1930.00,511.00,651.00,1213.00,1863.00,928.00,1453.00,,,,,,,,,,,,1,1,2,,-896,15624,2912,-675,216,189
37.481,37.15,0.47,-0.36,0.47,-6.11,1.64,0.56,-0.38,2.67,-0.52,1126.00,1919.00,435.00,738.00,1198.00,1791.00,938.00,1407.00,,,,,,,,,,,,1,1,2,,-824,15944,2844,-710,129,-96
37.502,37.20,0.58,0.91,-0.83,-2.35,0.41,2.59,-2.81,3.81,-2.23,1180.00,1889.00,434.00,657.00,1317.00,1764.00,1008.00,1408.00,,,,,,,,,,,,1,1,2,,-948,15588,3120,-587,-132,-149
37.564,37.26,0.51,0.39,-0.93,3.06,-5.58,-0.88,-0.37,0.47,0.14,1198.00,1934.00,544.00,623.00,1229.00,1895.00,942.00,1508.00,,,,,,,,,,,,1,1,2,,-868,15528,3476,104,-83,26
37.604,37.31,0.46,-0.20,-0.23,-5.63,0.76,-0.49,0.44,2.02,-0.00,1166.00,1943.00,452.00,741.00,1168.00,1826.00,923.00,1424.00,,,,,,,,,,,,1,1,2,,-712,15608,3108,260,92,-130
37.666,37.37,0.55,-0.29,0.36,-4.42,2.85,2.34,-1.57,3.99,-1.58,1131.00,1919.00,395.00,668.00,1237.00,1723.00,970.00,1374.00,,,,,,,,,,,,1,1,2,,-804,15444,2588,-473,159,-111
37.728,37.42,0.58,1.00,-0.40,2.71,-2.08,1.05,-1.25,2.49,-0.36,1151.00,1861.00,453.00,575.00,1245.00,1798.00,933.00,1411.00,,,,,,,,,,,,1,1,2,,-844,15456,3240,-1859,200,-203
37.769,37.48,0.50,0.68,-0.77,-1.18,-1.26,-1.03,1.30,0.74,1.56,1181.00,1903.00,465.00,656.00,1126.00,1823.00,868.00,1436.00,,,,,,,,,,,,1,1,2,,-780,15480,3932,-1914,361,-230
37.85,37.53,0.56,-1.13,1.34,-7.24,5.10,1.74,-1.05,4.77,-1.38,1089.00,1932.00,368.00,703.00,1216.00,1740.00,946.00,1325.00,,,,,,,,,,,,1,1,2,,-928,15976,3984,-211,193,-459
37.891,37.59,0.61,1.92,-1.20,1.01,-1.35,1.55,-1.85,2.56,-1.04,1182.00,1833.00,449.00,603.00,1274.00,1791.00,967.00,1433.00,,,,,,,,,,,,1,1,2,,-852,15736,3604,1183,-99,-158
37.953,37.64,0.55,0.32,-0.92,2.61,-3.94,-0.57,0.08,1.41,0.42,1199.00,1939.00,502.00,607.00,1193.00,1850.00,912.00,1442.00,,,,,,,,,,,,1,1,2,,-900,15572,2832,1593,-379,-401
38.015,37.70,0.54,-0.43,0.41,-6.23,1.76,0.41,-0.33,2.47,-0.25,1131.00,1927.00,433.00,739.00,1198.00,1799.00,928.00,1408.00,,,,,,,,,,,,1,1,2,,-1000,15604,2740,1294,-167,-293
38.056,37.75,0.64,1.13,-1.14,-2.61,0.46,2.51,-2.95,4.27,-2.87,1195.00,1888.00,435.00,663.00,1329.00,1776.00,1035.00,1407.00,,,,,,,,,,,,1,1,2,,-1004,15732,2492,421,211,-394
38.118,37.81,0.57,0.41,-0.89,3.25,-6.28,-0.75,-0.50,0.39,0.31,1195.00,1930.00,563.00,630.00,1235.00,1892.00,935.00,1506.00,,,,,,,,,,,,1,1,2,,-1172,15412,2600,-922,272,-408
38.241,37.86,0.51,-0.19,-0.41,-6.19,0.99,-0.71,0.20,1.40,0.39,1177.00,1951.00,451.00,753.00,1188.00,1854.00,914.00,1444.00,,,,,,,,,,,,1,1,2,,-1068,15392,3036,-1107,143,-106
38.262,37.92,0.59,-0.48,-0.08,-5.49,3.49,2.17,-1.85,4.00,-2.06,1162.00,1956.00,389.00,685.00,1260.00,1748.00,995.00,1391.00,,,,,,,,,,,,1,1,2,,-1332,15452,3504,-923,-11,-112
38.283,37.97,0.60,0.60,-0.57,1.95,-2.66,0.70,-0.94,2.00,-0.29,1170.00,1899.00,474.00,602.00,1232.00,1808.00,938.00,1436.00,,,,,,,,,,,,1,1,2,,-1184,15568,3716,-444,124,18
38.324,38.03,0.53,0.59,-0.86,-1.90,-1.37,-0.73,0.76,1.29,0.92,1189.00,1915.00,474.00,677.00,1153.00,1828.00,890.00,1430.00,,,,,,,,,,,,1,1,2,,-1160,15640,3516,79,292,235
38.387,38.08,0.62,-1.15,1.27,-7.55,5.36,2.37,-1.50,3.85,-1.07,1094.00,1938.00,365.00,707.00,1232.00,1718.00,946.00,1363.00,,,,,,,,,,,,1,1,2,,-908,15712,3384,335,360,180
38.451,38.14,0.67,2.02,-1.26,1.94,-1.90,1.48,-1.97,2.73,-1.08,1184.00,1829.00,455.00,590.00,1284.00,1802.00,966.00,1425.00,,,,,,,,,,,,1,1,2,,-1008,15644,3016,351,314,-186
38.491,38.19,0.60,0.20,-0.71,-0.56,-2.73,-0.70,0.12,1.09,0.53,1188.00,1937.00,498.00,666.00,1193.00,1857.00,912.00,1456.00,,,,,,,,,,,,1,1,2,,-952,15720,2744,-42,82,-226
38.574,38.25,0.60,-0.31,0.37,-5.96,1.97,0.61,-0.70,2.40,-0.41,1131.00,1920.00,426.00,727.00,1218.00,1803.00,937.00,1418.00,,,,,,,,,,,,1,1,2,,-1192,15484,2976,-422,-82,-227
38.595,38.30,0.68,0.81,-1.00,-2.25,0.38,2.34,-2.88,3.13,-2.11,1193.00,1905.00,434.00,655.00,1328.00,1785.00,1014.00,1442.00,,,,,,,,,,,,1,1,2,,-1220,15540,3324,-360,-7,-112
38.658,38.36,0.60,0.49,-1.03,2.49,-5.69,-1.02,-0.33,0.70,0.01,1202.00,1931.00,553.00,639.00,1230.00,1904.00,945.00,1500.00,,,,,,,,,,,,1,1,2,,-1060,15744,3412,-275,195,121
38.721,38.41,0.56,-0.36,-0.21,-5.73,0.31,-0.16,-0.04,1.42,0.28,1168.00,1954.00,464.00,753.00,1192.00,1826.00,919.00,1447.00,,,,,,,,,,,,1,1,2,,-916,15700,3196,-176,367,16
38.762,38.47,0.64,-0.24,-0.14,-5.59,3.10,2.17,-2.13,3.60,-1.92,1161.00,1941.00,398.00,695.00,1279.00,1761.00,995.00,1408.00,,,,,,,,,,,,1,1,2,,-936,15932,3092,-105,283,17
38.825,38.52,0.64,0.86,-0.81,2.51,-3.42,0.59,-1.13,2.41,-0.76,1180.00,1892.00,489.00,601.00,1247.00,1825.00,955.00,1431.00,,,,,,,,,,,,1,1,2,,-904,15508,3180,-134,206,-30
38.886,38.58,0.55,0.60,-0.94,-1.91,-1.40,-1.19,0.78,0.87,1.12,1194.00,1918.00,475.00,678.00,1162.00,1861.00,887.00,1446.00,,,,,,,,,,,,1,1,2,,-764,15744,3228,24,-19,-278
38.948,38.63,0.64,-1.12,1.14,-6.86,4.98,2.30,-1.57,3.81,-0.90,1101.00,1942.00,368.00,695.00,1238.00,1726.00,938.00,1359.00,,,,,,,,,,,,1,1,2,,-896,15572,3220,-58,-126,-218
38.988,38.69,0.67,1.63,-0.91,1.52,-1.72,1.34,-1.91,2.85,-1.24,1170.00,1840.00,454.00,597.00,1283.00,1809.00,972.00,1424.00,,,,,,,,,,,,1,1,2,,-956,15676,3252,-135,100,-141
39.05,38.74,0.60,0.43,-0.96,0.35,-3.51,-0.77,0.21,0.69,0.85,1199.00,1932.00,511.00,656.00,1189.00,1858.00,903.00,1467.00,,,,,,,,,,,,1,1,2,,-1060,15496,3336,-198,291,-189
39.091,38.80,0.60,-0.67,0.37,-5.09,1.68,0.62,-0.61,2.29,-0.57,1138.00,1947.00,426.00,708.00,1212.00,1798.00,947.00,1430.00,,,,,,,,,,,,1,1,2,,-1004,15604,3196,-66,121,-144
39.153,38.85,0.70,0.93,-1.05,-2.30,0.91,2.52,-2.77,3.09,-2.08,1194.00,1899.00,422.00,647.00,1316.00,1767.00,1013.00,1443.00,,,,,,,,,,,,1,1,2,,-1060,15596,3228,-56,72,-73
39.215,38.91,0.60,0.09,-0.94,4.02,-5.90,-1.30,-0.12,0.30,0.14,1205.00,1957.00,544.00,605.00,1222.00,1914.00,945.00,1518.00,,,,,,,,,,,,1,1,2,,-1092,15576,3072,61,106,-190
