Time_Host,Time_Arduino,easingdata,CH1_Oxy,CH1_Deoxy,CH2_Oxy,CH2_Deoxy,CH3_Oxy,CH3_Deoxy,CH4_Oxy,CH4_Deoxy,CH1_PD730,CH1_PD850,CH2_PD730,CH2_PD850,CH3_PD730,CH3_PD850,CH4_PD730,CH4_PD850,Answers,airplane_playstate,trail_times,frameRate,Airplane X,Airplane Y,Correct,Wrong,Slow,AnswerRate,CorrectRate,VFTstates,VFTchoose,VFTCount,Culfstates,ax,ay,az,gx,gy,gz
1.281,0.04,0.00,0.00,0.00,0.00,0.00,0.00,0.00,0.00,0.00,658.00,959.00,704.00,817.00,1584.00,2672.00,720.00,834.00,,,,,,,,,,,,0,0,0,,-356,16212,-3320,-1309,-1096,-1393
1.302,0.10,0.00,0.00,0.00,0.00,0.00,0.00,0.00,0.00,0.00,602.00,895.00,680.00,776.00,1628.00,2670.00,816.00,807.00,,,,,,,,,,,,0,0,0,,-4,15680,-2812,-2077,-860,-532
1.322,0.15,0.00,0.00,0.00,0.00,0.00,0.00,0.00,0.00,0.00,715.00,877.00,722.00,758.00,1609.00,2721.00,741.00,889.00,,,,,,,,,,,,0,0,0,,-188,15856,-1692,-3092,409,732
1.343,0.21,0.00,0.00,0.00,0.00,0.00,0.00,0.00,0.00,0.00,620.00,978.00,704.00,805.00,1582.00,2719.00,750.00,799.00,,,,,,,,,,,,0,0,0,,80,16588,-1292,-2982,1334,391
1.364,0.26,0.00,0.00,0.00,0.00,0.00,0.00,0.00,0.00,0.00,664.00,871.00,683.00,796.00,1611.00,2705.00,790.00,850.00,,,,,,,,,,,,0,0,0,,44,16928,-1612,-1903,1881,-305
1.384,0.32,0.00,0.00,0.00,0.00,0.00,0.00,0.00,0.00,0.00,695.00,945.00,704.00,770.00,1618.00,2741.00,735.00,866.00,,,,,,,,,,,,0,0,0,,-544,16992,-1524,-1825,1614,-1460
1.404,1.06,0.00,0.00,0.00,0.00,0.00,0.00,0.00,0.00,0.00,646.00,880.00,682.00,793.00,1627.00,2702.00,815.00,822.00,,,,,,,,,,,,0,0,0,,-784,16292,-2076,912,590,-731
1.425,1.12,0.00,0.00,0.00,0.00,0.00,0.00,0.00,0.00,0.00,708.00,926.00,706.00,762.00,1610.00,2684.00,720.00,854.00,,,,,,,,,,,,0,0,0,,-1124,16696,-2540,588,-410,-1644
1.507,1.17,0.00,0.00,0.00,0.00,0.00,0.00,0.00,0.00,0.00,608.00,928.00,702.00,751.00,1535.00,2624.00,761.00,777.00,,,,,,,,,,,,0,0,0,,-1700,15940,-2164,385,-909,-1487
1.527,1.23,0.00,0.00,0.00,0.00,0.00,0.00,0.00,0.00,0.00,659.00,865.00,668.00,778.00,1571.00,2559.00,753.00,836.00,,,,,,,,,,,,0,0,0,,-2052,16060,-2100,-65,-1023,-1425
1.63,1.28,0.05,-1.05,1.00,1.09,-0.17,0.92,-0.22,1.03,0.48,635.00,926.00,688.00,751.00,1590.00,2599.00,727.00,790.00,,,,,,,,,,,,0,0,0,,-2128,15784,-1920,-458,-731,-1211
1.65,1.34,0.06,1.14,0.26,1.33,-0.67,0.29,0.35,0.23,-0.31,635.00,866.00,704.00,754.00,1559.00,2624.00,770.00,833.00,,,,,,,,,,,,0,0,0,,-2312,16208,-2296,278,-938,-759
1.692,1.39,0.08,0.54,-0.69,-0.37,-0.05,0.54,0.18,-1.31,1.86,676.00,910.00,702.00,793.00,1567.00,2611.00,704.00,835.00,,,,,,,,,,,,0,0,0,,-2504,15684,-2336,277,-1520,-590
1.753,1.45,0.14,-1.46,2.59,0.06,0.42,1.25,-0.62,3.28,-1.70,587.00,902.00,679.00,770.00,1615.00,2593.00,785.00,766.00,,,,,,,,,,,,0,0,0,,-2224,15432,-2460,728,-1005,1138
1.815,1.50,0.14,3.33,-1.96,2.01,-1.62,0.13,0.18,-3.02,3.07,688.00,843.00,732.00,753.00,1578.00,2653.00,680.00,865.00,,,,,,,,,,,,0,0,0,,-1796,16620,-2992,638,-1400,1018
1.858,1.56,0.14,-2.28,1.47,-1.27,0.49,0.07,0.45,0.05,1.22,633.00,960.00,693.00,810.00,1557.00,2640.00,711.00,805.00,,,,,,,,,,,,0,0,0,,-1408,15540,-2304,1261,-651,1432
1.918,1.61,0.17,0.21,1.59,-0.47,0.82,0.88,-0.50,2.37,-1.74,601.00,867.00,671.00,778.00,1615.00,2623.00,800.00,795.00,,,,,,,,,,,,0,0,0,,-888,16968,-2804,1180,-219,447
2.0,1.67,0.17,2.11,-1.89,1.83,-1.20,-0.00,-0.02,-1.84,1.85,701.00,883.00,718.00,750.00,1599.00,2681.00,711.00,853.00,,,,,,,,,,,,0,0,0,,-980,16412,-2660,225,-434,-426
2.023,1.72,0.13,-2.44,2.73,0.12,-0.34,-0.44,0.47,1.98,-0.59,593.00,934.00,707.00,784.00,1570.00,2693.00,757.00,783.00,,,,,,,,,,,,0,0,0,,-1288,16384,-2080,-715,-494,-748
2.084,1.78,0.13,2.13,-0.67,-1.26,1.09,0.06,-0.05,-0.26,0.04,656.00,854.00,671.00,797.00,1600.00,2677.00,762.00,841.00,,,,,,,,,,,,0,0,0,,-1580,16104,-1976,-725,-364,-654
2.147,1.83,0.14,-0.40,0.32,1.11,-0.49,0.31,-0.19,-0.01,0.85,651.00,919.00,700.00,757.00,1605.00,2661.00,726.00,815.00,,,,,,,,,,,,0,0,0,,-1576,16120,-1788,238,-25,-564
2.191,1.89,0.15,0.40,1.01,1.02,-0.80,0.37,0.40,1.58,-0.48,618.00,874.00,713.00,766.00,1553.00,2613.00,758.00,793.00,,,,,,,,,,,,0,0,0,,-1740,16664,-2472,604,-114,-616
2.252,1.94,0.19,1.05,-0.28,-0.53,0.62,0.86,0.45,-2.23,2.17,655.00,882.00,679.00,784.00,1535.00,2559.00,704.00,859.00,,,,,,,,,,,,0,0,0,,-1668,16016,-2216,451,-295,-84
2.315,2.00,0.26,-1.67,2.69,0.40,0.25,1.58,-0.43,3.47,-1.24,586.00,907.00,681.00,763.00,1589.00,2547.00,763.00,751.00,,,,,,,,,,,,0,0,0,,-1728,16272,-2368,313,-154,55
2.357,2.05,0.27,3.53,-1.59,2.29,-1.49,0.54,0.19,-0.84,0.73,672.00,828.00,723.00,742.00,1566.00,2610.00,742.00,845.00,,,,,,,,,,,,0,0,0,,-1648,16280,-2172,1738,280,-269
2.42,2.11,0.28,-1.82,1.58,-0.73,0.45,0.56,0.55,-0.33,1.68,624.00,940.00,688.00,794.00,1535.00,2583.00,698.00,807.00,,,,,,,,,,,,0,0,0,,-1620,16336,-2904,1455,248,-419
2.483,2.16,0.35,0.42,1.89,-0.21,1.01,1.59,-0.49,3.13,-1.67,589.00,853.00,661.00,766.00,1594.00,2550.00,786.00,770.00,,,,,,,,,,,,0,0,0,,-1632,16028,-2652,1454,258,-215
2.525,2.22,0.37,3.10,-1.80,2.67,-1.54,0.66,0.12,-1.39,1.81,685.00,847.00,720.00,732.00,1568.00,2602.00,707.00,839.00,,,,,,,,,,,,0,0,0,,-1556,16224,-2900,2551,340,-62
2.591,2.27,0.36,-1.61,2.89,-0.28,0.29,0.23,0.66,2.34,-0.07,579.00,900.00,688.00,783.00,1535.00,2609.00,731.00,761.00,,,,,,,,,,,,0,0,0,,-1600,16440,-3772,1825,-99,-68
2.651,2.33,0.37,2.60,0.33,-0.72,1.04,0.69,-0.00,0.82,-0.15,616.00,816.00,666.00,781.00,1578.00,2608.00,755.00,810.00,,,,,,,,,,,,0,0,0,,-1740,15968,-3616,470,-629,-169
2.735,2.38,0.38,0.41,0.83,1.21,-0.39,0.41,-0.06,-0.07,1.02,624.00,878.00,695.00,752.00,1591.00,2641.00,720.00,813.00,,,,,,,,,,,,0,0,0,,-1800,15876,-3584,-220,-527,111
2.757,2.44,0.34,0.37,1.88,0.29,-0.45,-0.30,0.41,1.65,-0.67,590.00,855.00,709.00,781.00,1571.00,2682.00,765.00,795.00,,,,,,,,,,,,0,0,0,,-1736,16044,-3720,-840,-264,198
2.798,2.49,0.33,1.30,0.21,-1.43,0.74,0.01,0.10,-0.77,1.16,635.00,862.00,686.00,810.00,1589.00,2672.00,724.00,833.00,,,,,,,,,,,,0,0,0,,-1712,15924,-3752,-1025,-286,139
2.84,2.55,0.32,-1.40,2.41,-0.20,0.13,0.22,-0.39,2.08,-0.80,592.00,904.00,693.00,784.00,1625.00,2684.00,764.00,784.00,,,,,,,,,,,,0,0,0,,-1804,16336,-3528,-10,244,-243
2.903,2.60,0.31,2.62,-0.47,1.13,-1.30,0.12,0.22,-0.54,0.23,643.00,833.00,731.00,773.00,1575.00,2651.00,758.00,846.00,,,,,,,,,,,,0,0,0,,-1640,16088,-3396,-416,632,206
2.966,2.66,0.34,-1.08,1.33,-1.48,0.62,0.86,0.45,-0.01,1.50,624.00,919.00,691.00,814.00,1535.00,2559.00,701.00,801.00,,,,,,,,,,,,0,0,0,,-1424,16232,-3656,-434,656,250
3.028,2.71,0.41,0.02,2.44,0.06,0.37,1.81,-0.63,3.52,-1.80,576.00,854.00,681.00,771.00,1599.00,2537.00,786.00,761.00,,,,,,,,,,,,0,0,0,,-1288,16264,-3844,-427,403,100
3.091,2.77,0.43,3.35,-1.72,2.16,-1.54,0.74,0.07,-1.26,1.48,679.00,837.00,727.00,747.00,1570.00,2597.00,718.00,842.00,,,,,,,,,,,,0,0,0,,-1404,16396,-3616,-905,-49,-54
3.112,2.82,0.43,-2.07,2.67,-0.13,-0.02,0.48,0.64,2.47,-0.01,591.00,922.00,698.00,785.00,1530.00,2585.00,727.00,756.00,,,,,,,,,,,,0,0,0,,-1576,15980,-3192,-804,-187,-201
3.196,2.88,0.48,2.37,0.35,-0.78,1.17,1.33,-0.17,1.94,-0.72,618.00,823.00,662.00,780.00,1574.00,2554.00,763.00,787.00,,,,,,,,,,,,0,0,0,,-1336,15968,-3116,-652,-231,64
3.239,2.93,0.50,0.90,0.11,1.87,-0.67,0.98,-0.04,-0.08,1.55,643.00,878.00,697.00,738.00,1573.00,2581.00,700.00,802.00,,,,,,,,,,,,0,0,0,,-1456,16048,-3036,-600,-172,-232
3.3,2.99,0.49,-0.50,2.29,0.72,-0.36,0.30,0.63,2.54,-0.66,586.00,875.00,700.00,766.00,1535.00,2603.00,752.00,767.00,,,,,,,,,,,,0,0,0,,-1540,15948,-2944,-1049,-331,-327
3.382,3.04,0.51,1.96,-0.33,-0.90,1.02,0.85,0.06,0.17,0.76,646.00,852.00,669.00,787.00,1568.00,2587.00,727.00,811.00,,,,,,,,,,,,0,0,0,,-1664,15944,-2820,-1240,-512,-240
3.464,3.10,0.53,-0.91,1.93,0.92,-0.11,0.83,-0.31,1.82,-0.17,602.00,898.00,688.00,755.00,1600.00,2615.00,742.00,779.00,,,,,,,,,,,,0,0,0,,-1716,15912,-2636,-647,-405,-223
3.484,3.15,0.51,2.10,-0.24,1.09,-0.96,0.15,0.09,0.02,-0.10,641.00,845.00,718.00,767.00,1585.00,2657.00,764.00,835.00,,,,,,,,,,,,0,0,0,,-1628,16032,-2520,-141,-186,-219
3.546,3.21,0.48,-0.55,0.25,-1.72,0.75,-0.03,0.24,-1.70,3.29,655.00,926.00,689.00,819.00,1578.00,2666.00,656.00,816.00,,,,,,,,,,,,0,0,0,,-1600,16100,-2928,353,156,-232
3.567,3.26,0.48,-1.14,2.48,-0.71,0.60,0.59,-0.60,3.32,-1.95,587.00,893.00,682.00,790.00,1633.00,2661.00,795.00,770.00,,,,,,,,,,,,0,0,0,,-1616,16512,-3240,399,265,-235
3.609,3.32,0.46,3.16,-1.98,1.47,-1.57,-0.09,0.04,-1.76,1.34,691.00,849.00,737.00,768.00,1597.00,2687.00,730.00,862.00,,,,,,,,,,,,0,0,0,,-1760,16120,-3104,37,-238,-306
3.67,3.37,0.46,-2.26,2.42,-1.01,0.30,0.51,0.61,1.81,0.47,601.00,935.00,697.00,806.00,1531.00,2583.00,717.00,766.00,,,,,,,,,,,,0,0,0,,-1836,16076,-3024,-169,-689,-356
3.734,3.43,0.51,1.76,0.88,-0.44,0.73,1.44,-0.14,2.29,-1.34,607.00,831.00,674.00,779.00,1568.00,2541.00,784.00,789.00,,,,,,,,,,,,0,0,0,,-1852,16160,-2776,-578,-849,-190
3.776,3.48,0.54,1.40,-0.37,1.64,-0.78,1.22,-0.08,-0.51,1.53,654.00,872.00,704.00,747.00,1569.00,2559.00,706.00,816.00,,,,,,,,,,,,0,0,0,,-1748,16120,-2604,-317,-475,-177
3.839,3.54,0.53,-1.16,2.80,0.43,-0.32,0.30,0.63,2.61,-0.70,577.00,886.00,702.00,774.00,1535.00,2603.00,753.00,766.00,,,,,,,,,,,,0,0,0,,-1800,16108,-2648,-73,-152,-326
3.9,3.59,0.57,2.02,-0.21,-0.78,0.84,1.24,-0.11,0.28,0.38,641.00,847.00,674.00,787.00,1571.00,2559.00,741.00,816.00,,,,,,,,,,,,0,0,0,,-1788,16052,-2916,45,30,-6
3.941,3.65,0.59,-0.67,1.70,0.86,-0.22,1.01,-0.25,1.84,-0.20,607.00,895.00,693.00,759.00,1590.00,2592.00,743.00,779.00,,,,,,,,,,,,0,0,0,,-1788,15956,-2868,-25,74,-44
4.002,3.70,0.58,1.82,0.18,1.29,-1.05,0.34,0.24,0.98,-0.52,630.00,845.00,719.00,763.00,1567.00,2627.00,768.00,813.00,,,,,,,,,,,,0,0,0,,-1748,16164,-2956,-255,142,-33
4.064,3.76,0.57,0.30,0.03,-1.16,0.19,0.39,0.24,-0.57,1.58,653.00,901.00,703.00,813.00,1566.00,2622.00,705.00,817.00,,,,,,,,,,,,0,0,0,,-1680,16016,-2704,-190,155,5
4.126,3.81,0.58,-1.27,2.71,-0.30,0.33,0.86,-0.50,3.41,-1.84,581.00,892.00,687.00,783.00,1616.00,2625.00,789.00,765.00,,,,,,,,,,,,0,0,0,,-1688,16208,-2784,-377,324,122
4.21,3.87,0.54,3.40,-1.98,1.80,-1.80,-0.28,0.22,-1.39,0.79,688.00,841.00,742.00,763.00,1587.00,2694.00,747.00,862.00,,,,,,,,,,,,0,0,0,,-1564,16092,-2796,-251,358,225
4.23,3.92,0.49,-2.30,1.89,-1.59,0.47,-0.36,0.43,0.83,0.72,619.00,950.00,698.00,821.00,1571.00,2687.00,720.00,791.00,,,,,,,,,,,,0,0,0,,-1572,16236,-2704,197,568,-41
4.271,3.98,0.48,0.59,1.04,-0.88,0.34,0.29,-0.32,2.33,-1.82,615.00,867.00,694.00,801.00,1617.00,2672.00,804.00,798.00,,,,,,,,,,,,0,0,0,,-1616,16188,-2912,259,723,-139
4.332,4.03,0.47,1.40,-1.01,1.11,-0.99,0.16,-0.05,-0.98,1.46,677.00,887.00,719.00,767.00,1597.00,2666.00,715.00,833.00,,,,,,,,,,,,0,0,0,,-1476,16088,-2944,-60,479,-27
4.393,4.09,0.46,-1.58,2.47,-0.13,-0.26,0.27,0.66,3.06,-0.83,592.00,909.00,707.00,790.00,1534.00,2605.00,752.00,755.00,,,,,,,,,,,,0,0,0,,-1464,16192,-2928,-93,291,41
4.456,4.14,0.50,2.25,-0.46,-0.86,1.01,1.35,-0.05,0.85,0.03,647.00,845.00,669.00,786.00,1563.00,2544.00,747.00,805.00,,,,,,,,,,,,0,0,0,,-1416,16304,-2908,-394,225,55
4.499,4.20,0.55,-0.56,1.12,1.19,-0.36,1.38,-0.32,1.30,0.41,625.00,905.00,694.00,752.00,1585.00,2559.00,726.00,783.00,,,,,,,,,,,,0,0,0,,-1512,16044,-2780,-442,285,-111
4.561,4.25,0.54,1.24,0.55,0.94,-0.93,0.43,0.35,1.70,-0.42,624.00,856.00,719.00,771.00,1555.00,2610.00,754.00,788.00,,,,,,,,,,,,0,0,0,,-1400,16072,-2692,-509,43,-258
4.622,4.31,0.55,0.61,-0.22,0.22,-1.52,0.65,0.19,-0.33,1.37,658.00,896.00,752.00,806.00,1563.00,2599.00,710.00,814.00,,,,,,,,,,,,0,0,0,,-1512,16316,-2500,-444,125,85
4.725,4.36,0.59,-1.69,2.63,0.10,0.17,1.53,-0.54,3.79,-1.61,588.00,909.00,688.00,774.00,1600.00,2559.00,774.00,749.00,,,,,,,,,,,,0,0,0,,-1236,16284,-2648,-681,103,-73
4.745,4.42,0.58,3.76,-2.10,1.86,-1.64,0.40,0.13,-0.80,0.72,688.00,832.00,735.00,758.00,1575.00,2629.00,742.00,844.00,,,,,,,,,,,,0,0,0,,-1328,16380,-2528,-778,148,132
4.786,4.47,0.58,-2.35,1.61,-1.25,0.33,0.40,0.31,0.76,1.11,629.00,959.00,699.00,813.00,1559.00,2615.00,706.00,785.00,,,,,,,,,,,,0,0,0,,-1296,16312,-2564,-600,-145,-229
4.848,4.53,0.60,0.52,1.27,-0.59,0.75,1.09,-0.52,3.15,-1.80,608.00,864.00,675.00,783.00,1611.00,2603.00,791.00,772.00,,,,,,,,,,,,0,0,0,,-1380,16220,-2540,-361,-511,-275
4.93,4.58,0.58,2.32,-1.99,1.59,-1.25,0.23,-0.03,-1.38,1.52,702.00,878.00,723.00,758.00,1593.00,2657.00,718.00,845.00,,,,,,,,,,,,0,0,0,,-1452,16280,-2096,-352,-458,-355
4.95,4.64,0.55,-2.42,2.66,-0.56,-0.09,-0.16,0.38,2.44,-0.55,595.00,935.00,706.00,800.00,1570.00,2670.00,749.00,768.00,,,,,,,,,,,,0,0,0,,-1588,16160,-2164,-192,-217,-341
4.992,4.69,0.53,1.84,-0.12,-1.44,1.06,0.31,-0.15,0.65,-0.31,640.00,851.00,674.00,803.00,1601.00,2657.00,764.00,819.00,,,,,,,,,,,,0,0,0,,-1468,16496,-2316,34,34,-383
5.053,4.75,0.54,-0.50,0.46,1.03,-0.57,0.72,-0.26,0.76,0.82,647.00,919.00,704.00,761.00,1599.00,2623.00,717.00,791.00,,,,,,,,,,,,0,0,0,,-1496,15936,-2396,-123,70,-255
5.113,4.80,0.55,0.30,1.28,0.49,-0.36,0.61,0.53,2.23,-0.58,610.00,871.00,703.00,773.00,1535.00,2579.00,753.00,775.00,,,,,,,,,,,,0,0,0,,-1456,16160,-2444,-661,-219,-462
5.175,4.86,0.57,1.11,-0.33,-0.98,0.72,1.07,0.38,-0.19,1.48,656.00,881.00,681.00,796.00,1535.00,2543.00,704.00,807.00,,,,,,,,,,,,0,0,0,,-1604,16160,-2404,-831,-340,-335
5.215,4.91,0.63,-1.64,2.52,0.10,0.41,1.75,-0.46,3.47,-1.14,591.00,910.00,679.00,769.00,1586.00,2531.00,759.00,749.00,,,,,,,,,,,,0,0,0,,-1532,16032,-2308,-470,-496,-390
5.298,4.97,0.63,3.31,-0.12,1.57,-1.42,0.53,0.22,-0.38,0.40,623.00,803.00,730.00,762.00,1563.00,2608.00,749.00,837.00,,,,,,,,,,,,0,0,0,,-1580,16220,-2180,-544,-619,-305
5.339,5.02,0.64,-1.58,1.17,-1.19,0.52,0.86,0.45,0.72,1.18,635.00,941.00,691.00,807.00,1535.00,2559.00,704.00,785.00,,,,,,,,,,,,0,0,0,,-1828,16128,-1828,-113,-309,-292
5.402,5.08,0.69,0.11,1.87,-0.50,0.86,1.71,-0.58,3.95,-2.34,593.00,864.00,670.00,778.00,1598.00,2544.00,803.00,759.00,,,,,,,,,,,,0,0,0,,-1768,16180,-2088,-226,76,-102
5.422,5.13,0.69,3.04,-2.15,2.07,-1.36,0.72,0.02,-1.23,1.57,699.00,857.00,721.00,746.00,1575.00,2603.00,714.00,839.00,,,,,,,,,,,,0,0,0,,-1612,16152,-2296,-312,319,-116
5.485,5.19,0.68,-2.56,2.71,-0.05,-0.23,0.43,0.38,2.63,-0.34,595.00,939.00,705.00,787.00,1553.00,2608.00,738.00,758.00,,,,,,,,,,,,0,0,0,,-1660,16300,-2220,-279,179,-51
5.545,5.24,0.69,2.43,-0.46,-0.68,0.83,0.91,-0.15,1.40,-0.64,645.00,839.00,673.00,784.00,1584.00,2595.00,767.00,802.00,,,,,,,,,,,,0,0,0,,-1564,16248,-2204,-45,68,-3
5.588,5.30,0.68,0.07,-0.01,1.36,-0.71,0.43,-0.14,-0.13,1.30,657.00,910.00,705.00,754.00,1597.00,2644.00,710.00,809.00,,,,,,,,,,,,0,0,0,,-1472,16376,-2224,-329,-215,107
5.671,5.35,0.64,-0.80,1.78,0.14,-0.61,-0.19,0.35,2.02,-0.85,606.00,898.00,717.00,789.00,1573.00,2675.00,767.00,787.00,,,,,,,,,,,,0,0,0,,-1496,16176,-1808,-294,-41,24
5.753,5.41,0.61,1.23,-0.76,-1.59,0.92,0.10,0.01,-0.42,0.86,670.00,887.00,681.00,811.00,1594.00,2669.00,731.00,828.00,,,,,,,,,,,,0,0,0,,-1488,16364,-1816,172,352,-65
5.773,5.46,0.62,-1.74,1.70,-0.25,0.26,0.76,-0.41,2.57,-0.69,619.00,934.00,689.00,783.00,1611.00,2629.00,753.00,767.00,,,,,,,,,,,,0,0,0,,-1572,16244,-1996,288,498,-170
5.814,5.52,0.63,2.82,-0.99,1.40,-1.21,0.83,0.03,0.36,0.03,659.00,838.00,724.00,763.00,1571.00,2591.00,754.00,821.00,,,,,,,,,,,,0,0,0,,-1532,16300,-2140,-296,163,-35
5.876,5.57,0.65,-0.86,1.28,-1.23,0.54,1.08,0.43,0.46,1.55,623.00,912.00,691.00,808.00,1530.00,2538.00,693.00,785.00,,,,,,,,,,,,0,0,0,,-1440,16384,-1924,-228,87,-114
5.937,5.63,0.72,-0.42,1.92,-0.25,0.83,2.11,-0.64,4.49,-2.29,597.00,881.00,668.00,771.00,1591.00,2507.00,793.00,742.00,,,,,,,,,,,,0,0,0,,-1508,16336,-2020,169,-16,-269
6.04,5.68,0.74,3.49,-2.20,2.11,-1.38,1.07,0.14,-1.31,1.54,695.00,843.00,721.00,745.00,1555.00,2559.00,716.00,842.00,,,,,,,,,,,,0,0,0,,-1504,16320,-2204,377,41,-256
6.061,5.74,0.75,-2.65,2.80,-0.38,0.36,0.96,0.41,2.49,0.16,593.00,940.00,687.00,785.00,1535.00,2551.00,720.00,752.00,,,,,,,,,,,,0,0,0,,-1508,16160,-2136,94,-40,-215
6.123,5.79,0.80,1.83,0.20,-0.35,1.17,1.69,-0.27,2.44,-1.04,629.00,844.00,657.00,767.00,1572.00,2525.00,769.00,778.00,,,,,,,,,,,,0,0,0,,-1580,16188,-2192,-91,-118,-127
6.146,5.85,0.83,1.30,-0.70,2.11,-0.67,1.44,-0.29,-0.07,1.49,667.00,883.00,694.00,731.00,1581.00,2551.00,702.00,803.00,,,,,,,,,,,,0,0,0,,-1468,16180,-2160,-171,-122,-256
6.205,5.90,0.82,-0.86,2.20,0.70,-0.38,0.56,0.55,2.67,-0.70,593.00,890.00,701.00,767.00,1535.00,2583.00,752.00,764.00,,,,,,,,,,,,0,0,0,,-1580,16256,-2060,-202,-38,-274
6.267,5.96,0.84,2.41,-1.05,-0.71,0.79,1.23,-0.09,0.29,0.45,666.00,853.00,675.00,786.00,1570.00,2559.00,738.00,814.00,,,,,,,,,,,,0,0,0,,-1696,16144,-2072,43,50,-183
6.309,6.01,0.84,-0.88,1.44,0.83,-0.08,0.82,-0.25,2.22,-0.33,618.00,909.00,688.00,757.00,1595.00,2611.00,743.00,770.00,,,,,,,,,,,,0,0,0,,-1560,16156,-2208,208,181,-143
6.411,6.07,0.80,2.26,-0.61,1.14,-1.02,0.09,0.13,0.84,-0.45,652.00,848.00,720.00,767.00,1584.00,2661.00,767.00,816.00,,,,,,,,,,,,0,0,0,,-1548,16132,-2372,109,151,-186
6.431,6.12,0.76,-0.17,-0.26,-1.54,0.53,0.02,0.30,-0.41,1.40,669.00,925.00,695.00,818.00,1571.00,2656.00,710.00,816.00,,,,,,,,,,,,0,0,0,,-1576,16224,-2404,-131,8,-190
6.473,6.18,0.75,-1.47,2.43,-0.77,0.46,0.53,-0.60,3.14,-2.12,592.00,906.00,688.00,795.00,1634.00,2666.00,805.00,779.00,,,,,,,,,,,,0,0,0,,-1664,16228,-2320,-121,12,-75
6.535,6.23,0.71,3.39,-2.53,1.52,-1.73,0.01,0.04,-1.41,0.87,709.00,854.00,743.00,770.00,1594.00,2676.00,744.00,861.00,,,,,,,,,,,,0,0,0,,-1620,16260,-2260,-317,56,-109
6.576,6.29,0.72,-2.34,1.75,-0.97,0.10,0.97,0.42,1.95,0.27,624.00,955.00,704.00,809.00,1534.00,2550.00,723.00,766.00,,,,,,,,,,,,0,0,0,,-1552,16264,-1940,-235,95,-106
6.638,6.34,0.79,1.55,0.71,-0.30,1.10,1.94,-0.32,2.80,-1.51,615.00,842.00,659.00,767.00,1569.00,2503.00,784.00,777.00,,,,,,,,,,,,0,0,0,,-1516,16160,-1972,-71,322,-60
6.699,6.40,0.82,1.63,-1.06,1.99,-0.84,1.53,-0.15,0.01,1.05,676.00,880.00,702.00,738.00,1566.00,2532.00,718.00,810.00,,,,,,,,,,,,0,0,0,,-1444,16272,-2324,-190,348,-147
6.78,6.45,0.83,-1.37,2.62,0.66,-0.42,0.87,0.63,3.17,-0.65,585.00,898.00,703.00,769.00,1520.00,2546.00,743.00,748.00,,,,,,,,,,,,0,0,0,,-1452,16392,-2212,-259,117,-174
6.8,6.51,0.87,2.51,-0.97,-0.89,1.30,1.63,-0.13,1.06,-0.03,662.00,848.00,659.00,781.00,1562.00,2521.00,747.00,800.00,,,,,,,,,,,,0,0,0,,-1500,16180,-2120,-269,4,-246
6.862,6.56,0.90,-0.25,0.76,1.31,-0.24,1.55,-0.31,1.86,0.30,634.00,903.00,688.00,746.00,1579.00,2541.00,723.00,768.00,,,,,,,,,,,,0,0,0,,-1608,16160,-2196,-209,-4,-96
6.923,6.62,0.90,1.78,0.10,1.17,-0.88,0.86,0.45,1.96,-0.70,633.00,848.00,714.00,763.00,1535.00,2559.00,762.00,786.00,,,,,,,,,,,,0,0,0,,-1568,16292,-1900,-288,238,-140
6.965,6.67,0.91,0.97,-0.76,-0.66,0.34,1.09,0.11,-0.41,1.53,673.00,896.00,691.00,794.00,1557.00,2559.00,705.00,813.00,,,,,,,,,,,,0,0,0,,-1556,16304,-2212,-379,197,-142
7.046,6.73,0.94,-1.45,2.36,0.24,0.25,1.65,-0.71,3.82,-1.86,594.00,907.00,683.00,768.00,1611.00,2559.00,784.00,753.00,,,,,,,,,,,,0,0,0,,-1552,16220,-2060,-237,-39,-101
7.087,6.78,0.91,4.08,-2.71,1.90,-1.71,0.29,0.07,-1.10,0.67,707.00,835.00,737.00,758.00,1583.00,2644.00,748.00,855.00,,,,,,,,,,,,0,0,0,,-1544,16340,-1984,-235,-23,-97
7.148,6.84,0.88,-2.24,1.25,-1.41,0.38,0.21,0.27,1.00,0.67,640.00,964.00,699.00,817.00,1568.00,2638.00,720.00,787.00,,,,,,,,,,,,0,0,0,,-1572,16244,-1856,-179,117,-117
7.189,6.89,0.87,0.61,0.88,-0.65,0.80,0.84,-0.49,2.75,-1.91,620.00,870.00,674.00,784.00,1616.00,2627.00,802.00,787.00,,,,,,,,,,,,0,0,0,,-1400,16316,-1956,-259,194,-96
7.251,6.95,0.84,2.07,-2.09,1.48,-1.14,0.23,-0.32,-1.40,1.42,709.00,889.00,720.00,759.00,1619.00,2679.00,722.00,848.00,,,,,,,,,,,,0,0,0,,-1504,16168,-1976,-181,185,-155
7.314,7.00,0.77,-2.51,2.47,-0.41,-0.16,-0.53,0.36,2.17,-0.68,602.00,943.00,707.00,797.00,1582.00,2710.00,758.00,779.00,,,,,,,,,,,,0,0,0,,-1440,16488,-2092,-52,160,-245
7.354,7.06,0.78,2.31,-0.99,-1.11,1.01,0.81,-0.18,0.54,-0.06,665.00,855.00,672.00,794.00,1589.00,2607.00,755.00,817.00,,,,,,,,,,,,0,0,0,,-1608,16148,-1988,-248,127,-235
7.436,7.11,0.81,-0.26,0.16,1.35,-0.60,1.46,-0.23,0.71,0.71,655.00,918.00,701.00,752.00,1575.00,2545.00,722.00,795.00,,,,,,,,,,,,0,0,0,,-1612,16220,-1964,-438,-3,-100
7.498,7.17,0.82,0.56,0.78,0.91,-0.69,0.94,0.42,1.96,-0.90,624.00,874.00,710.00,767.00,1535.00,2553.00,770.00,790.00,,,,,,,,,,,,0,0,0,,-1520,16368,-1896,-314,115,-91
7.518,7.22,0.84,1.07,-0.82,-0.54,0.54,1.21,0.33,-0.51,1.22,674.00,894.00,682.00,786.00,1535.00,2532.00,718.00,823.00,,,,,,,,,,,,0,0,0,,-1324,16236,-1832,-244,152,-161
7.579,7.28,0.88,-1.55,2.18,0.34,0.25,1.78,-0.50,3.68,-1.55,601.00,915.00,682.00,765.00,1589.00,2531.00,773.00,751.00,,,,,,,,,,,,0,0,0,,-1416,16404,-1932,-108,91,-147
7.64,7.33,0.87,3.79,-2.25,2.09,-1.65,0.67,0.18,-0.56,0.26,693.00,834.00,732.00,751.00,1563.00,2597.00,757.00,846.00,,,,,,,,,,,,0,0,0,,-1460,16324,-1916,-169,123,-94
7.682,7.39,0.88,-1.36,0.50,-1.11,0.44,0.96,0.41,0.81,0.99,656.00,950.00,693.00,806.00,1535.00,2551.00,710.00,786.00,,,,,,,,,,,,0,0,0,,-1476,16308,-1736,-264,113,-70
7.743,7.44,0.92,0.14,1.40,0.16,0.42,1.78,-0.63,2.60,-1.89,608.00,874.00,678.00,767.00,1600.00,2540.00,803.00,791.00,,,,,,,,,,,,0,0,0,,-1492,16288,-1864,-254,99,-176
7.805,7.50,0.91,3.62,-2.87,2.38,-1.46,0.77,0.00,-1.34,1.38,719.00,854.00,721.00,739.00,1575.00,2599.00,723.00,847.00,,,,,,,,,,,,0,0,0,,-1528,16312,-1788,-104,92,-123
7.907,7.55,0.89,-2.49,2.28,-0.11,-0.00,0.47,0.38,2.44,-0.50,608.00,947.00,697.00,784.00,1552.00,2604.00,747.00,767.00,,,,,,,,,,,,0,0,0,,-1564,16260,-1888,-120,143,-81
7.927,7.61,0.90,2.45,-0.84,-0.82,1.05,1.00,-0.20,1.00,-0.65,658.00,847.00,667.00,784.00,1586.00,2590.00,773.00,815.00,,,,,,,,,,,,0,0,0,,-1452,16176,-1916,-302,302,-50
7.969,7.66,0.88,0.02,-0.47,1.46,-0.72,0.47,-0.14,-0.17,1.03,674.00,923.00,704.00,751.00,1596.00,2640.00,721.00,816.00,,,,,,,,,,,,0,0,0,,-1464,16332,-1812,-471,327,-94
8.01,7.72,0.83,-0.62,1.17,0.22,-0.48,-0.13,0.26,1.98,-0.98,624.00,906.00,711.00,784.00,1579.00,2675.00,773.00,791.00,,,,,,,,,,,,0,0,0,,-1456,16260,-1848,-546,238,-147
8.073,7.77,0.79,1.10,-1.23,-1.58,0.81,0.04,0.07,-0.40,0.60,689.00,903.00,685.00,813.00,1590.00,2670.00,741.00,833.00,,,,,,,,,,,,0,0,0,,-1416,16328,-1640,-388,73,-95
8.135,7.83,0.76,-2.51,1.81,-0.18,0.10,0.27,-0.43,2.13,-0.95,624.00,960.00,694.00,784.00,1627.00,2682.00,770.00,786.00,,,,,,,,,,,,0,0,0,,-1420,16516,-1592,-90,196,-270
8.197,7.88,0.73,2.51,-1.71,1.04,-1.17,0.09,-0.01,-0.19,-0.32,689.00,865.00,727.00,773.00,1596.00,2671.00,776.00,847.00,,,,,,,,,,,,0,0,0,,-1408,16216,-1656,-189,301,-181
8.239,7.94,0.74,-1.27,-0.14,-0.81,-0.13,0.89,0.44,-0.22,1.44,678.00,963.00,711.00,809.00,1535.00,2557.00,706.00,809.00,,,,,,,,,,,,0,0,0,,-1476,16140,-1568,-220,154,-177
8.301,7.99,0.80,-1.03,2.07,-0.13,0.65,1.95,-0.62,3.86,-2.36,599.00,899.00,673.00,771.00,1594.00,2522.00,805.00,762.00,,,,,,,,,,,,0,0,0,,-1580,16208,-1728,-145,110,-109
8.362,8.05,0.82,3.20,-2.85,2.24,-1.47,1.19,-0.03,-1.25,1.07,724.00,868.00,723.00,743.00,1566.00,2559.00,734.00,851.00,,,,,,,,,,,,0,0,0,,-1480,16140,-1576,-257,10,-110
8.423,8.10,0.82,-2.83,1.86,-0.65,0.23,0.86,0.45,1.98,-0.07,626.00,971.00,695.00,796.00,1535.00,2559.00,736.00,772.00,,,,,,,,,,,,0,0,0,,-1404,16456,-1660,-244,128,-161
8.464,8.16,0.85,2.19,-0.64,-0.42,0.94,1.48,-0.24,1.84,-1.19,654.00,851.00,666.00,774.00,1575.00,2543.00,784.00,800.00,,,,,,,,,,,,0,0,0,,-1380,16176,-1656,-179,264,-44
8.546,8.21,0.88,0.20,-0.93,1.81,-0.73,1.37,-0.30,-0.36,1.22,689.00,928.00,700.00,741.00,1584.00,2559.00,716.00,818.00,,,,,,,,,,,,0,0,0,,-1436,16320,-1692,-151,256,-81
8.629,8.27,0.86,-1.25,1.65,0.38,-0.19,0.47,0.58,2.44,-1.04,615.00,917.00,698.00,773.00,1535.00,2590.00,769.00,778.00,,,,,,,,,,,,0,0,0,,-1468,16236,-1780,-308,199,-118
8.65,8.32,0.88,1.99,-1.59,-0.92,1.05,1.31,-0.21,0.47,0.09,691.00,880.00,668.00,787.00,1578.00,2559.00,750.00,816.00,,,,,,,,,,,,0,0,0,,-1392,16284,-1612,-418,101,-62
8.67,8.38,0.84,-1.50,0.95,0.79,-0.06,0.00,1.06,1.79,-0.45,642.00,944.00,688.00,758.00,1508.00,2604.00,754.00,786.00,,,,,,,,,,,,0,0,0,,-1380,16320,-1444,-190,184,-119
8.731,8.43,0.80,1.87,-0.89,1.08,-1.13,0.17,0.10,0.42,-0.69,667.00,868.00,725.00,771.00,1584.00,2655.00,783.00,835.00,,,,,,,,,,,,0,0,0,,-1276,16340,-1484,-95,195,-118
8.794,8.49,0.77,-0.63,-0.89,-1.19,0.10,0.23,0.09,-0.91,1.41,698.00,958.00,707.00,816.00,1583.00,2649.00,716.00,832.00,,,,,,,,,,,,0,0,0,,-1304,16340,-1448,24,185,-167
8.855,8.54,0.77,-2.03,2.16,-0.57,0.39,0.65,-0.62,3.32,-2.47,607.00,933.00,688.00,790.00,1633.00,2656.00,818.00,781.00,,,,,,,,,,,,0,0,0,,-1380,16304,-1628,47,171,-218
8.897,8.60,0.71,3.03,-3.13,1.61,-1.91,-0.37,0.00,-2.40,1.00,737.00,880.00,749.00,771.00,1608.00,2719.00,752.00,892.00,,,,,,,,,,,,0,0,0,,-1420,16216,-1588,233,94,-163
8.978,8.65,0.64,-3.32,1.44,-1.74,0.23,-0.60,0.36,0.34,0.33,646.00,1001.00,709.00,831.00,1584.00,2718.00,742.00,815.00,,,,,,,,,,,,0,0,0,,-1496,16316,-1568,111,57,-142
9.0,8.71,0.63,0.54,0.09,-1.72,1.02,0.37,-0.44,1.84,-1.93,648.00,891.00,679.00,813.00,1625.00,2672.00,816.00,816.00,,,,,,,,,,,,0,0,0,,-1388,16216,-1660,-92,72,-213
9.06,8.76,0.63,1.18,-1.76,1.07,-0.97,0.69,-0.11,-1.30,1.31,708.00,913.00,719.00,768.00,1587.00,2615.00,725.00,847.00,,,,,,,,,,,,0,0,0,,-1360,16204,-1612,-382,-24,-151
9.122,8.82,0.63,-2.62,2.21,0.12,-0.34,0.57,0.55,2.36,-1.10,612.00,954.00,707.00,784.00,1535.00,2582.00,773.00,782.00,,,,,,,,,,,,0,0,0,,-1384,16288,-1284,-106,81,-90
9.183,8.87,0.66,2.60,-1.71,-0.86,0.87,1.28,-0.05,-0.01,-0.19,688.00,862.00,674.00,789.00,1565.00,2551.00,768.00,838.00,,,,,,,,,,,,0,0,0,,-1444,16316,-1604,-133,170,-120
9.244,8.93,0.69,-1.27,0.64,1.00,-0.43,1.11,-0.29,0.49,0.16,650.00,943.00,699.00,759.00,1590.00,2584.00,747.00,814.00,,,,,,,,,,,,0,0,0,,-1344,16484,-1632,-132,150,-130
9.286,8.98,0.67,1.02,-0.16,0.99,-1.10,0.38,0.25,0.78,-1.05,651.00,880.00,725.00,773.00,1565.00,2622.00,793.00,831.00,,,,,,,,,,,,0,0,0,,-1400,16216,-1580,23,114,-197
9.346,9.04,0.67,0.33,-1.24,-0.97,0.05,0.57,0.22,-1.16,1.06,699.00,931.00,706.00,810.00,1562.00,2604.00,733.00,848.00,,,,,,,,,,,,0,0,0,,-1304,16316,-1680,109,61,-206
9.407,9.09,0.70,-2.54,2.48,-0.04,-0.34,1.29,-0.65,3.11,-2.31,602.00,944.00,709.00,789.00,1616.00,2591.00,814.00,784.00,,,,,,,,,,,,0,0,0,,-1384,16320,-1544,14,-2,-238
9.468,9.15,0.67,3.44,-2.91,1.67,-1.96,0.17,0.10,-1.90,0.40,723.00,861.00,750.00,770.00,1584.00,2655.00,770.00,889.00,,,,,,,,,,,,0,0,0,,-1432,16152,-1712,-37,-33,-262
9.51,9.20,0.64,-2.68,0.94,-1.59,0.28,0.16,0.28,-0.56,1.17,656.00,989.00,705.00,825.00,1569.00,2643.00,721.00,826.00,,,,,,,,,,,,0,0,0,,-1576,16120,-1724,-227,-68,-68
9.572,9.26,0.65,-0.06,0.81,-0.90,0.50,0.73,-0.51,2.16,-2.39,630.00,895.00,688.00,798.00,1621.00,2640.00,832.00,816.00,,,,,,,,,,,,0,0,0,,-1552,16200,-1520,-296,89,-71
9.654,9.31,0.61,1.79,-2.58,1.32,-1.44,-0.04,-0.08,-2.33,1.46,732.00,911.00,734.00,770.00,1606.00,2690.00,733.00,879.00,,,,,,,,,,,,0,0,0,,-1372,16316,-1688,-369,259,-55
9.716,9.37,0.56,-2.92,2.09,-0.83,-0.21,-0.48,0.33,1.80,-1.03,619.00,968.00,714.00,811.00,1583.00,2707.00,778.00,798.00,,,,,,,,,,,,0,0,0,,-1380,16328,-1624,-410,167,-58
9.737,9.42,0.54,2.04,-1.66,-1.91,1.11,0.07,-0.20,-0.13,-0.76,693.00,880.00,678.00,817.00,1613.00,2687.00,794.00,855.00,,,,,,,,,,,,0,0,0,,-1336,16300,-1636,-251,120,-124
9.779,9.48,0.49,-1.17,-0.36,0.39,-0.64,-0.36,-0.23,-0.72,0.42,685.00,965.00,715.00,782.00,1628.00,2735.00,753.00,848.00,,,,,,,,,,,,0,0,0,,-1496,16524,-1560,-150,84,-184
9.839,9.53,0.44,-0.73,0.40,-0.05,-1.03,-0.51,0.22,1.04,-1.16,652.00,929.00,736.00,804.00,1593.00,2718.00,794.00,825.00,,,,,,,,,,,,0,0,0,,-1316,16264,-1532,-279,138,-144
9.9,9.59,0.45,0.61,-1.65,-1.62,0.69,0.61,0.12,-1.14,0.90,711.00,931.00,690.00,817.00,1570.00,2608.00,739.00,851.00,,,,,,,,,,,,0,0,0,,-1364,16212,-1336,-246,131,-181
9.962,9.64,0.50,-2.51,1.81,-0.08,-0.04,1.52,-0.53,2.65,-1.63,624.00,960.00,698.00,784.00,1599.00,2559.00,791.00,784.00,,,,,,,,,,,,0,0,0,,-1440,16256,-1560,-161,136,-95
10.022,9.70,0.49,3.14,-2.68,1.82,-2.08,0.31,0.16,-1.30,-0.06,718.00,866.00,753.00,768.00,1575.00,2636.00,781.00,879.00,,,,,,,,,,,,0,0,0,,-1396,16284,-1392,-177,142,4
10.084,9.75,0.49,-2.42,0.11,-1.63,0.30,0.38,0.30,-0.63,1.03,683.00,1001.00,705.00,826.00,1561.00,2619.00,727.00,831.00,,,,,,,,,,,,0,0,0,,-1364,16308,-1520,-145,195,-218
10.104,9.81,0.52,-0.77,1.11,-0.82,0.72,1.09,-0.56,2.67,-2.45,628.00,913.00,679.00,791.00,1614.00,2605.00,827.00,801.00,,,,,,,,,,,,0,0,0,,-1324,16276,-1484,-178,222,-78
10.167,9.86,0.51,2.65,-3.39,1.58,-1.58,0.34,0.04,-2.30,1.19,753.00,900.00,736.00,765.00,1584.00,2641.00,743.00,884.00,,,,,,,,,,,,0,0,0,,-1308,16264,-1424,-217,125,-159
10.209,9.92,0.49,-3.43,1.94,-0.82,-0.03,0.19,0.43,1.44,-0.46,630.00,992.00,707.00,807.00,1555.00,2629.00,759.00,797.00,,,,,,,,,,,,0,0,0,,-1328,16364,-1340,-186,73,-238
10.272,9.97,0.51,1.68,-1.21,-1.37,1.01,0.86,-0.33,0.24,-1.00,681.00,882.00,675.00,802.00,1601.00,2613.00,799.00,848.00,,,,,,,,,,,,0,0,0,,-1356,16244,-1360,-80,-3,-226
10.333,10.03,0.50,-0.60,-0.93,0.86,-0.62,0.36,-0.17,-1.18,0.97,699.00,958.00,708.00,767.00,1602.00,2654.00,737.00,851.00,,,,,,,,,,,,0,0,0,,-1452,16248,-1380,16,108,-186
10.373,10.08,0.46,-1.59,1.35,-0.18,-0.60,-0.31,0.33,1.24,-1.27,629.00,937.00,721.00,799.00,1578.00,2689.00,796.00,821.00,,,,,,,,,,,,0,0,0,,-1424,16268,-1448,0,155,-141
10.476,10.14,0.44,1.05,-1.90,-1.49,0.54,-0.07,0.05,-1.39,0.50,715.00,921.00,694.00,816.00,1595.00,2683.00,759.00,869.00,,,,,,,,,,,,0,0,0,,-1348,16320,-1336,-107,164,-155
10.497,10.19,0.42,-2.62,1.24,-0.47,0.01,0.06,-0.43,0.93,-0.91,645.00,979.00,701.00,795.00,1633.00,2704.00,785.00,823.00,,,,,,,,,,,,0,0,0,,-1364,16220,-1516,-133,111,-139
10.538,10.25,0.35,1.70,-1.83,0.59,-1.37,-0.87,0.08,-1.10,-0.53,704.00,896.00,741.00,791.00,1616.00,2768.00,798.00,883.00,,,,,,,,,,,,0,0,0,,-1380,16392,-1624,-28,81,-108
10.6,10.30,0.31,-2.26,-0.42,-2.47,0.42,-0.41,0.24,-1.52,1.28,701.00,1009.00,711.00,851.00,1589.00,2706.00,729.00,855.00,,,,,,,,,,,,0,0,0,,-1336,16356,-1552,-241,103,-133
10.662,10.36,0.36,-1.99,1.66,-0.87,0.47,1.15,-0.64,2.71,-2.47,623.00,944.00,689.00,798.00,1619.00,2604.00,827.00,800.00,,,,,,,,,,,,0,0,0,,-1328,16272,-1496,-305,17,-206
10.722,10.41,0.35,2.77,-3.41,1.56,-1.54,0.32,0.22,-2.36,0.82,752.00,896.00,735.00,765.00,1569.00,2630.00,759.00,895.00,,,,,,,,,,,,0,0,0,,-1248,16384,-1364,-162,-3,-173
10.805,10.47,0.35,-3.57,1.58,-1.21,0.13,0.29,0.64,0.60,-0.00,644.00,1007.00,706.00,816.00,1535.00,2604.00,752.00,814.00,,,,,,,,,,,,0,0,0,,-1388,16248,-1248,-47,69,-161
10.826,10.52,0.38,1.16,-0.65,-1.05,0.96,1.00,-0.18,1.07,-1.56,667.00,887.00,673.00,793.00,1584.00,2588.00,811.00,833.00,,,,,,,,,,,,0,0,0,,-1268,16420,-1608,-79,134,-240
10.868,10.58,0.39,0.05,-1.46,1.06,-0.71,0.51,-0.07,-1.71,1.22,711.00,947.00,709.00,763.00,1589.00,2631.00,734.00,863.00,,,,,,,,,,,,0,0,0,,-1336,16176,-1396,-66,83,-147
10.951,10.63,0.38,-2.13,1.71,0.25,-0.67,0.21,0.32,1.74,-1.32,623.00,948.00,718.00,787.00,1564.00,2635.00,791.00,806.00,,,,,,,,,,,,0,0,0,,-1308,16368,-1412,-129,23,-103
11.012,10.69,0.40,1.63,-1.73,-1.53,1.01,0.77,-0.09,-1.03,0.18,701.00,896.00,677.00,807.00,1583.00,2606.00,767.00,864.00,,,,,,,,,,,,0,0,0,,-1312,16340,-1312,-155,84,-207
11.053,10.74,0.41,-2.04,0.73,0.61,-0.25,0.67,-0.24,0.58,-0.39,656.00,970.00,697.00,767.00,1599.00,2627.00,768.00,823.00,,,,,,,,,,,,0,0,0,,-1512,16328,-1380,-92,74,-220
11.095,10.80,0.39,1.09,-0.85,0.58,-1.01,-0.12,0.16,0.04,-1.19,675.00,894.00,727.00,784.00,1587.00,2681.00,810.00,859.00,,,,,,,,,,,,0,0,0,,-1392,16284,-1424,-40,71,-116
11.217,10.85,0.36,-0.77,-1.19,-1.58,0.23,-0.25,0.26,-2.16,1.25,711.00,971.00,707.00,826.00,1582.00,2687.00,739.00,878.00,,,,,,,,,,,,0,0,0,,-1380,16204,-1404,-37,210,-100
11.238,10.91,0.36,-2.65,1.98,-1.11,0.49,0.40,-0.63,2.30,-2.46,620.00,961.00,691.00,805.00,1641.00,2683.00,833.00,813.00,,,,,,,,,,,,0,0,0,,-1316,16248,-1476,-171,246,-150
11.28,10.96,0.30,2.71,-3.37,1.12,-1.82,-0.79,0.16,-3.63,1.79,751.00,897.00,752.00,784.00,1607.00,2753.00,737.00,917.00,,,,,,,,,,,,0,0,0,,-1424,16300,-1528,-189,134,-112
11.341,11.02,0.25,-3.89,1.05,-2.07,0.19,-0.77,0.35,-0.31,0.25,667.00,1035.00,715.00,843.00,1590.00,2737.00,754.00,838.00,,,,,,,,,,,,0,0,0,,-1264,16416,-1560,-147,53,-75
11.383,11.07,0.24,-0.15,0.12,-1.48,0.67,0.21,-0.65,0.99,-2.11,655.00,915.00,689.00,813.00,1648.00,2704.00,837.00,848.00,,,,,,,,,,,,0,0,0,,-1352,16260,-1456,-280,58,-278
11.425,11.13,0.25,0.48,-2.22,0.88,-0.99,0.41,-0.14,-2.39,1.32,735.00,950.00,722.00,774.00,1598.00,2647.00,739.00,884.00,,,,,,,,,,,,0,0,0,,-1360,16224,-1372,-368,-7,-183
11.487,11.18,0.25,-3.11,2.04,-0.26,-0.29,0.24,0.66,1.88,-1.20,623.00,977.00,710.00,795.00,1535.00,2608.00,784.00,799.00,,,,,,,,,,,,0,0,0,,-1388,16276,-1192,-237,77,-85
11.549,11.24,0.30,2.09,-1.86,-1.25,1.03,1.30,-0.08,-0.30,-0.47,700.00,883.00,673.00,798.00,1567.00,2551.00,784.00,854.00,,,,,,,,,,,,0,0,0,,-1444,16356,-1248,-149,204,-144
11.611,11.29,0.34,-1.77,0.44,1.05,-0.50,0.95,-0.15,-0.12,0.24,663.00,967.00,701.00,759.00,1583.00,2591.00,752.00,832.00,,,,,,,,,,,,0,0,0,,-1368,16192,-1324,9,204,-162
11.652,11.35,0.33,1.11,-0.33,0.07,-0.17,0.26,0.39,0.65,-1.16,656.00,881.00,701.00,782.00,1557.00,2625.00,800.00,838.00,,,,,,,,,,,,0,0,0,,-1316,16272,-1200,59,101,-209
11.734,11.40,0.34,0.02,-1.29,-1.48,0.62,0.53,0.29,-1.93,1.07,705.00,944.00,691.00,814.00,1557.00,2603.00,743.00,874.00,,,,,,,,,,,,0,0,0,,-1340,16252,-1384,124,82,-183
11.754,11.46,0.38,-2.90,2.03,-0.32,0.31,1.16,-0.49,2.39,-2.09,621.00,969.00,688.00,784.00,1606.00,2593.00,815.00,802.00,,,,,,,,,,,,0,0,0,,-1420,16316,-1352,4,38,-257
11.817,11.51,0.37,3.10,-3.05,1.45,-1.58,0.10,0.19,-2.14,0.17,733.00,876.00,738.00,769.00,1578.00,2655.00,783.00,903.00,,,,,,,,,,,,0,0,0,,-1456,16216,-1548,-132,12,-308
11.921,11.57,0.36,-2.77,0.34,-1.79,0.35,0.09,0.47,-0.71,0.71,679.00,1009.00,705.00,830.00,1555.00,2637.00,741.00,841.00,,,,,,,,,,,,0,0,0,,-1520,16252,-1432,-83,-38,-223
11.942,11.62,0.38,-0.82,1.07,-0.99,0.78,0.87,-0.52,1.99,-2.47,630.00,916.00,679.00,795.00,1617.00,2625.00,838.00,823.00,,,,,,,,,,,,0,0,0,,-1544,16296,-1332,27,66,-137
11.983,11.68,0.35,2.11,-3.14,1.43,-1.45,-0.16,0.09,-2.78,1.16,750.00,913.00,733.00,767.00,1594.00,2690.00,751.00,902.00,,,,,,,,,,,,0,0,0,,-1452,16240,-1360,71,293,-114
12.024,11.73,0.31,-3.53,2.12,-0.72,-0.27,-0.48,0.50,1.19,-0.97,625.00,991.00,715.00,809.00,1568.00,2694.00,784.00,816.00,,,,,,,,,,,,0,0,0,,-1400,16276,-1508,15,286,-122
12.085,11.79,0.30,1.57,-1.39,-1.35,0.65,0.03,-0.06,-0.81,-0.37,689.00,890.00,688.00,809.00,1602.00,2681.00,787.00,869.00,,,,,,,,,,,,0,0,0,,-1360,16240,-1680,-99,79,-117
12.147,11.84,0.27,-1.31,-0.50,1.59,-2.22,-0.30,-0.09,-1.43,0.68,692.00,974.00,762.00,778.00,1614.00,2718.00,752.00,866.00,,,,,,,,,,,,0,0,0,,-1404,16432,-1536,-61,119,-172
12.189,11.90,0.24,-1.46,0.96,-0.13,-0.78,-0.41,0.35,0.40,-1.15,641.00,942.00,727.00,801.00,1579.00,2698.00,803.00,846.00,,,,,,,,,,,,0,0,0,,-1460,16148,-1444,-336,80,-238
12.292,11.95,0.26,0.99,-1.86,-1.53,0.74,0.73,0.13,-1.58,0.68,714.00,922.00,687.00,813.00,1565.00,2594.00,754.00,871.00,,,,,,,,,,,,0,0,0,,-1412,16336,-1288,-313,61,-99
12.314,12.01,0.32,-2.89,1.79,-0.17,0.23,1.39,-0.33,1.56,-1.14,629.00,975.00,689.00,781.00,1586.00,2559.00,786.00,808.00,,,,,,,,,,,,0,0,0,,-1408,16284,-1256,-53,222,-83
12.374,12.06,0.32,2.56,-2.18,1.64,-1.62,0.41,0.28,-1.18,-0.29,706.00,874.00,737.00,764.00,1562.00,2617.00,789.00,880.00,,,,,,,,,,,,0,0,0,,-1344,16120,-1392,54,256,-184
12.434,12.12,0.33,-2.20,-0.10,-1.57,0.44,0.45,0.58,-1.24,1.26,688.00,998.00,699.00,821.00,1535.00,2591.00,726.00,846.00,,,,,,,,,,,,0,0,0,,-1212,16440,-1508,28,183,-193
12.516,12.17,0.39,-1.49,1.76,-0.56,0.66,1.52,-0.53,2.30,-2.38,614.00,923.00,678.00,784.00,1599.00,2559.00,829.00,811.00,,,,,,,,,,,,0,0,0,,-1404,16120,-1528,16,89,-120
12.537,12.23,0.39,2.89,-3.38,1.72,-1.45,0.42,0.17,-2.52,1.02,749.00,891.00,729.00,758.00,1571.00,2624.00,753.00,896.00,,,,,,,,,,,,0,0,0,,-1232,16236,-1444,-47,35,-147
12.578,12.28,0.39,-3.58,1.91,-0.68,-0.05,0.38,0.61,0.33,0.71,633.00,999.00,706.00,803.00,1535.00,2597.00,727.00,807.00,,,,,,,,,,,,0,0,0,,-1384,16268,-1512,-73,99,-214
12.64,12.34,0.42,1.47,-0.73,-1.09,0.97,0.95,-0.04,0.44,-1.25,666.00,878.00,673.00,794.00,1573.00,2583.00,807.00,847.00,,,,,,,,,,,,0,0,0,,-1308,16316,-1436,-63,28,-222
12.701,12.39,0.42,-0.28,-0.93,1.18,-0.59,0.53,-0.02,-1.59,1.13,695.00,946.00,703.00,757.00,1584.00,2626.00,736.00,861.00,,,,,,,,,,,,0,0,0,,-1388,16184,-1456,28,77,-161
12.764,12.45,0.38,-2.09,1.82,0.13,-0.45,-0.42,0.88,1.30,-1.12,619.00,944.00,711.00,786.00,1535.00,2661.00,789.00,816.00,,,,,,,,,,,,0,0,0,,-1360,16288,-1512,-53,273,-166
12.823,12.50,0.38,1.50,-1.74,-1.55,1.05,0.28,0.04,-1.18,0.18,703.00,901.00,676.00,807.00,1586.00,2647.00,769.00,869.00,,,,,,,,,,,,0,0,0,,-1320,16320,-1664,-177,242,-160
12.864,12.56,0.37,-2.06,0.88,0.31,-0.15,0.21,-0.18,0.66,-0.51,651.00,967.00,697.00,774.00,1607.00,2670.00,772.00,823.00,,,,,,,,,,,,0,0,0,,-1476,16244,-1524,-210,53,-136
12.925,12.61,0.32,1.16,-1.04,0.67,-1.19,-0.59,0.23,-0.77,-0.89,681.00,896.00,733.00,785.00,1595.00,2726.00,809.00,880.00,,,,,,,,,,,,0,0,0,,-1364,16144,-1300,-138,-34,-164
13.048,12.67,0.28,-1.15,-1.01,-1.78,0.30,-0.50,0.31,-2.06,1.31,709.00,981.00,707.00,831.00,1585.00,2710.00,735.00,873.00,,,,,,,,,,,,0,0,0,,-1364,16380,-1320,-125,102,-281
13.068,12.72,0.31,-2.70,2.20,-1.03,0.60,0.88,-0.52,2.40,-2.25,613.00,957.00,686.00,800.00,1617.00,2624.00,822.00,805.00,,,,,,,,,,,,0,0,0,,-1348,16284,-1460,-298,90,-155
13.088,12.78,0.32,3.23,-3.42,1.60,-1.51,0.48,0.21,-2.38,0.73,746.00,880.00,733.00,763.00,1566.00,2615.00,763.00,898.00,,,,,,,,,,,,0,0,0,,-1432,16240,-1368,-192,38,-178
13.13,12.83,0.34,-3.31,1.24,-0.89,0.08,0.78,0.57,0.46,0.29,653.00,1006.00,704.00,807.00,1527.00,2559.00,742.00,812.00,,,,,,,,,,,,0,0,0,,-1364,16356,-1392,-45,111,-151
13.19,12.89,0.40,0.79,0.06,-0.63,0.96,1.50,-0.28,1.56,-1.84,646.00,883.00,668.00,780.00,1578.00,2544.00,816.00,823.00,,,,,,,,,,,,0,0,0,,-1428,16444,-1432,-26,111,-155
13.252,12.94,0.42,0.95,-2.00,1.46,-0.72,0.79,0.08,-1.85,1.34,720.00,927.00,704.00,751.00,1568.00,2592.00,731.00,865.00,,,,,,,,,,,,0,0,0,,-1300,16292,-1528,-7,97,-224
13.293,13.00,0.42,-2.56,2.16,0.08,-0.28,0.36,0.67,1.90,-1.14,613.00,953.00,705.00,784.00,1530.00,2594.00,781.00,797.00,,,,,,,,,,,,0,0,0,,-1452,16300,-1572,-84,49,-145
13.396,13.05,0.45,2.14,-1.56,-0.75,0.94,1.19,0.03,-0.52,-0.18,688.00,874.00,670.00,784.00,1561.00,2555.00,775.00,855.00,,,,,,,,,,,,0,0,0,,-1300,16244,-1436,-114,23,-212
13.417,13.11,0.48,-1.48,0.48,1.25,-0.41,1.01,-0.10,0.36,0.08,658.00,955.00,695.00,751.00,1577.00,2582.00,752.00,820.00,,,,,,,,,,,,0,0,0,,-1448,16300,-1564,-161,10,-214
13.458,13.16,0.46,0.65,-0.12,1.07,-0.97,0.03,0.73,0.47,-0.94,654.00,892.00,719.00,768.00,1535.00,2625.00,793.00,839.00,,,,,,,,,,,,0,0,0,,-1536,16228,-1412,-74,38,-149
13.541,13.22,0.43,0.20,-1.33,-1.02,0.54,-0.18,1.13,-1.74,1.18,704.00,938.00,688.00,801.00,1508.00,2619.00,736.00,865.00,,,,,,,,,,,,0,0,0,,-1500,16288,-1424,-33,151,-118
13.563,13.27,0.45,-2.71,2.15,-0.34,0.34,0.81,-0.38,2.17,-1.81,615.00,959.00,687.00,784.00,1607.00,2622.00,806.00,803.00,,,,,,,,,,,,0,0,0,,-1368,16328,-1444,-117,244,-113
13.624,13.33,0.41,3.15,-3.04,1.47,-1.62,-0.30,0.27,-1.95,0.18,732.00,874.00,739.00,769.00,1583.00,2692.00,780.00,896.00,,,,,,,,,,,,0,0,0,,-1400,16236,-1480,-160,163,-139
13.687,13.38,0.38,-3.01,0.69,-1.68,0.37,-0.24,0.45,-0.70,0.95,669.00,1009.00,703.00,826.00,1566.00,2673.00,731.00,835.00,,,,,,,,,,,,0,0,0,,-1360,16228,-1524,-175,28,-140
13.75,13.44,0.38,-0.55,0.83,-0.82,0.72,0.48,-0.37,1.76,-2.30,635.00,912.00,679.00,791.00,1616.00,2656.00,834.00,827.00,,,,,,,,,,,,0,0,0,,-1384,16428,-1588,-42,79,-178
13.812,13.49,0.36,1.57,-2.71,1.36,-1.35,-0.06,0.11,-2.63,1.30,740.00,922.00,730.00,767.00,1590.00,2678.00,743.00,893.00,,,,,,,,,,,,0,0,0,,-1364,16316,-1548,-224,95,-217
13.854,13.55,0.36,-3.05,1.99,-0.08,-0.33,0.30,0.71,1.73,-0.75,624.00,976.00,709.00,790.00,1529.00,2598.00,767.00,794.00,,,,,,,,,,,,0,0,0,,-1440,16212,-1380,-293,26,-149
13.935,13.60,0.41,2.60,-1.71,-0.73,0.96,1.41,0.05,0.17,-0.63,688.00,862.00,669.00,783.00,1553.00,2531.00,784.00,842.00,,,,,,,,,,,,0,0,0,,-1380,16296,-1192,-67,93,-131
13.956,13.66,0.45,-0.64,-0.49,1.26,-0.23,1.20,-0.05,-0.50,0.89,683.00,948.00,688.00,747.00,1567.00,2559.00,731.00,830.00,,,,,,,,,,,,0,0,0,,-1380,16320,-1388,-10,149,-164
14.017,13.71,0.45,-0.37,0.77,1.15,-0.95,0.43,0.62,1.23,-1.03,635.00,907.00,717.00,765.00,1533.00,2591.00,786.00,816.00,,,,,,,,,,,,0,0,0,,-1404,16464,-1440,36,157,-179
14.059,13.77,0.47,1.15,-1.60,-0.92,0.67,0.86,0.45,-1.25,0.89,702.00,910.00,682.00,795.00,1535.00,2559.00,741.00,855.00,,,,,,,,,,,,0,0,0,,-1292,16188,-1632,-36,89,-186
14.121,13.82,0.51,-2.73,1.97,0.40,0.07,1.37,-0.30,2.00,-1.20,621.00,964.00,688.00,767.00,1584.00,2559.00,782.00,795.00,,,,,,,,,,,,0,0,0,,-1496,16308,-1624,-113,12,-158
14.184,13.88,0.51,2.97,-2.26,1.59,-1.25,0.51,0.22,-0.94,-0.25,704.00,862.00,723.00,758.00,1564.00,2611.00,784.00,871.00,,,,,,,,,,,,0,0,0,,-1436,16352,-1392,-209,47,-214
14.225,13.93,0.51,-2.04,-0.15,-1.38,0.61,0.47,0.58,-1.02,1.34,688.00,993.00,690.00,811.00,1535.00,2590.00,720.00,837.00,,,,,,,,,,,,0,0,0,,-1508,16264,-1360,-143,33,-265
14.308,13.99,0.55,-1.11,1.61,-0.26,0.69,1.23,-0.43,2.67,-2.37,615.00,913.00,673.00,774.00,1599.00,2582.00,823.00,799.00,,,,,,,,,,,,0,0,0,,-1520,16248,-1408,-68,87,-125
14.35,14.04,0.52,2.82,-3.11,1.92,-1.54,0.09,0.20,-2.56,1.16,739.00,887.00,730.00,754.00,1578.00,2656.00,748.00,894.00,,,,,,,,,,,,0,0,0,,-1404,16300,-1280,-77,171,-88
14.412,14.10,0.48,-3.65,2.07,-0.67,0.03,-0.31,0.84,1.09,-0.22,628.00,997.00,703.00,801.00,1535.00,2652.00,754.00,803.00,,,,,,,,,,,,0,0,0,,-1272,16264,-1528,-149,218,-155
14.491,14.15,0.48,1.21,-0.39,-0.70,0.73,0.47,-0.12,0.24,-1.00,657.00,879.00,677.00,787.00,1594.00,2639.00,799.00,848.00,,,,,,,,,,,,0,0,0,,-1384,16148,-1356,-251,89,-151
14.512,14.21,0.46,-0.32,-1.08,1.01,-0.59,0.08,-0.06,-1.73,1.25,701.00,951.00,705.00,762.00,1600.00,2675.00,733.00,863.00,,,,,,,,,,,,0,0,0,,-1336,16380,-1384,-182,-44,-125
14.572,14.26,0.41,-2.17,1.70,0.07,-0.40,-0.61,0.56,1.10,-1.06,624.00,950.00,710.00,787.00,1567.00,2704.00,789.00,821.00,,,,,,,,,,,,0,0,0,,-1408,16452,-1364,-73,86,-188
14.613,14.32,0.40,1.36,-1.82,-1.47,0.75,0.25,0.11,-1.33,0.57,708.00,908.00,686.00,811.00,1581.00,2646.00,755.00,865.00,,,,,,,,,,,,0,0,0,,-1536,16228,-1464,-241,154,-290
14.674,14.37,0.45,-2.05,1.13,0.63,-0.17,1.37,-0.30,1.06,-0.55,642.00,960.00,694.00,765.00,1584.00,2559.00,768.00,811.00,,,,,,,,,,,,0,0,0,,-1512,16336,-1224,-264,-2,-154
14.735,14.43,0.45,1.91,-1.21,1.65,-1.20,0.51,0.57,-0.08,-0.57,678.00,874.00,720.00,755.00,1535.00,2587.00,785.00,849.00,,,,,,,,,,,,0,0,0,,-1376,16292,-1052,-89,143,-93
14.777,14.48,0.47,-0.94,-0.71,-0.80,0.31,0.88,0.54,-1.06,1.36,695.00,965.00,694.00,799.00,1527.00,2551.00,720.00,838.00,,,,,,,,,,,,0,0,0,,-1416,16296,-1192,-3,191,-239
14.86,14.54,0.53,-1.91,2.15,0.10,0.41,1.64,-0.41,3.17,-2.49,606.00,929.00,679.00,769.00,1585.00,2539.00,821.00,786.00,,,,,,,,,,,,0,0,0,,-1356,16540,-1436,95,138,-157
14.901,14.59,0.53,3.46,-3.37,1.92,-1.44,0.50,0.34,-2.14,0.92,741.00,871.00,726.00,752.00,1554.00,2603.00,752.00,885.00,,,,,,,,,,,,0,0,0,,-1376,16168,-1420,13,45,-179
14.943,14.65,0.54,-2.96,1.44,-0.49,-0.01,0.71,0.67,0.74,0.30,642.00,987.00,702.00,796.00,1521.00,2559.00,738.00,803.00,,,,,,,,,,,,0,0,0,,-1484,16244,-1424,-102,-5,-169
15.004,14.70,0.59,0.90,0.11,-0.07,0.66,1.55,-0.31,1.86,-1.91,643.00,878.00,672.00,769.00,1579.00,2541.00,815.00,815.00,,,,,,,,,,,,0,0,0,,-1428,16364,-1332,-79,73,-251
15.046,14.76,0.60,1.23,-1.96,1.97,-0.86,0.81,0.18,-2.02,1.68,715.00,916.00,703.00,739.00,1559.00,2583.00,720.00,863.00,,,,,,,,,,,,0,0,0,,-1472,16248,-1656,-43,48,-275
15.129,14.81,0.58,-2.33,2.17,0.28,-0.29,0.18,0.78,2.15,-1.03,610.00,944.00,703.00,778.00,1526.00,2605.00,773.00,787.00,,,,,,,,,,,,0,0,0,,-1500,16248,-1424,-46,37,-133
15.232,14.87,0.58,1.92,-1.48,-0.92,1.19,0.64,0.21,-0.87,0.15,688.00,880.00,663.00,784.00,1561.00,2598.00,766.00,859.00,,,,,,,,,,,,0,0,0,,-1392,16272,-1420,-89,209,-89
15.253,14.92,0.58,-1.65,0.54,0.96,-0.18,0.47,-0.05,-0.00,0.25,658.00,960.00,690.00,755.00,1588.00,2634.00,750.00,828.00,,,,,,,,,,,,0,0,0,,-1448,16288,-1444,-196,229,-123
15.295,14.98,0.53,0.35,0.12,1.07,-1.03,-0.29,0.51,0.12,-0.77,649.00,897.00,721.00,769.00,1562.00,2674.00,791.00,847.00,,,,,,,,,,,,0,0,0,,-1372,16252,-1336,-247,108,-145
15.356,15.03,0.50,-0.16,-1.39,-1.30,0.40,-0.20,0.41,-2.10,1.45,711.00,953.00,697.00,813.00,1568.00,2671.00,730.00,871.00,,,,,,,,,,,,0,0,0,,-1424,16384,-1292,-197,12,-142
15.418,15.09,0.49,-2.43,1.72,-0.44,0.35,0.35,-0.36,2.39,-2.05,626.00,959.00,688.00,787.00,1619.00,2669.00,813.00,801.00,,,,,,,,,,,,0,0,0,,-1432,16312,-1308,-32,97,-59
15.46,15.14,0.44,3.03,-3.08,1.52,-1.78,-0.59,0.30,-2.65,0.68,735.00,879.00,745.00,771.00,1589.00,2721.00,769.00,909.00,,,,,,,,,,,,0,0,0,,-1464,16232,-1384,-168,194,-319
15.519,15.20,0.42,-3.01,0.80,-1.93,0.69,0.10,0.70,-0.10,0.70,665.00,1006.00,694.00,827.00,1535.00,2619.00,733.00,821.00,,,,,,,,,,,,0,0,0,,-1492,16192,-1352,-245,43,-183
15.622,15.25,0.48,-0.11,0.71,-0.68,0.89,1.55,-0.31,2.43,-2.19,634.00,899.00,671.00,783.00,1579.00,2541.00,819.00,803.00,,,,,,,,,,,,0,0,0,,-1348,16348,-1176,-142,86,-107
15.642,15.31,0.49,2.12,-2.75,2.24,-1.32,0.86,0.45,-2.13,1.54,734.00,903.00,717.00,740.00,1535.00,2559.00,727.00,870.00,,,,,,,,,,,,0,0,0,,-1420,16356,-1384,-46,204,-195
15.684,15.36,0.50,-2.85,2.31,0.17,0.06,0.69,0.70,2.02,-0.70,611.00,960.00,691.00,774.00,1519.00,2559.00,761.00,784.00,,,,,,,,,,,,0,0,0,,-1412,16404,-1416,30,124,-148
15.745,15.42,0.54,2.42,-1.41,-0.59,1.00,1.27,0.09,0.18,-0.47,679.00,861.00,666.00,778.00,1553.00,2542.00,777.00,838.00,,,,,,,,,,,,0,0,0,,-1396,16204,-1384,0,49,-257
15.786,15.47,0.57,-0.52,-0.50,1.82,-0.55,1.13,0.05,-0.34,0.78,682.00,944.00,693.00,737.00,1561.00,2559.00,733.00,827.00,,,,,,,,,,,,0,0,0,,-1456,16208,-1512,-64,18,-123
15.847,15.53,0.56,-0.20,0.77,1.19,-0.75,0.37,0.78,1.09,-0.87,633.00,901.00,709.00,760.00,1521.00,2586.00,781.00,817.00,,,,,,,,,,,,0,0,0,,-1436,16392,-1412,-92,54,-188
15.888,15.58,0.58,1.38,-1.57,-0.79,0.76,0.86,0.45,-1.21,1.00,698.00,901.00,677.00,789.00,1535.00,2559.00,736.00,851.00,,,,,,,,,,,,0,0,0,,-1384,16312,-1444,-57,106,-253
15.949,15.64,0.61,-2.36,1.82,0.29,0.13,1.32,-0.23,2.21,-1.32,622.00,954.00,687.00,769.00,1579.00,2559.00,784.00,791.00,,,,,,,,,,,,0,0,0,,-1572,16280,-1508,7,83,-161
16.011,15.69,0.59,3.08,-2.43,1.87,-1.42,0.12,0.37,-1.42,0.02,709.00,862.00,726.00,753.00,1562.00,2640.00,779.00,881.00,,,,,,,,,,,,0,0,0,,-1504,16268,-1348,-33,180,-90
16.072,15.75,0.57,-2.08,0.02,-1.42,0.44,0.17,0.48,-1.09,1.26,682.00,990.00,697.00,816.00,1552.00,2628.00,724.00,841.00,,,,,,,,,,,,0,0,0,,-1440,16340,-1592,-123,251,-115
16.093,15.80,0.58,-1.11,1.37,-0.39,0.47,0.76,-0.34,2.42,-2.37,623.00,919.00,683.00,783.00,1605.00,2624.00,827.00,807.00,,,,,,,,,,,,0,0,0,,-1460,16284,-1492,-204,95,-136
16.154,15.86,0.54,2.49,-3.24,2.05,-1.74,-0.21,0.26,-2.76,1.25,749.00,902.00,736.00,754.00,1581.00,2683.00,747.00,899.00,,,,,,,,,,,,0,0,0,,-1404,16332,-1404,-263,32,-131
16.215,15.91,0.48,-3.68,1.94,-0.98,0.03,-0.64,0.95,0.74,-0.08,633.00,1002.00,707.00,811.00,1535.00,2679.00,753.00,811.00,,,,,,,,,,,,0,0,0,,-1508,16360,-1220,-120,58,-162
16.278,15.97,0.46,0.27,-0.63,-1.36,0.96,0.08,0.07,0.24,-1.05,677.00,918.00,677.00,803.00,1589.00,2666.00,801.00,849.00,,,,,,,,,,,,0,0,0,,-1364,16480,-1436,-77,170,-250
16.339,16.02,0.45,-0.35,-1.14,1.15,-0.85,0.23,0.07,-1.81,1.58,704.00,954.00,713.00,763.00,1585.00,2651.00,721.00,858.00,,,,,,,,,,,,0,0,0,,-1416,16164,-1384,-268,143,-207
16.38,16.08,0.44,-1.83,1.79,0.52,-0.68,0.30,0.83,1.43,-0.91,617.00,935.00,715.00,779.00,1519.00,2590.00,778.00,807.00,,,,,,,,,,,,0,0,0,,-1480,16224,-1244,-212,3,-161
16.44,16.13,0.47,1.67,-1.74,-0.70,0.73,1.08,0.38,-0.77,0.58,701.00,895.00,677.00,787.00,1534.00,2541.00,747.00,846.00,,,,,,,,,,,,0,0,0,,-1476,16452,-1204,-2,150,-177
16.482,16.19,0.52,-1.96,1.19,0.79,-0.06,1.36,-0.08,1.07,-0.33,639.00,955.00,688.00,758.00,1565.00,2545.00,759.00,806.00,,,,,,,,,,,,0,0,0,,-1420,16336,-1248,42,182,-135
16.545,16.24,0.51,2.09,-1.35,1.57,-1.17,0.32,0.63,-0.20,-0.53,681.00,871.00,720.00,757.00,1535.00,2602.00,785.00,852.00,,,,,,,,,,,,0,0,0,,-1516,16336,-1392,-3,126,-239
16.607,16.30,0.52,-1.19,-0.68,-1.36,0.44,0.77,0.59,-1.44,1.56,697.00,974.00,696.00,814.00,1526.00,2559.00,717.00,846.00,,,,,,,,,,,,0,0,0,,-1404,16124,-1440,-83,61,-170
16.689,16.35,0.57,-1.64,1.79,-0.16,0.61,1.51,-0.35,3.15,-2.37,615.00,928.00,675.00,773.00,1584.00,2548.00,816.00,784.00,,,,,,,,,,,,0,0,0,,-1404,16320,-1464,-103,12,-193
16.71,16.41,0.55,3.57,-3.53,2.16,-1.54,0.24,0.66,-2.15,0.97,746.00,871.00,727.00,747.00,1535.00,2608.00,750.00,884.00,,,,,,,,,,,,0,0,0,,-1524,16400,-1356,-99,75,-274
16.752,16.46,0.54,-3.18,1.57,-0.89,0.26,0.26,0.82,0.51,0.45,640.00,992.00,697.00,803.00,1521.00,2595.00,735.00,807.00,,,,,,,,,,,,0,0,0,,-1464,16192,-1468,-52,57,-243
16.813,16.52,0.57,1.01,-0.01,-0.62,0.90,1.23,-0.09,1.36,-1.68,646.00,877.00,670.00,781.00,1570.00,2559.00,812.00,826.00,,,,,,,,,,,,0,0,0,,-1492,16232,-1300,-26,100,-161
16.874,16.57,0.56,0.75,-1.77,1.44,-0.74,0.22,0.27,-2.09,1.65,714.00,929.00,705.00,752.00,1568.00,2637.00,722.00,866.00,,,,,,,,,,,,0,0,0,,-1508,16220,-1312,-75,187,-166
16.916,16.63,0.51,-2.47,2.09,0.30,-0.56,-0.38,0.87,1.70,-1.07,614.00,951.00,713.00,783.00,1535.00,2658.00,781.00,802.00,,,,,,,,,,,,0,0,0,,-1524,16120,-1568,-107,170,-167
16.978,16.68,0.49,2.11,-1.89,-1.21,1.02,0.20,0.24,-1.05,0.16,701.00,883.00,673.00,797.00,1571.00,2641.00,768.00,865.00,,,,,,,,,,,,0,0,0,,-1520,16268,-1436,-196,64,-142
17.061,16.74,0.47,-1.72,0.56,0.70,-0.38,0.01,0.08,-0.12,0.24,658.00,962.00,701.00,767.00,1590.00,2673.00,752.00,832.00,,,,,,,,,,,,0,0,0,,-1480,16280,-1388,-156,123,-83
17.121,16.79,0.41,0.33,-0.26,0.51,-0.86,-0.78,0.58,0.01,-0.88,663.00,907.00,722.00,783.00,1570.00,2721.00,797.00,853.00,,,,,,,,,,,,0,0,0,,-1476,16204,-1256,-90,125,-68
17.142,16.85,0.36,-0.48,-1.23,-1.56,0.33,-0.57,0.49,-2.32,1.65,709.00,961.00,703.00,823.00,1572.00,2705.00,725.00,874.00,,,,,,,,,,,,0,0,0,,-1492,16312,-1352,-97,183,-228
17.204,16.90,0.38,-2.67,2.04,-0.47,0.25,0.81,-0.43,2.47,-1.98,618.00,960.00,692.00,790.00,1611.00,2625.00,809.00,797.00,,,,,,,,,,,,0,0,0,,-1472,16228,-1344,-244,153,-192
17.266,16.96,0.37,3.36,-3.14,1.95,-1.82,0.25,0.42,-2.13,0.64,733.00,869.00,741.00,759.00,1554.00,2623.00,763.00,891.00,,,,,,,,,,,,0,0,0,,-1408,16224,-1236,-137,75,-123
17.308,17.01,0.39,-2.44,0.15,-0.91,0.11,0.70,0.68,0.10,0.64,682.00,1001.00,703.00,807.00,1520.00,2559.00,733.00,816.00,,,,,,,,,,,,0,0,0,,-1472,16356,-1280,-15,164,-127
17.368,17.07,0.45,-0.09,0.85,-0.39,0.79,1.48,-0.24,2.04,-2.00,629.00,895.00,671.00,776.00,1575.00,2543.00,816.00,811.00,,,,,,,,,,,,0,0,0,,-1420,16400,-1516,-51,183,-134
17.451,17.12,0.45,1.78,-2.60,2.11,-1.38,0.52,0.35,-2.26,1.68,733.00,912.00,721.00,745.00,1553.00,2601.00,723.00,871.00,,,,,,,,,,,,0,0,0,,-1320,16260,-1536,-76,82,-233
17.492,17.18,0.44,-2.88,2.20,0.50,-0.81,0.18,0.85,1.96,-0.85,615.00,964.00,720.00,782.00,1521.00,2601.00,768.00,789.00,,,,,,,,,,,,0,0,0,,-1492,16192,-1444,-132,2,-141
17.532,17.23,0.46,2.43,-1.68,-0.87,1.12,0.86,0.45,-0.25,-0.27,689.00,867.00,665.00,784.00,1535.00,2559.00,775.00,848.00,,,,,,,,,,,,0,0,0,,-1460,16372,-1336,-137,60,-134
17.593,17.29,0.47,-1.06,-0.10,1.57,-0.67,0.75,0.10,-0.45,0.82,674.00,954.00,701.00,747.00,1567.00,2594.00,733.00,830.00,,,,,,,,,,,,0,0,0,,-1580,16316,-1324,-148,120,-256
17.634,17.34,0.44,-0.37,0.57,0.70,-0.72,-0.10,0.83,0.68,-0.85,642.00,912.00,714.00,774.00,1530.00,2631.00,786.00,830.00,,,,,,,,,,,,0,0,0,,-1420,16352,-1448,-34,60,-186
17.695,17.40,0.43,0.48,-1.42,-1.04,0.58,0.18,0.44,-1.83,1.13,704.00,930.00,687.00,801.00,1555.00,2630.00,739.00,869.00,,,,,,,,,,,,0,0,0,,-1496,16172,-1340,-40,93,-133
17.8,17.45,0.44,-2.78,1.93,-0.38,0.36,0.58,-0.22,1.02,-0.07,623.00,967.00,687.00,785.00,1600.00,2635.00,749.00,802.00,,,,,,,,,,,,0,0,0,,-1400,16220,-1444,-96,223,-121
17.821,17.51,0.39,2.84,-2.63,1.56,-1.70,-0.53,0.44,-1.98,0.26,720.00,875.00,741.00,768.00,1575.00,2704.00,777.00,895.00,,,,,,,,,,,,0,0,0,,-1560,16264,-1440,-221,150,-153
17.882,17.56,0.35,-3.81,0.74,-1.70,0.22,-0.46,0.58,-1.17,1.22,677.00,1040.00,709.00,830.00,1561.00,2687.00,727.00,845.00,,,,,,,,,,,,0,0,0,,-1420,16304,-1416,-231,24,-137
17.943,17.62,0.34,-1.54,1.48,-0.85,0.57,0.25,-0.26,2.06,-2.34,624.00,932.00,685.00,795.00,1613.00,2672.00,831.00,818.00,,,,,,,,,,,,0,0,0,,-1420,16280,-1196,-201,-6,-161
17.984,17.67,0.29,2.08,-3.18,1.16,-1.48,-0.70,0.16,-3.20,1.45,752.00,915.00,738.00,776.00,1604.00,2743.00,745.00,910.00,,,,,,,,,,,,0,0,0,,-1408,16388,-1280,-110,143,-249
18.045,17.73,0.24,-3.65,2.05,-0.98,-0.21,-0.74,0.98,0.93,-0.31,629.00,998.00,716.00,816.00,1535.00,2687.00,760.00,810.00,,,,,,,,,,,,0,0,0,,-1440,16208,-1248,-275,154,-245
18.086,17.78,0.27,1.72,-1.06,-1.27,1.01,0.79,0.21,0.28,-0.92,675.00,877.00,674.00,799.00,1557.00,2583.00,795.00,845.00,,,,,,,,,,,,0,0,0,,-1428,16248,-1236,-243,27,-65
18.188,17.84,0.28,-0.60,-0.66,1.55,-0.75,0.59,0.54,-1.41,1.47,689.00,951.00,704.00,749.00,1535.00,2580.00,720.00,847.00,,,,,,,,,,,,0,0,0,,-1404,16312,-1216,-8,193,-103
18.209,17.89,0.28,-1.41,1.41,0.76,-0.66,0.23,0.85,1.41,-0.98,625.00,929.00,711.00,771.00,1519.00,2595.00,781.00,809.00,,,,,,,,,,,,0,0,0,,-1352,16228,-1356,22,205,-181
18.25,17.95,0.31,1.25,-1.58,-1.04,0.85,0.86,0.45,-1.00,0.61,700.00,906.00,677.00,795.00,1535.00,2559.00,749.00,853.00,,,,,,,,,,,,0,0,0,,-1492,16428,-1292,2,95,-195
18.311,18.00,0.34,-2.40,1.45,0.31,0.09,0.87,0.06,1.44,-0.65,635.00,965.00,688.00,769.00,1567.00,2585.00,767.00,801.00,,,,,,,,,,,,0,0,0,,-1540,16220,-1332,-65,65,-166
18.353,18.06,0.32,2.26,-1.60,1.59,-1.25,0.08,0.71,-0.64,-0.36,688.00,871.00,723.00,758.00,1535.00,2621.00,784.00,863.00,,,,,,,,,,,,0,0,0,,-1396,16264,-1172,-128,33,-139
18.415,18.11,0.33,-1.68,-0.30,-1.15,0.32,0.35,0.69,-1.32,1.52,689.00,983.00,698.00,810.00,1529.00,2594.00,717.00,843.00,,,,,,,,,,,,0,0,0,,-1408,16348,-1352,-132,127,-231
18.476,18.17,0.36,-1.67,1.80,-0.33,0.47,1.00,-0.14,2.51,-2.18,615.00,929.00,682.00,781.00,1581.00,2586.00,817.00,800.00,,,,,,,,,,,,0,0,0,,-1492,16152,-1304,-62,44,-242
18.538,18.22,0.33,2.93,-3.14,2.12,-1.73,-0.12,0.56,-2.57,1.14,739.00,884.00,735.00,752.00,1553.00,2652.00,749.00,895.00,,,,,,,,,,,,0,0,0,,-1492,16268,-1408,-1,69,-112
18.58,18.28,0.31,-3.90,2.07,-0.83,0.03,-0.20,0.80,0.40,0.28,631.00,1007.00,705.00,806.00,1535.00,2643.00,743.00,814.00,,,,,,,,,,,,0,0,0,,-1448,16340,-1380,-137,218,-50
18.641,18.33,0.31,0.92,-0.27,-0.87,0.79,0.37,0.14,0.51,-1.14,656.00,886.00,677.00,791.00,1575.00,2631.00,801.00,842.00,,,,,,,,,,,,0,0,0,,-1468,16320,-1480,-221,218,-113
18.704,18.39,0.29,-0.10,-1.28,1.01,-0.59,-0.17,0.21,-2.15,1.57,706.00,948.00,705.00,762.00,1584.00,2682.00,726.00,870.00,,,,,,,,,,,,0,0,0,,-1468,16204,-1276,-261,23,-124
18.786,18.44,0.23,-2.87,2.26,0.07,-0.74,-0.94,1.05,1.19,-0.97,613.00,962.00,723.00,794.00,1535.00,2704.00,784.00,816.00,,,,,,,,,,,,0,0,0,,-1400,16348,-1288,-173,-4,-145
18.807,18.50,0.20,1.49,-2.10,-1.63,0.80,-0.37,0.29,-1.50,0.31,717.00,910.00,686.00,815.00,1583.00,2698.00,768.00,877.00,,,,,,,,,,,,0,0,0,,-1376,16540,-1260,-66,171,-167
18.888,18.55,0.18,-2.24,0.80,0.12,-0.34,-0.15,0.03,0.57,-0.14,656.00,976.00,707.00,784.00,1599.00,2693.00,758.00,818.00,,,,,,,,,,,,0,0,0,,-1384,16092,-1344,-204,194,-261
18.909,18.61,0.16,0.95,-0.72,1.28,-1.43,-0.29,0.84,-0.00,-0.69,672.00,896.00,734.00,771.00,1535.00,2651.00,789.00,849.00,,,,,,,,,,,,0,0,0,,-1556,16220,-1088,-279,4,-105
18.973,18.66,0.19,-0.34,-1.28,-1.15,0.32,0.76,0.60,-1.48,1.57,709.00,957.00,698.00,810.00,1525.00,2559.00,717.00,847.00,,,,,,,,,,,,0,0,0,,-1448,16264,-1000,-118,128,-104
19.033,18.72,0.25,-2.38,2.25,0.11,0.30,1.42,-0.31,2.99,-2.13,608.00,944.00,683.00,771.00,1583.00,2554.00,808.00,784.00,,,,,,,,,,,,0,0,0,,-1512,16332,-1368,-47,186,-167
19.075,18.77,0.24,3.54,-3.45,2.42,-2.09,0.18,0.68,-2.34,0.84,743.00,870.00,745.00,750.00,1535.00,2613.00,758.00,894.00,,,,,,,,,,,,0,0,0,,-1408,16304,-1432,24,166,-93
19.135,18.83,0.24,-3.40,1.53,-1.52,0.82,0.21,0.88,0.09,0.74,644.00,1002.00,684.00,811.00,1517.00,2595.00,729.00,814.00,,,,,,,,,,,,0,0,0,,-1452,16220,-1312,-31,92,-212
19.198,18.88,0.29,0.34,0.38,-0.50,0.86,1.21,-0.05,2.04,-2.00,640.00,891.00,670.00,778.00,1567.00,2558.00,816.00,811.00,,,,,,,,,,,,0,0,0,,-1320,16276,-1332,-134,34,-120
19.259,18.94,0.30,1.55,-2.35,1.84,-0.97,0.43,0.59,-1.85,1.60,726.00,914.00,709.00,745.00,1535.00,2593.00,721.00,859.00,,,,,,,,,,,,0,0,0,,-1356,16340,-1304,-120,115,-202
19.3,18.99,0.28,-2.77,2.22,0.26,-0.31,0.04,0.95,2.11,-0.88,613.00,959.00,704.00,779.00,1516.00,2608.00,767.00,785.00,,,,,,,,,,,,0,0,0,,-1532,16312,-1388,-172,45,-242
19.341,19.05,0.29,2.07,-1.53,-0.65,0.80,0.44,0.59,-0.61,0.04,688.00,876.00,674.00,784.00,1535.00,2592.00,767.00,853.00,,,,,,,,,,,,0,0,0,,-1560,16292,-1464,-109,28,-120
19.425,19.10,0.29,-1.59,0.21,1.21,-0.39,0.30,0.25,-0.18,0.50,669.00,966.00,695.00,752.00,1567.00,2630.00,742.00,828.00,,,,,,,,,,,,0,0,0,,-1520,16284,-1252,-51,164,-105
19.485,19.16,0.25,0.12,0.09,0.80,-0.91,-0.53,0.91,0.64,-0.83,653.00,906.00,720.00,775.00,1535.00,2670.00,786.00,831.00,,,,,,,,,,,,0,0,0,,-1464,16204,-1272,-133,210,-175
19.527,19.21,0.22,0.15,-1.50,-1.33,0.54,-0.34,0.65,-1.91,1.39,711.00,944.00,692.00,811.00,1552.00,2669.00,730.00,866.00,,,,,,,,,,,,0,0,0,,-1464,16372,-1356,-203,54,-148
19.568,19.27,0.22,-2.83,2.01,-0.45,0.22,0.16,-0.08,2.15,-1.60,621.00,967.00,693.00,790.00,1600.00,2669.00,797.00,799.00,,,,,,,,,,,,0,0,0,,-1492,16296,-1260,-134,14,-154
19.629,19.32,0.16,2.90,-2.93,1.65,-1.87,-0.91,0.57,-2.19,0.28,731.00,880.00,747.00,769.00,1575.00,2736.00,779.00,902.00,,,,,,,,,,,,0,0,0,,-1404,16260,-1276,-77,91,-117
19.689,19.38,0.12,-3.07,0.41,-1.78,0.24,-0.76,0.79,-1.01,1.24,680.00,1019.00,709.00,832.00,1552.00,2704.00,724.00,839.00,,,,,,,,,,,,0,0,0,,-1484,16232,-1332,-196,152,-256
19.751,19.43,0.14,-0.55,0.83,-0.68,0.70,0.68,-0.15,2.10,-2.09,635.00,912.00,678.00,787.00,1591.00,2619.00,819.00,811.00,,,,,,,,,,,,0,0,0,,-1460,16260,-1040,-261,48,-165
19.792,19.49,0.15,2.14,-3.10,1.98,-1.49,0.28,0.64,-2.40,1.55,748.00,911.00,727.00,751.00,1535.00,2605.00,730.00,879.00,,,,,,,,,,,,0,0,0,,-1424,16228,-1172,-116,112,-142
19.855,19.54,0.17,-3.16,2.15,-0.07,-0.02,0.54,0.92,1.83,-0.42,620.00,976.00,697.00,783.00,1505.00,2559.00,752.00,784.00,,,,,,,,,,,,0,0,0,,-1556,16356,-1244,-90,156,-132
19.917,19.60,0.21,1.81,-1.29,-1.47,1.16,1.00,0.40,0.15,-0.60,682.00,879.00,671.00,802.00,1535.00,2548.00,783.00,842.00,,,,,,,,,,,,0,0,0,,-1496,16368,-1240,-44,151,-157
19.998,19.65,0.23,-0.81,-0.51,1.48,-0.64,0.58,0.54,-0.82,1.28,686.00,955.00,701.00,749.00,1535.00,2581.00,720.00,832.00,,,,,,,,,,,,0,0,0,,-1476,16276,-1360,7,133,-213
20.058,19.71,0.22,-0.71,0.94,0.73,-0.75,0.05,0.94,1.35,-0.88,633.00,915.00,715.00,774.00,1517.00,2608.00,778.00,809.00,,,,,,,,,,,,0,0,0,,-1624,16192,-1316,-80,31,-162
20.079,19.76,0.25,1.16,-1.65,-0.89,0.64,0.81,0.53,-1.05,0.90,704.00,911.00,683.00,795.00,1530.00,2559.00,738.00,848.00,,,,,,,,,,,,0,0,0,,-1456,16368,-1324,-105,79,-158
20.12,19.82,0.30,-2.66,1.83,0.25,0.14,1.20,-0.05,2.07,-1.01,625.00,965.00,687.00,770.00,1567.00,2559.00,773.00,789.00,,,,,,,,,,,,0,0,0,,-1516,16360,-1216,-75,103,-234
20.182,19.87,0.28,2.82,-2.21,1.77,-1.36,-0.16,0.79,-0.96,-0.01,704.00,866.00,725.00,755.00,1535.00,2640.00,774.00,866.00,,,,,,,,,,,,0,0,0,,-1504,16180,-1332,-12,63,-161
20.222,19.93,0.26,-2.10,-0.02,-1.37,0.37,-0.08,0.88,-1.00,1.49,684.00,992.00,699.00,816.00,1525.00,2625.00,714.00,833.00,,,,,,,,,,,,0,0,0,,-1544,16216,-1288,-6,177,-93
20.284,19.98,0.28,-1.27,1.48,-0.30,0.52,0.68,-0.15,2.41,-2.12,621.00,922.00,680.00,779.00,1591.00,2619.00,816.00,802.00,,,,,,,,,,,,0,0,0,,-1604,16312,-1312,-137,228,-121
20.408,20.04,0.24,2.44,-3.30,1.92,-1.69,-0.42,0.54,-2.80,1.51,752.00,905.00,736.00,757.00,1563.00,2685.00,737.00,894.00,,,,,,,,,,,,0,0,0,,-1456,16340,-1380,-247,142,-119
20.429,20.09,0.20,-3.72,1.78,-0.98,-0.03,-0.73,1.02,0.73,0.02,639.00,1008.00,709.00,812.00,1532.00,2684.00,749.00,809.00,,,,,,,,,,,,0,0,0,,-1412,16312,-1276,-221,48,-107
20.449,20.15,0.18,1.52,-0.94,-0.99,0.97,-0.10,0.30,0.35,-0.95,673.00,881.00,672.00,791.00,1575.00,2669.00,795.00,843.00,,,,,,,,,,,,0,0,0,,-1420,16456,-1256,-102,120,-69
20.51,20.20,0.15,-0.48,-1.07,0.97,-0.68,-0.34,0.38,-1.87,1.63,703.00,957.00,709.00,765.00,1575.00,2689.00,720.00,859.00,,,,,,,,,,,,0,0,0,,-1472,16272,-1328,-236,173,-278
20.552,20.26,0.14,-2.13,1.83,0.22,-0.48,-0.22,0.96,1.82,-0.92,619.00,945.00,711.00,784.00,1523.00,2635.00,773.00,795.00,,,,,,,,,,,,0,0,0,,-1412,16236,-1180,-334,19,-160
20.612,20.31,0.17,1.78,-1.86,-0.75,0.81,0.92,0.55,-0.89,0.79,704.00,894.00,675.00,787.00,1525.00,2546.00,740.00,845.00,,,,,,,,,,,,0,0,0,,-1484,16356,-992,-182,74,-135
20.674,20.37,0.22,-2.15,1.28,1.53,-0.87,1.02,0.40,1.64,-0.38,638.00,960.00,709.00,752.00,1535.00,2547.00,753.00,789.00,,,,,,,,,,,,0,0,0,,-1376,16248,-1144,-51,213,-147
20.756,20.42,0.22,1.72,-1.15,1.74,-1.22,0.34,0.72,0.16,-0.48,678.00,879.00,720.00,753.00,1527.00,2593.00,778.00,839.00,,,,,,,,,,,,0,0,0,,-1460,16340,-1188,-8,176,-166
20.777,20.48,0.24,-1.24,-0.61,-1.01,0.25,0.61,0.82,-1.26,1.66,695.00,974.00,699.00,807.00,1511.00,2559.00,711.00,838.00,,,,,,,,,,,,0,0,0,,-1452,16256,-1292,-13,79,-269
20.838,20.53,0.30,-1.88,2.02,0.06,0.37,1.42,-0.20,3.16,-2.06,610.00,931.00,681.00,771.00,1574.00,2547.00,802.00,777.00,,,,,,,,,,,,0,0,0,,-1400,16216,-1420,-118,11,-117
20.88,20.59,0.29,3.29,-3.46,2.47,-1.80,0.15,0.80,-2.00,0.97,747.00,879.00,733.00,743.00,1526.00,2608.00,748.00,879.00,,,,,,,,,,,,0,0,0,,-1420,16332,-1236,-97,79,-193
20.943,20.64,0.29,-3.21,1.44,-0.84,0.32,0.19,1.06,0.69,0.74,645.00,997.00,694.00,800.00,1503.00,2585.00,721.00,795.00,,,,,,,,,,,,0,0,0,,-1492,16272,-1244,-92,110,-260
21.004,20.70,0.33,1.01,-0.10,-0.67,0.97,1.06,0.15,1.42,-1.45,649.00,879.00,668.00,781.00,1554.00,2559.00,801.00,819.00,,,,,,,,,,,,0,0,0,,-1608,16188,-1260,-2,59,-158
21.108,20.75,0.31,0.51,-1.59,1.49,-0.75,0.00,0.74,-1.59,1.56,710.00,933.00,705.00,751.00,1535.00,2627.00,719.00,851.00,,,,,,,,,,,,0,0,0,,-1524,16204,-1228,-31,177,-94
21.129,20.81,0.28,-2.45,1.91,0.40,-0.52,-0.33,1.03,1.94,-0.77,620.00,955.00,710.00,779.00,1520.00,2641.00,765.00,788.00,,,,,,,,,,,,0,0,0,,-1392,16304,-1220,-156,214,-135
21.169,20.86,0.28,1.89,-1.90,-0.80,0.88,0.25,0.41,-0.18,0.01,704.00,891.00,673.00,787.00,1555.00,2624.00,762.00,839.00,,,,,,,,,,,,0,0,0,,-1512,16256,-1248,-250,90,-105
21.23,20.92,0.27,-1.98,0.68,0.73,-0.18,0.09,0.20,0.30,0.34,657.00,969.00,693.00,762.00,1578.00,2656.00,742.00,816.00,,,,,,,,,,,,0,0,0,,-1336,16456,-1260,-236,19,-124
21.271,20.97,0.22,0.51,-0.24,0.78,-1.03,-0.65,0.72,0.22,-0.58,660.00,900.00,725.00,778.00,1555.00,2697.00,781.00,839.00,,,,,,,,,,,,0,0,0,,-1400,16380,-1192,-87,114,-51
21.353,21.03,0.19,-0.23,-1.52,-1.25,0.20,-0.38,0.60,-1.55,1.55,717.00,959.00,704.00,816.00,1557.00,2677.00,719.00,850.00,,,,,,,,,,,,0,0,0,,-1568,16304,-1128,-194,189,-299
21.394,21.08,0.23,-2.61,2.26,-0.19,0.21,0.99,-0.13,3.21,-1.98,610.00,952.00,690.00,782.00,1580.00,2586.00,798.00,774.00,,,,,,,,,,,,0,0,0,,-1508,16268,-1108,-241,65,-150
21.476,21.14,0.23,3.53,-3.34,2.18,-1.73,0.24,0.80,-1.75,0.81,739.00,868.00,734.00,750.00,1523.00,2598.00,751.00,874.00,,,,,,,,,,,,0,0,0,,-1416,16232,-928,-118,97,-106
21.496,21.19,0.25,-2.78,0.86,-0.88,0.34,0.55,0.99,0.32,1.05,660.00,995.00,694.00,801.00,1499.00,2553.00,714.00,800.00,,,,,,,,,,,,0,0,0,,-1328,16316,-1044,-16,214,-159
21.538,21.25,0.31,0.40,0.51,0.08,0.64,1.50,-0.01,2.78,-2.02,635.00,886.00,671.00,765.00,1555.00,2526.00,806.00,788.00,,,,,,,,,,,,0,0,0,,-1436,16312,-1068,34,165,-143
21.6,21.30,0.34,2.02,-2.71,2.38,-1.36,0.82,0.51,-1.38,1.57,734.00,906.00,717.00,737.00,1531.00,2559.00,716.00,844.00,,,,,,,,,,,,0,0,0,,-1472,16216,-1216,-4,53,-258
21.662,21.36,0.38,-2.87,2.26,0.59,-0.27,1.19,0.78,2.57,-0.69,613.00,962.00,698.00,768.00,1499.00,2504.00,753.00,767.00,,,,,,,,,,,,0,0,0,,-1420,16256,-1268,-99,48,-125
21.724,21.41,0.41,2.79,-1.77,-0.32,0.94,0.92,0.62,0.21,-0.02,688.00,857.00,665.00,771.00,1519.00,2541.00,758.00,827.00,,,,,,,,,,,,0,0,0,,-1444,16388,-1072,-127,84,-201
21.766,21.47,0.43,-1.17,0.29,1.75,-0.39,0.94,0.42,0.46,0.85,661.00,948.00,688.00,736.00,1535.00,2553.00,720.00,800.00,,,,,,,,,,,,0,0,0,,-1532,16212,-1236,-96,89,-234
21.848,21.52,0.41,0.26,0.30,1.36,-0.76,0.01,1.04,1.45,-0.75,644.00,896.00,707.00,755.00,1510.00,2605.00,771.00,803.00,,,,,,,,,,,,0,0,0,,-1596,16216,-1088,-47,44,-105
21.868,21.58,0.41,0.79,-1.40,-0.55,0.41,0.31,0.78,-1.36,1.41,699.00,918.00,687.00,789.00,1523.00,2592.00,722.00,847.00,,,,,,,,,,,,0,0,0,,-1388,16224,-1060,-117,160,-78
21.929,21.63,0.43,-2.78,2.17,0.08,0.44,0.91,-0.09,2.93,-1.41,615.00,961.00,678.00,769.00,1579.00,2591.00,778.00,771.00,,,,,,,,,,,,0,0,0,,-1464,16260,-1316,-180,253,-122
21.991,21.69,0.39,3.11,-2.72,2.16,-1.80,-0.44,0.89,-1.25,0.38,720.00,868.00,737.00,752.00,1535.00,2663.00,762.00,867.00,,,,,,,,,,,,0,0,0,,-1484,16268,-1388,-260,98,-151
22.032,21.74,0.35,-2.71,0.32,-1.21,0.18,-0.29,0.98,-0.39,1.36,679.00,1007.00,704.00,815.00,1523.00,2640.00,711.00,816.00,,,,,,,,,,,,0,0,0,,-1356,16380,-1112,-177,18,-86
22.093,21.80,0.36,-0.81,1.09,-0.46,0.52,0.56,-0.05,2.78,-2.16,629.00,915.00,682.00,784.00,1586.00,2625.00,812.00,791.00,,,,,,,,,,,,0,0,0,,-1420,16236,-980,-127,117,-93
22.154,21.85,0.33,2.30,-3.25,1.96,-1.61,-0.42,0.57,-2.67,1.82,752.00,909.00,732.00,754.00,1561.00,2683.00,723.00,882.00,,,,,,,,,,,,0,0,0,,-1476,16360,-1136,-106,193,-324
22.215,21.91,0.31,-3.19,2.04,-0.27,-0.18,0.04,0.97,1.99,-0.22,624.00,980.00,706.00,793.00,1515.00,2607.00,742.00,775.00,,,,,,,,,,,,0,0,0,,-1432,16180,-1104,-240,53,-135
22.257,21.96,0.36,2.26,-1.30,0.05,0.54,1.25,0.44,0.88,-0.46,677.00,864.00,675.00,768.00,1525.00,2521.00,767.00,815.00,,,,,,,,,,,,0,0,0,,-1420,16288,-924,-163,60,-121
22.318,22.02,0.39,-0.48,-0.67,2.09,-0.64,1.06,0.50,-0.33,1.55,688.00,947.00,693.00,731.00,1525.00,2535.00,703.00,810.00,,,,,,,,,,,,0,0,0,,-1340,16352,-1048,-35,195,-160
22.38,22.07,0.40,-0.65,1.10,1.49,-0.80,0.49,1.11,2.06,-0.67,627.00,909.00,707.00,752.00,1491.00,2551.00,759.00,782.00,,,,,,,,,,,,0,0,0,,-1388,16396,-1216,46,160,-100
22.421,22.13,0.43,1.35,-1.61,-0.47,0.82,1.02,0.65,-0.38,1.03,700.00,903.00,671.00,778.00,1514.00,2529.00,724.00,823.00,,,,,,,,,,,,0,0,0,,-1284,16344,-1204,-20,113,-247
22.483,22.18,0.47,-2.27,1.73,0.98,-0.05,1.27,0.31,2.67,-0.75,624.00,953.00,685.00,752.00,1535.00,2527.00,754.00,765.00,,,,,,,,,,,,0,0,0,,-1536,16208,-1316,-90,59,-132
22.585,22.24,0.48,2.60,-1.77,2.40,-1.45,0.65,0.76,-0.09,0.06,690.00,863.00,720.00,738.00,1515.00,2559.00,759.00,835.00,,,,,,,,,,,,0,0,0,,-1420,16344,-1168,-169,72,-178
22.627,22.29,0.49,-1.64,-0.29,-0.75,0.43,0.74,0.88,-0.21,1.51,688.00,981.00,689.00,795.00,1503.00,2542.00,703.00,807.00,,,,,,,,,,,,0,0,0,,-1572,16188,-1208,-173,87,-251
22.647,22.35,0.55,-1.18,1.75,-0.09,0.64,1.55,-0.14,3.57,-2.12,611.00,912.00,673.00,770.00,1565.00,2530.00,799.00,766.00,,,,,,,,,,,,0,0,0,,-1564,16340,-1252,-87,53,-151
22.707,22.40,0.52,3.22,-3.49,2.71,-1.76,-0.08,0.86,-1.96,1.51,749.00,882.00,728.00,735.00,1527.00,2627.00,726.00,865.00,,,,,,,,,,,,0,0,0,,-1436,16204,-1152,-104,123,-122
22.748,22.46,0.49,-3.20,1.72,-0.27,0.24,0.06,1.06,1.70,0.20,635.00,989.00,690.00,784.00,1507.00,2599.00,729.00,775.00,,,,,,,,,,,,0,0,0,,-1440,16228,-1132,-176,185,-111
22.808,22.51,0.51,1.90,-0.99,-0.23,0.85,0.86,0.45,1.01,-0.70,670.00,869.00,667.00,770.00,1535.00,2559.00,775.00,816.00,,,,,,,,,,,,0,0,0,,-1432,16340,-1124,-191,133,-120
22.868,22.57,0.50,0.04,-1.25,1.94,-0.72,0.31,0.37,-1.22,1.77,703.00,942.00,698.00,737.00,1557.00,2621.00,706.00,834.00,,,,,,,,,,,,0,0,0,,-1460,16428,-1128,-142,102,-130
22.971,22.62,0.46,-1.81,1.63,0.55,-0.54,-0.33,1.03,2.10,-0.83,622.00,938.00,709.00,775.00,1520.00,2641.00,765.00,784.00,,,,,,,,,,,,0,0,0,,-1484,16204,-1168,-5,130,-99
22.992,22.68,0.44,1.51,-1.79,-0.73,0.83,0.15,0.69,-0.64,0.73,705.00,902.00,674.00,786.00,1535.00,2615.00,739.00,838.00,,,,,,,,,,,,0,0,0,,-1488,16324,-1248,-106,111,-235
23.054,22.73,0.47,-2.10,1.21,1.09,-0.22,1.05,0.17,1.93,-0.28,640.00,960.00,690.00,752.00,1553.00,2559.00,745.00,778.00,,,,,,,,,,,,0,0,0,,-1388,16284,-1112,-267,69,-167
23.115,22.79,0.49,2.21,-1.31,2.13,-1.20,0.73,0.71,0.75,-0.32,678.00,866.00,714.00,741.00,1517.00,2554.00,763.00,816.00,,,,,,,,,,,,0,0,0,,-1428,16292,-1076,-32,83,-147
23.157,22.84,0.51,-0.82,-0.64,-0.25,0.20,0.88,0.98,1.16,1.29,691.00,959.00,691.00,784.00,1491.00,2521.00,694.00,769.00,,,,,,,,,,,,0,0,0,,-1484,16304,-1120,22,132,-143
23.219,22.90,0.57,-1.91,2.15,0.55,0.53,1.80,-0.10,4.09,-2.21,606.00,929.00,669.00,753.00,1554.00,2502.00,795.00,752.00,,,,,,,,,,,,0,0,0,,-1404,16384,-1092,-1,161,-143
23.302,22.95,0.58,3.52,-3.42,3.09,-1.91,0.72,0.69,-1.37,1.28,742.00,870.00,729.00,727.00,1519.00,2557.00,727.00,850.00,,,,,,,,,,,,0,0,0,,-1408,16224,-1240,-51,104,-222
23.323,23.01,0.59,-3.03,1.46,-0.59,0.00,0.86,0.96,1.66,0.60,642.00,989.00,703.00,799.00,1493.00,2524.00,714.00,768.00,,,,,,,,,,,,0,0,0,,-1472,16280,-1236,-147,44,-107
23.365,23.06,0.65,1.27,-0.10,0.11,0.93,1.65,0.23,2.46,-1.40,646.00,870.00,660.00,758.00,1531.00,2495.00,784.00,785.00,,,,,,,,,,,,0,0,0,,-1448,16380,-1120,-151,74,-189
23.426,23.12,0.67,0.74,-1.56,2.45,-0.65,1.07,0.52,-0.88,1.82,706.00,924.00,689.00,721.00,1523.00,2533.00,700.00,822.00,,,,,,,,,,,,0,0,0,,-1408,16292,-1108,-159,71,-263
23.468,23.17,0.66,-2.21,2.19,1.26,-0.46,0.45,1.09,2.72,-0.72,608.00,939.00,697.00,752.00,1494.00,2557.00,752.00,763.00,,,,,,,,,,,,0,0,0,,-1592,16240,-1056,-44,30,-156
23.53,23.23,0.67,2.21,-1.74,-0.42,1.08,1.03,0.52,0.23,0.44,694.00,876.00,661.00,771.00,1524.00,2537.00,739.00,816.00,,,,,,,,,,,,0,0,0,,-1548,16332,-1116,-31,195,-91
23.591,23.28,0.69,-1.62,0.84,1.82,-0.49,1.04,0.18,1.22,0.39,647.00,951.00,691.00,736.00,1552.00,2559.00,728.00,786.00,,,,,,,,,,,,0,0,0,,-1496,16196,-1304,-137,254,-120
23.672,23.34,0.66,1.11,-0.33,1.63,-1.06,0.06,0.79,1.03,-0.32,656.00,881.00,715.00,753.00,1529.00,2617.00,759.00,807.00,,,,,,,,,,,,0,0,0,,-1424,16312,-1216,-149,105,-111
23.693,23.39,0.63,-0.01,-1.42,-0.22,-0.07,0.05,0.84,-1.08,1.70,710.00,948.00,701.00,789.00,1525.00,2615.00,707.00,831.00,,,,,,,,,,,,0,0,0,,-1376,16324,-1160,-101,11,-113
23.756,23.45,0.64,-2.45,2.27,0.38,0.10,0.86,-0.13,3.66,-2.06,608.00,946.00,687.00,767.00,1584.00,2599.00,795.00,762.00,,,,,,,,,,,,0,0,0,,-1312,16512,-1136,-15,117,-189
23.797,23.50,0.61,3.44,-3.39,2.36,-1.84,0.02,0.73,-1.50,1.12,742.00,872.00,736.00,747.00,1535.00,2626.00,735.00,858.00,,,,,,,,,,,,0,0,0,,-1496,16292,-1256,-201,126,-226
23.857,23.56,0.62,-3.43,1.20,-0.36,0.14,0.89,0.94,1.32,1.00,656.00,1012.00,695.00,789.00,1494.00,2523.00,703.00,770.00,,,,,,,,,,,,0,0,0,,-1400,16304,-1084,-203,47,-125
23.937,23.61,0.69,0.83,0.33,0.52,0.63,1.90,0.10,3.11,-1.64,636.00,875.00,666.00,752.00,1535.00,2479.00,785.00,770.00,,,,,,,,,,,,0,0,0,,-1440,16224,-960,14,160,-115
23.958,23.67,0.72,1.78,-2.27,2.86,-1.00,1.25,0.62,-0.85,1.99,720.00,904.00,697.00,716.00,1510.00,2508.00,693.00,817.00,,,,,,,,,,,,0,0,0,,-1404,16224,-1036,30,209,-162
24.04,23.72,0.73,-2.29,2.18,1.14,-0.24,0.92,1.04,3.43,-0.69,609.00,942.00,690.00,751.00,1485.00,2513.00,741.00,741.00,,,,,,,,,,,,0,0,0,,-1428,16412,-1360,90,132,-244
24.081,23.78,0.77,3.06,-1.92,-0.84,1.36,1.57,0.50,0.80,0.25,690.00,851.00,656.00,778.00,1511.00,2485.00,739.00,802.00,,,,,,,,,,,,0,0,0,,-1504,16196,-1292,-39,70,-194
24.122,23.83,0.80,-0.72,0.03,2.49,-0.50,1.45,0.35,1.12,0.91,665.00,938.00,683.00,717.00,1527.00,2507.00,709.00,778.00,,,,,,,,,,,,0,0,0,,-1432,16340,-1232,-37,35,-143
24.184,23.89,0.80,0.90,0.11,1.92,-0.79,0.66,1.03,1.85,-0.45,643.00,878.00,701.00,739.00,1493.00,2540.00,753.00,784.00,,,,,,,,,,,,0,0,0,,-1460,16424,-1244,-120,93,-255
24.267,23.94,0.80,1.22,-1.91,0.11,0.49,0.80,0.87,-0.69,1.81,713.00,915.00,676.00,767.00,1502.00,2536.00,698.00,816.00,,,,,,,,,,,,0,0,0,,-1604,16292,-1248,-60,36,-208
24.308,24.00,0.83,-2.06,2.17,0.88,0.34,1.53,-0.04,3.75,-1.41,607.00,934.00,672.00,747.00,1557.00,2525.00,766.00,746.00,,,,,,,,,,,,0,0,0,,-1588,16156,-1288,-16,75,-138
24.411,24.05,0.81,3.94,-3.08,3.00,-1.88,0.30,0.70,-3.85,1.92,723.00,848.00,729.00,729.00,1530.00,2599.00,735.00,922.00,,,,,,,,,,,,0,0,0,,-1512,16248,-1152,-109,209,-107
24.432,24.11,0.78,-1.30,0.17,-0.46,0.27,0.35,0.85,0.64,1.33,667.00,956.00,691.00,789.00,1516.00,2583.00,699.00,784.00,,,,,,,,,,,,0,0,0,,-1432,16332,-1276,-205,208,-114
24.473,24.16,0.80,0.08,0.94,-0.01,0.72,1.21,-0.06,3.07,-1.77,624.00,887.00,669.00,766.00,1568.00,2559.00,791.00,774.00,,,,,,,,,,,,0,0,0,,-1428,16380,-1368,-184,60,-119
24.536,24.22,0.76,1.98,-2.62,2.27,-1.40,0.00,0.74,-1.38,1.96,731.00,905.00,720.00,741.00,1535.00,2627.00,701.00,835.00,,,,,,,,,,,,0,0,0,,-1452,16268,-1072,-99,40,-58
24.577,24.27,0.72,-2.57,2.01,0.58,-0.39,-0.16,1.06,2.48,-0.36,618.00,957.00,703.00,771.00,1513.00,2621.00,741.00,763.00,,,,,,,,,,,,0,0,0,,-1396,16372,-1092,-150,129,-310
24.637,24.33,0.75,2.90,-1.81,-0.05,0.93,1.28,0.33,1.08,-0.17,688.00,854.00,662.00,763.00,1533.00,2525.00,752.00,802.00,,,,,,,,,,,,0,0,0,,-1544,16208,-1260,-274,94,-155
24.678,24.38,0.79,-0.30,-0.28,2.52,-0.70,1.56,0.38,0.97,1.27,671.00,930.00,690.00,720.00,1521.00,2494.00,697.00,775.00,,,,,,,,,,,,0,0,0,,-1452,16384,-996,-157,67,-94
24.781,24.44,0.79,0.41,0.62,2.30,-1.00,0.94,1.06,2.41,-0.37,631.00,883.00,704.00,732.00,1483.00,2510.00,742.00,765.00,,,,,,,,,,,,0,0,0,,-1456,16388,-988,-42,205,-151
24.802,24.49,0.85,1.53,-1.46,0.20,0.71,1.82,0.38,-0.08,1.60,692.00,893.00,667.00,760.00,1514.00,2468.00,698.00,801.00,,,,,,,,,,,,0,0,0,,-1476,16480,-1276,40,180,-74
24.843,24.55,0.90,-1.97,2.08,1.39,0.19,1.86,0.11,3.72,-1.10,609.00,933.00,671.00,735.00,1535.00,2482.00,754.00,741.00,,,,,,,,,,,,0,0,0,,-1396,16320,-1272,53,133,-219
24.906,24.60,0.90,4.05,-2.62,3.16,-1.65,0.96,0.76,-0.11,0.63,704.00,834.00,718.00,720.00,1506.00,2527.00,736.00,823.00,,,,,,,,,,,,0,0,0,,-1512,16224,-1396,-85,73,-118
24.946,24.66,0.91,-1.55,0.20,0.06,0.18,1.15,0.94,0.61,1.72,669.00,965.00,688.00,775.00,1487.00,2497.00,685.00,777.00,,,,,,,,,,,,0,0,0,,-1472,16360,-1284,-128,42,-127
25.007,24.71,0.96,-0.06,1.32,0.99,0.58,1.85,0.12,4.09,-1.95,613.00,883.00,662.00,739.00,1535.00,2483.00,784.00,747.00,,,,,,,,,,,,0,0,0,,-1484,16324,-1360,-129,82,-254
25.068,24.77,0.95,3.23,-3.12,3.46,-1.52,0.86,0.70,-1.44,2.19,734.00,873.00,709.00,709.00,1514.00,2542.00,693.00,832.00,,,,,,,,,,,,0,0,0,,-1532,16292,-1296,-45,36,-163
25.151,24.82,0.94,-2.43,1.96,0.81,-0.04,0.63,1.10,2.57,0.14,618.00,953.00,687.00,757.00,1488.00,2538.00,720.00,750.00,,,,,,,,,,,,0,0,0,,-1476,16292,-1248,-67,153,-127
25.172,24.88,0.95,2.70,-1.26,0.49,0.72,1.13,0.53,1.27,-0.25,670.00,848.00,663.00,751.00,1521.00,2527.00,753.00,798.00,,,,,,,,,,,,0,0,0,,-1392,16196,-1236,-149,210,-116
25.233,24.93,0.94,0.19,-0.88,2.58,-0.70,0.86,0.45,0.21,1.64,687.00,927.00,689.00,718.00,1535.00,2559.00,693.00,791.00,,,,,,,,,,,,0,0,0,,-1280,16392,-1084,-226,121,-141
25.294,24.99,0.90,-0.51,1.14,1.51,-0.73,0.09,1.03,2.33,-0.68,624.00,903.00,704.00,750.00,1508.00,2597.00,756.00,774.00,,,,,,,,,,,,0,0,0,,-1424,16304,-1100,-203,16,-112
25.356,25.04,0.88,1.86,-1.94,-0.33,0.80,0.43,0.74,-0.24,1.42,706.00,893.00,670.00,774.00,1523.00,2583.00,707.00,810.00,,,,,,,,,,,,0,0,0,,-1356,16188,-1076,-161,34,-91
25.397,25.10,0.87,-2.16,1.72,1.00,-0.08,0.67,0.11,2.39,-0.38,623.00,949.00,686.00,752.00,1569.00,2602.00,743.00,766.00,,,,,,,,,,,,0,0,0,,-1356,16404,-1216,-142,184,-266
25.458,25.15,0.84,3.15,-2.00,2.86,-2.18,0.25,0.79,-0.03,0.38,692.00,850.00,743.00,739.00,1524.00,2598.00,745.00,826.00,,,,,,,,,,,,0,0,0,,-1552,16204,-1328,-238,87,-198
25.52,25.21,0.85,-1.67,0.10,0.02,-0.10,1.16,0.91,0.64,1.76,674.00,972.00,699.00,782.00,1489.00,2498.00,683.00,775.00,,,,,,,,,,,,0,0,0,,-1468,16192,-1064,-105,22,-101
25.562,25.26,0.91,-0.52,1.65,1.28,0.57,2.08,0.05,4.30,-2.02,607.00,891.00,659.00,731.00,1534.00,2465.00,784.00,742.00,,,,,,,,,,,,0,0,0,,-1404,16424,-972,-10,124,-108
25.623,25.32,0.93,3.74,-3.26,3.60,-1.57,1.17,0.75,-0.90,1.80,733.00,859.00,709.00,706.00,1502.00,2508.00,701.00,823.00,,,,,,,,,,,,0,0,0,,-1480,16372,-1112,63,111,-68
25.664,25.37,0.93,-2.50,1.84,0.98,-0.10,1.09,1.08,2.63,0.40,623.00,959.00,687.00,753.00,1477.00,2493.00,709.00,743.00,,,,,,,,,,,,0,0,0,,-1368,16376,-1236,34,132,-234
25.727,25.43,0.97,2.94,-1.03,0.81,0.89,1.75,0.49,2.01,-0.46,659.00,835.00,653.00,738.00,1507.00,2468.00,751.00,779.00,,,,,,,,,,,,0,0,0,,-1420,16260,-1152,-103,46,-135
25.788,25.48,1.00,0.76,-0.99,3.56,-0.86,1.52,0.47,0.31,1.82,684.00,909.00,683.00,694.00,1515.00,2492.00,685.00,784.00,,,,,,,,,,,,0,0,0,,-1416,16384,-1224,-147,2,-157
25.872,25.54,1.00,-0.55,1.57,2.25,-0.61,0.93,1.11,3.08,-0.62,610.00,894.00,690.00,726.00,1479.00,2507.00,743.00,750.00,,,,,,,,,,,,0,0,0,,-1524,16256,-1308,-133,94,-287
25.893,25.59,1.02,2.61,-1.82,0.36,1.02,1.45,0.60,0.34,1.12,692.00,864.00,654.00,749.00,1506.00,2490.00,711.00,798.00,,,,,,,,,,,,0,0,0,,-1480,16172,-1152,-33,63,-203
25.936,25.65,1.04,-1.31,1.38,2.04,0.00,1.44,0.26,2.90,-0.16,625.00,926.00,670.00,720.00,1534.00,2513.00,727.00,746.00,,,,,,,,,,,,0,0,0,,-1520,16308,-1152,0,155,-124
25.996,25.70,1.03,3.08,-1.69,2.80,-1.17,0.70,0.68,0.73,0.02,681.00,845.00,704.00,721.00,1520.00,2559.00,749.00,809.00,,,,,,,,,,,,0,0,0,,-1400,16324,-1112,-200,260,-107
26.057,25.76,1.00,-0.59,-0.64,-0.23,0.28,0.52,0.97,-0.04,1.91,688.00,950.00,688.00,782.00,1501.00,2557.00,686.00,793.00,,,,,,,,,,,,0,0,0,,-1368,16300,-1208,-263,152,-107
26.119,25.81,1.01,-1.13,1.89,0.57,0.80,1.26,-0.07,4.28,-1.99,606.00,907.00,659.00,747.00,1567.00,2554.00,783.00,742.00,,,,,,,,,,,,0,0,0,,-1360,16264,-1016,-264,15,-122
26.16,25.87,0.96,3.83,-3.62,3.18,-1.68,0.04,0.73,-1.47,1.52,746.00,864.00,719.00,720.00,1534.00,2623.00,719.00,848.00,,,,,,,,,,,,0,0,0,,-1416,16352,-1044,-171,38,-187
26.24,25.92,0.92,-2.77,1.58,-1.36,0.63,0.00,0.98,1.80,0.73,635.00,976.00,689.00,810.00,1515.00,2610.00,707.00,761.00,,,,,,,,,,,,0,0,0,,-1264,16388,-1220,-53,153,-237
26.281,25.98,0.92,2.04,-0.75,0.16,0.86,1.05,0.38,2.10,-0.83,660.00,859.00,662.00,758.00,1535.00,2544.00,765.00,784.00,,,,,,,,,,,,0,0,0,,-1456,16256,-1272,-254,119,-230
26.341,26.03,0.95,0.96,-1.40,2.90,-0.75,1.38,0.48,-0.05,2.02,697.00,912.00,687.00,710.00,1518.00,2505.00,682.00,791.00,,,,,,,,,,,,0,0,0,,-1572,16272,-892,-193,20,-134
26.382,26.09,0.95,-0.93,1.76,2.20,-0.70,1.01,1.08,3.39,-0.62,608.00,903.00,694.00,729.00,1479.00,2501.00,739.00,741.00,,,,,,,,,,,,0,0,0,,-1348,16380,-1000,2,189,-127
26.462,26.14,0.98,3.09,-1.96,0.29,1.01,1.66,0.68,0.59,0.93,691.00,851.00,655.00,751.00,1494.00,2464.00,715.00,794.00,,,,,,,,,,,,0,0,0,,-1360,16140,-1136,31,194,-167
26.524,26.20,1.02,-0.69,0.99,2.55,-0.22,1.72,0.34,2.86,0.07,631.00,913.00,672.00,710.00,1520.00,2481.00,719.00,743.00,,,,,,,,,,,,0,0,0,,-1396,16364,-1212,48,122,-214
26.545,26.25,1.03,3.00,-1.30,2.93,-1.21,1.19,0.64,1.51,-0.24,668.00,839.00,704.00,718.00,1510.00,2513.00,749.00,790.00,,,,,,,,,,,,0,0,0,,-1436,16244,-1256,-16,41,-151
26.607,26.31,1.04,0.12,-0.85,0.45,0.24,1.31,0.88,0.27,2.02,687.00,929.00,681.00,762.00,1487.00,2485.00,678.00,781.00,,,,,,,,,,,,0,0,0,,-1504,16360,-1188,-102,36,-178
26.669,26.36,1.09,-1.03,2.07,1.34,0.57,1.91,0.09,4.41,-1.82,599.00,899.00,658.00,729.00,1535.00,2478.00,774.00,735.00,,,,,,,,,,,,0,0,0,,-1512,16316,-1044,-135,71,-254
26.732,26.42,1.07,4.13,-3.32,3.55,-1.71,0.84,0.75,-1.02,1.52,730.00,847.00,715.00,710.00,1511.00,2541.00,713.00,833.00,,,,,,,,,,,,0,0,0,,-1508,16256,-1292,-70,79,-232
26.772,26.47,1.06,-2.37,1.56,0.67,0.11,0.82,1.03,2.00,0.93,631.00,961.00,683.00,758.00,1488.00,2523.00,697.00,751.00,,,,,,,,,,,,0,0,0,,-1520,16348,-1024,-59,126,-111
26.854,26.53,1.08,2.03,-0.27,0.76,0.83,1.47,0.24,2.57,-1.03,643.00,848.00,656.00,741.00,1535.00,2512.00,767.00,774.00,,,,,,,,,,,,0,0,0,,-1408,16332,-1176,-115,213,-119
26.915,26.58,1.07,1.28,-1.67,2.63,-0.60,0.81,0.61,-0.63,2.08,703.00,907.00,685.00,715.00,1523.00,2553.00,687.00,808.00,,,,,,,,,,,,0,0,0,,-1388,16332,-1124,-171,124,-126
26.977,26.64,1.03,-1.75,2.19,1.61,-0.63,0.21,1.05,3.28,-0.66,603.00,922.00,699.00,745.00,1503.00,2583.00,742.00,745.00,,,,,,,,,,,,0,0,0,,-1448,16288,-1336,-102,77,-118
26.998,26.69,1.02,2.83,-1.92,0.06,1.00,0.88,0.45,0.17,0.76,693.00,859.00,658.00,758.00,1534.00,2557.00,727.00,811.00,,,,,,,,,,,,0,0,0,,-1488,16192,-1096,-44,38,-190
27.038,26.75,1.00,-1.24,0.71,2.02,-0.42,0.61,0.27,1.80,0.40,647.00,940.00,686.00,729.00,1557.00,2597.00,720.00,768.00,,,,,,,,,,,,0,0,0,,-1524,16388,-1124,-63,90,-234
27.099,26.80,0.99,1.89,-0.62,2.04,-1.07,0.73,0.63,1.41,-0.28,657.00,861.00,710.00,741.00,1523.00,2559.00,752.00,794.00,,,,,,,,,,,,0,0,0,,-1424,16228,-956,-277,104,-172
27.159,26.86,0.99,0.58,-1.40,0.31,0.09,1.11,0.86,-0.34,1.98,702.00,926.00,688.00,769.00,1494.00,2506.00,687.00,801.00,,,,,,,,,,,,0,0,0,,-1460,16340,-980,-168,130,-115
27.221,26.91,1.04,-1.31,2.19,1.19,0.60,2.02,0.06,4.70,-1.84,598.00,906.00,659.00,733.00,1535.00,2470.00,771.00,727.00,,,,,,,,,,,,0,0,0,,-1572,16284,-1172,-7,185,-88
27.262,26.97,1.04,4.34,-3.37,4.35,-2.78,1.04,0.78,-0.93,1.39,729.00,841.00,747.00,708.00,1503.00,2519.00,717.00,833.00,,,,,,,,,,,,0,0,0,,-1448,16248,-1212,7,190,-49
27.345,27.02,1.04,-2.36,1.23,0.40,0.31,1.08,0.99,-1.33,2.02,642.00,969.00,679.00,762.00,1485.00,2501.00,698.00,832.00,,,,,,,,,,,,0,0,0,,-1452,16384,-1272,21,138,-233
27.386,27.08,1.09,1.85,0.14,0.91,0.80,1.93,0.14,3.08,-1.30,631.00,845.00,655.00,737.00,1531.00,2474.00,771.00,764.00,,,,,,,,,,,,0,0,0,,-1440,16184,-1196,-41,35,-136
27.426,27.13,1.11,2.11,-1.97,3.44,-0.96,1.46,0.46,-0.75,2.12,704.00,885.00,688.00,699.00,1517.00,2498.00,687.00,811.00,,,,,,,,,,,,0,0,0,,-1416,16268,-1120,-75,30,-114
27.489,27.19,1.10,-1.56,2.15,1.62,-0.34,0.91,1.09,3.46,-0.62,602.00,916.00,688.00,739.00,1481.00,2510.00,738.00,739.00,,,,,,,,,,,,0,0,0,,-1472,16328,-1180,-116,141,-245
27.55,27.24,1.12,3.25,-1.93,0.29,1.21,1.47,0.52,0.78,0.51,688.00,845.00,648.00,747.00,1512.00,2493.00,729.00,797.00,,,,,,,,,,,,0,0,0,,-1504,16260,-1196,-97,71,-168
27.61,27.30,1.12,-0.80,0.51,2.21,-0.25,1.25,0.32,1.75,0.41,649.00,929.00,677.00,720.00,1535.00,2529.00,720.00,769.00,,,,,,,,,,,,0,0,0,,-1416,16176,-1160,-66,92,-103
27.651,27.35,1.10,1.57,-0.29,2.35,-1.01,0.61,0.82,1.56,-0.30,649.00,864.00,704.00,731.00,1511.00,2559.00,751.00,790.00,,,,,,,,,,,,0,0,0,,-1420,16272,-1228,-116,233,-121
27.753,27.41,1.04,0.76,-1.38,0.34,-0.18,0.01,0.96,-0.92,2.10,699.00,919.00,698.00,774.00,1516.00,2610.00,690.00,817.00,,,,,,,,,,,,0,0,0,,-1440,16264,-1240,-206,163,-164
27.773,27.46,1.06,-1.86,2.07,0.71,0.40,1.31,-0.21,3.76,-1.72,608.00,929.00,672.00,751.00,1578.00,2559.00,779.00,752.00,,,,,,,,,,,,0,0,0,,-1428,16404,-1260,-204,46,-99
27.835,27.52,0.96,2.78,-2.79,3.14,-1.97,-0.87,1.03,-1.47,1.09,727.00,881.00,731.00,727.00,1535.00,2698.00,736.00,858.00,,,,,,,,,,,,0,0,0,,-1416,16332,-1124,-110,93,-59
27.876,27.57,0.91,-2.74,0.96,-0.53,0.38,0.03,0.88,0.40,1.98,656.00,991.00,688.00,789.00,1522.00,2614.00,678.00,778.00,,,,,,,,,,,,0,0,0,,-1428,16368,-1304,-156,142,-306
27.938,27.63,0.95,0.75,0.62,0.40,0.75,1.71,-0.11,3.32,-1.76,627.00,871.00,663.00,753.00,1558.00,2512.00,787.00,766.00,,,,,,,,,,,,0,0,0,,-1492,16228,-1232,-277,-7,-205
28.0,27.68,0.97,2.40,-2.41,2.91,-0.91,1.33,0.53,-0.70,2.05,717.00,885.00,693.00,713.00,1515.00,2506.00,689.00,811.00,,,,,,,,,,,,0,0,0,,-1540,16236,-964,-180,24,-143
28.083,27.74,0.97,-2.05,2.47,1.66,-0.36,1.00,1.18,3.17,-0.35,597.00,926.00,688.00,738.00,1472.00,2496.00,731.00,742.00,,,,,,,,,,,,0,0,0,,-1508,16484,-1096,-12,202,-154
28.103,27.79,1.01,3.57,-1.96,0.81,0.89,1.71,0.55,1.00,0.28,685.00,835.00,653.00,738.00,1503.00,2468.00,735.00,795.00,,,,,,,,,,,,0,0,0,,-1544,16520,-1180,-9,199,-141
28.164,27.85,1.04,-0.50,0.18,2.76,-0.37,1.54,0.39,1.20,0.93,657.00,926.00,675.00,707.00,1521.00,2495.00,707.00,775.00,,,,,,,,,,,,0,0,0,,-1472,16300,-1188,-23,112,-214
28.205,27.90,1.03,1.38,0.03,2.54,-0.84,1.01,0.91,1.83,-0.42,640.00,863.00,695.00,722.00,1493.00,2513.00,752.00,784.00,,,,,,,,,,,,0,0,0,,-1476,16296,-1264,-52,35,-142
28.267,27.96,1.05,1.13,-1.40,0.43,0.65,1.25,0.85,-0.61,1.97,695.00,906.00,666.00,754.00,1491.00,2493.00,691.00,810.00,,,,,,,,,,,,0,0,0,,-1424,16344,-1116,-122,55,-144
28.329,28.01,1.08,-1.94,2.31,1.46,0.39,1.76,0.15,3.93,-1.51,601.00,926.00,663.00,729.00,1535.00,2490.00,768.00,743.00,,,,,,,,,,,,0,0,0,,-1456,16336,-1164,-88,84,-251
28.39,28.07,1.06,4.58,-3.27,3.50,-2.10,0.70,0.72,-0.99,0.90,722.00,831.00,731.00,719.00,1517.00,2557.00,737.00,846.00,,,,,,,,,,,,0,0,0,,-1500,16236,-1208,-11,77,-120
28.452,28.12,1.05,-1.95,0.56,0.06,0.18,0.73,0.93,0.73,1.30,661.00,971.00,688.00,775.00,1499.00,2539.00,699.00,782.00,,,,,,,,,,,,0,0,0,,-1456,16208,-1132,-104,193,-64
28.472,28.18,1.07,0.49,0.62,0.49,0.91,1.45,-0.04,3.02,-1.75,630.00,880.00,656.00,747.00,1559.00,2533.00,791.00,775.00,,,,,,,,,,,,0,0,0,,-1348,16288,-1228,-222,242,-86
28.535,28.23,1.04,2.61,-2.96,2.89,-1.25,0.52,0.56,-1.26,1.79,736.00,891.00,706.00,720.00,1535.00,2586.00,706.00,835.00,,,,,,,,,,,,0,0,0,,-1284,16216,-1256,-291,124,-148
28.595,28.29,0.99,-2.56,2.28,0.99,-0.32,0.13,0.97,2.41,-0.27,609.00,950.00,695.00,757.00,1512.00,2597.00,738.00,763.00,,,,,,,,,,,,0,0,0,,-1436,16252,-1088,-223,-12,-126
28.635,28.34,0.99,2.98,-1.84,0.07,0.94,0.86,0.45,0.34,0.01,688.00,852.00,660.00,759.00,1535.00,2559.00,755.00,822.00,,,,,,,,,,,,0,0,0,,-1448,16492,-1132,-68,67,-140
28.696,28.40,0.96,-0.66,-0.29,1.78,-0.53,0.53,0.35,0.13,1.19,676.00,944.00,693.00,738.00,1552.00,2599.00,711.00,803.00,,,,,,,,,,,,0,0,0,,-1500,16288,-1200,-198,174,-293
28.757,28.45,0.95,0.08,0.65,2.12,-0.94,0.66,0.92,1.83,-0.52,634.00,894.00,704.00,736.00,1502.00,2547.00,756.00,786.00,,,,,,,,,,,,0,0,0,,-1496,16196,-904,-226,24,-156
28.819,28.51,0.97,1.96,-2.34,0.59,0.52,1.35,0.80,-0.62,1.70,720.00,899.00,669.00,752.00,1493.00,2487.00,701.00,816.00,,,,,,,,,,,,0,0,0,,-1380,16280,-888,-95,108,-105
28.882,28.56,1.01,-1.74,1.70,0.96,0.23,1.88,0.24,3.32,-1.07,619.00,934.00,675.00,747.00,1524.00,2472.00,758.00,752.00,,,,,,,,,,,,0,0,0,,-1448,16344,-1032,-12,223,-173
28.943,28.62,1.02,4.46,-3.05,3.05,-1.33,1.05,0.85,-0.46,0.65,715.00,830.00,707.00,717.00,1497.00,2513.00,740.00,834.00,,,,,,,,,,,,0,0,0,,-1452,16284,-1080,38,155,-154
29.026,28.67,1.02,-1.71,0.50,0.62,0.12,1.10,0.98,0.69,1.26,660.00,963.00,683.00,759.00,1485.00,2499.00,701.00,784.00,,,,,,,,,,,,0,0,0,,-1436,16272,-1156,-62,48,-231
29.047,28.73,1.07,0.82,0.22,1.09,0.74,1.99,0.12,3.32,-1.81,640.00,878.00,655.00,733.00,1531.00,2469.00,789.00,767.00,,,,,,,,,,,,0,0,0,,-1424,16260,-1068,-130,29,-177
29.087,28.78,1.07,3.10,-2.98,3.39,-1.37,1.14,0.73,-1.59,2.00,730.00,874.00,704.00,708.00,1504.00,2512.00,702.00,841.00,,,,,,,,,,,,0,0,0,,-1404,16284,-1060,-127,59,-206
29.19,28.84,1.06,-2.23,2.11,1.48,-0.30,0.90,1.08,2.71,-0.37,611.00,942.00,688.00,742.00,1482.00,2512.00,738.00,756.00,,,,,,,,,,,,0,0,0,,-1508,16244,-1208,-180,52,-249
29.21,28.89,1.08,3.34,-1.80,0.82,0.64,1.45,0.55,0.80,-0.17,682.00,839.00,662.00,743.00,1510.00,2493.00,756.00,811.00,,,,,,,,,,,,0,0,0,,-1472,16260,-1028,-86,52,-109
29.251,28.95,1.08,-0.25,-0.35,2.62,-0.44,1.00,0.53,0.12,1.35,673.00,930.00,679.00,712.00,1524.00,2539.00,705.00,800.00,,,,,,,,,,,,0,0,0,,-1392,16348,-1048,-91,230,-82
29.315,29.00,1.05,-0.07,0.90,2.01,-0.71,0.50,0.98,1.81,-0.58,627.00,893.00,697.00,735.00,1501.00,2559.00,759.00,788.00,,,,,,,,,,,,0,0,0,,-1488,16304,-1188,-188,215,-108
29.355,29.06,1.03,1.45,-1.59,0.05,0.54,0.68,0.71,-0.89,1.38,698.00,899.00,675.00,768.00,1518.00,2559.00,717.00,832.00,,,,,,,,,,,,0,0,0,,-1460,16328,-1192,-260,94,-103
29.416,29.11,1.03,-2.33,1.90,0.90,0.11,1.09,0.11,2.65,-0.91,619.00,951.00,680.00,751.00,1557.00,2559.00,761.00,769.00,,,,,,,,,,,,0,0,0,,-1536,16372,-1196,-211,61,-145
29.477,29.17,0.98,3.43,-2.60,2.29,-1.28,-0.13,0.78,-1.13,0.46,711.00,854.00,715.00,738.00,1535.00,2638.00,757.00,861.00,,,,,,,,,,,,0,0,0,,-1408,16344,-1044,-116,101,-41
29.56,29.22,0.93,-1.50,-0.33,-0.53,0.57,0.01,0.92,-0.59,1.62,688.00,977.00,681.00,785.00,1520.00,2614.00,704.00,817.00,,,,,,,,,,,,0,0,0,,-1292,16344,-1192,-151,159,-277
29.58,29.28,0.98,-0.33,1.08,0.69,0.57,1.90,-0.41,3.02,-2.03,624.00,898.00,666.00,748.00,1578.00,2513.00,803.00,781.00,,,,,,,,,,,,0,0,0,,-1452,16312,-1080,-290,24,-138
29.662,29.33,0.99,3.27,-3.26,3.37,-1.54,1.22,0.57,-1.89,1.66,739.00,875.00,711.00,712.00,1515.00,2515.00,719.00,859.00,,,,,,,,,,,,0,0,0,,-1412,16216,-848,-56,110,-110
29.683,29.39,0.99,-1.60,0.38,0.92,0.38,1.01,1.16,1.77,0.15,663.00,962.00,670.00,745.00,1473.00,2496.00,730.00,774.00,,,,,,,,,,,,0,0,0,,-1548,16436,-1044,-16,236,-152
29.743,29.44,1.03,2.79,-1.34,0.93,0.77,1.72,0.61,0.79,-0.39,672.00,847.00,656.00,737.00,1498.00,2463.00,765.00,816.00,,,,,,,,,,,,0,0,0,,-1404,16344,-1044,3,173,-154
29.805,29.50,1.04,0.14,-0.81,4.10,-1.07,1.37,0.58,-0.25,1.47,685.00,927.00,684.00,683.00,1510.00,2499.00,705.00,809.00,,,,,,,,,,,,0,0,0,,-1536,16208,-1192,-33,126,-233
29.846,29.55,1.04,-0.37,1.18,2.06,-0.49,0.99,0.99,3.91,-1.43,621.00,897.00,688.00,729.00,1487.00,2509.00,765.00,742.00,,,,,,,,,,,,0,0,0,,-1428,16260,-1196,-104,24,-145
29.927,29.61,1.06,2.15,-1.83,0.47,0.70,1.46,0.66,-0.92,1.34,698.00,880.00,664.00,752.00,1501.00,2485.00,719.00,834.00,,,,,,,,,,,,0,0,0,,-1388,16308,-1108,-133,69,-230
29.988,29.66,1.09,-1.70,1.60,1.93,0.01,1.61,0.29,2.52,-0.68,622.00,935.00,671.00,723.00,1527.00,2495.00,753.00,768.00,,,,,,,,,,,,0,0,0,,-1456,16204,-1116,-129,117,-242
30.029,29.72,1.07,3.24,-2.01,2.82,-1.25,0.81,0.68,-0.50,0.00,691.00,847.00,707.00,722.00,1517.00,2548.00,767.00,850.00,,,,,,,,,,,,1,1,0,,-1624,16256,-1136,-86,139,-114
30.092,29.77,1.06,-1.31,-0.32,0.10,0.22,0.69,0.92,-0.81,1.85,685.00,969.00,686.00,773.00,1501.00,2544.00,698.00,819.00,,,,,,,,,,,,1,1,0,,-1476,16392,-1084,-122,203,-92
30.154,29.83,1.06,-0.67,1.46,0.67,0.55,1.22,0.12,2.77,-1.94,615.00,901.00,667.00,749.00,1552.00,2545.00,803.00,787.00,,,,,,,,,,,,1,1,0,,-1392,16304,-1248,-140,230,-147
30.194,29.88,1.03,3.30,-3.27,3.09,-1.55,0.34,0.69,-2.34,1.63,739.00,874.00,715.00,720.00,1529.00,2595.00,726.00,875.00,,,,,,,,,,,,1,1,0,,-1472,16348,-976,-178,129,-134
30.235,29.94,0.98,-2.82,1.65,0.49,-0.02,0.13,1.01,1.48,0.10,633.00,976.00,690.00,766.00,1509.00,2595.00,736.00,784.00,,,,,,,,,,,,1,1,0,,-1504,16232,-1076,-162,132,-153
30.317,29.99,0.96,2.18,-1.13,0.07,0.75,0.59,0.54,0.50,-0.72,672.00,863.00,667.00,763.00,1535.00,2580.00,783.00,833.00,,,,,,,,,,,,1,1,0,,-1380,16380,-1144,-102,156,-158
30.338,30.05,0.94,-0.06,-1.06,2.23,-0.79,0.40,0.60,-1.36,1.85,697.00,941.00,697.00,730.00,1535.00,2595.00,705.00,837.00,,,,,,,,,,,,1,1,0,,-1520,16260,-1132,-342,170,-175
30.399,30.10,0.93,-0.92,1.33,1.54,-0.59,0.78,1.01,1.83,-0.76,622.00,913.00,698.00,746.00,1491.00,2529.00,766.00,791.00,,,,,,,,,,,,1,1,0,,-1396,16320,-868,-308,178,-131
30.48,30.16,0.96,2.26,-1.94,0.51,0.55,1.48,0.70,-0.66,0.99,701.00,879.00,669.00,754.00,1497.00,2480.00,729.00,833.00,,,,,,,,,,,,1,1,0,,-1468,16260,-872,-117,233,-100
30.541,30.21,1.00,-1.54,1.28,1.96,-0.08,1.80,0.23,1.88,-0.26,631.00,937.00,674.00,724.00,1527.00,2480.00,745.00,779.00,,,,,,,,,,,,1,1,0,,-1476,16292,-856,-108,235,-137
30.563,30.27,1.00,2.99,-1.68,2.84,-1.23,0.98,0.75,-0.15,-0.12,682.00,848.00,706.00,721.00,1507.00,2527.00,767.00,841.00,,,,,,,,,,,,1,1,0,,-1360,16440,-1100,-59,239,-107
30.665,30.32,1.00,-1.00,-0.50,0.23,0.12,1.08,0.95,-1.11,1.97,688.00,962.00,688.00,771.00,1488.00,2503.00,697.00,826.00,,,,,,,,,,,,1,1,0,,-1352,16284,-1224,-180,105,-134
30.686,30.38,1.05,-1.25,1.89,1.43,0.24,1.90,0.10,3.19,-1.95,607.00,911.00,669.00,733.00,1535.00,2479.00,797.00,774.00,,,,,,,,,,,,1,1,0,,-1460,16400,-1020,-276,37,-52
30.727,30.43,1.03,3.76,-3.42,3.46,-1.73,0.80,0.76,-2.00,1.34,739.00,862.00,717.00,713.00,1511.00,2544.00,733.00,870.00,,,,,,,,,,,,1,1,0,,-1424,16444,-900,-247,127,-195
30.788,30.49,1.03,-2.77,1.58,0.58,0.19,0.89,1.05,1.28,0.44,635.00,976.00,681.00,759.00,1485.00,2515.00,725.00,783.00,,,,,,,,,,,,1,1,0,,-1496,16376,-948,-178,76,-191
30.85,30.54,1.04,2.09,-0.74,0.62,0.73,1.34,0.47,0.89,-0.80,659.00,857.00,661.00,747.00,1520.00,2510.00,781.00,822.00,,,,,,,,,,,,1,1,0,,-1436,16268,-924,-51,101,-105
30.912,30.60,1.03,0.38,-1.39,2.52,-0.65,0.85,0.60,-1.53,1.88,704.00,933.00,688.00,719.00,1523.00,2550.00,706.00,842.00,,,,,,,,,,,,1,1,0,,-1340,16288,-1016,-115,266,-113
30.954,30.65,1.01,-1.62,1.84,1.52,-0.66,0.51,0.97,1.59,-0.73,613.00,926.00,701.00,748.00,1502.00,2559.00,768.00,798.00,,,,,,,,,,,,1,1,0,,-1412,16340,-976,-177,301,-88
31.016,30.71,0.99,2.16,-2.09,-0.16,0.94,0.77,0.59,-1.13,0.97,708.00,886.00,663.00,766.00,1526.00,2559.00,736.00,849.00,,,,,,,,,,,,1,1,0,,-1392,16284,-928,-216,194,-125
31.078,30.76,0.98,-1.81,0.96,1.42,-0.25,0.69,0.22,1.12,-0.18,645.00,955.00,687.00,743.00,1559.00,2592.00,752.00,801.00,,,,,,,,,,,,1,1,0,,-1340,16388,-944,-103,191,-50
31.139,30.82,0.93,2.40,-1.59,2.02,-1.14,0.08,0.71,-0.14,-0.52,686.00,866.00,713.00,743.00,1535.00,2621.00,784.00,850.00,,,,,,,,,,,,1,1,0,,-1308,16280,-904,23,372,-255
31.2,30.87,0.93,-0.48,-1.15,-0.03,0.08,0.90,0.92,-1.30,1.99,706.00,959.00,693.00,780.00,1495.00,2523.00,699.00,832.00,,,,,,,,,,,,1,1,0,,-1396,16128,-1080,-229,285,-145
31.241,30.93,0.99,-1.25,1.87,1.24,0.47,2.01,0.06,3.43,-1.96,608.00,912.00,663.00,734.00,1535.00,2471.00,794.00,767.00,,,,,,,,,,,,1,1,0,,-1396,16268,-752,-180,225,-6
31.303,30.98,0.99,3.93,-3.38,3.35,-1.61,1.12,0.72,-1.69,1.06,735.00,855.00,714.00,714.00,1505.00,2514.00,740.00,866.00,,,,,,,,,,,,1,1,0,,-1384,16204,-892,-74,450,-34
31.408,31.04,1.00,-2.54,1.35,-0.06,1.18,1.18,0.94,1.15,0.54,640.00,973.00,653.00,758.00,1486.00,2494.00,723.00,785.00,,,,,,,,,,,,1,1,0,,-1360,16224,-820,-253,507,106
31.428,31.09,1.04,1.75,-0.38,0.77,0.91,1.77,0.35,1.62,-1.19,650.00,860.00,653.00,739.00,1518.00,2475.00,787.00,807.00,,,,,,,,,,,,1,1,0,,-1172,16356,-996,-430,422,39
31.469,31.15,1.06,1.16,-1.65,2.79,-0.63,1.36,0.64,-1.37,2.03,704.00,911.00,684.00,711.00,1505.00,2496.00,698.00,833.00,,,,,,,,,,,,1,1,0,,-1268,16400,-984,-512,264,77
31.511,31.20,1.05,-1.74,1.97,2.18,-0.72,1.00,1.10,2.06,-0.62,610.00,927.00,695.00,730.00,1478.00,2501.00,757.00,781.00,,,,,,,,,,,,1,1,0,,-1100,16404,-736,-382,243,14
31.573,31.26,1.08,2.83,-2.06,0.76,0.83,1.53,0.64,-0.45,0.72,698.00,862.00,656.00,741.00,1501.00,2480.00,737.00,832.00,,,,,,,,,,,,1,1,0,,-1260,16264,-640,-307,308,-55
31.614,31.31,1.09,-1.43,0.83,2.36,-0.22,1.33,0.45,1.16,0.28,645.00,944.00,674.00,715.00,1522.00,2512.00,733.00,790.00,,,,,,,,,,,,1,1,0,,-1232,16400,-836,-198,309,-68
31.675,31.37,1.07,2.02,-0.94,2.44,-1.04,0.67,0.80,0.37,-0.43,667.00,864.00,704.00,729.00,1511.00,2554.00,773.00,831.00,,,,,,,,,,,,1,1,0,,-1228,16300,-748,-236,291,-13
31.757,31.42,1.05,0.02,-1.29,0.05,0.24,0.65,0.90,-1.62,1.96,705.00,944.00,686.00,774.00,1504.00,2550.00,704.00,843.00,,,,,,,,,,,,1,1,0,,-1032,16436,-684,-276,260,-81
31.777,31.48,1.06,-2.06,2.17,0.80,0.62,1.34,-0.07,2.87,-1.87,607.00,934.00,663.00,744.00,1565.00,2546.00,798.00,782.00,,,,,,,,,,,,1,1,0,,-1152,16368,-888,-193,274,-71
31.84,31.53,1.02,3.93,-3.56,2.67,-1.48,0.12,0.83,-2.22,1.17,742.00,859.00,718.00,731.00,1524.00,2608.00,743.00,882.00,,,,,,,,,,,,1,1,0,,-1056,16368,-732,-248,163,-56
31.881,31.59,0.98,-3.07,1.08,-0.06,0.17,0.22,0.91,0.11,1.04,656.00,1001.00,690.00,779.00,1515.00,2593.00,717.00,807.00,,,,,,,,,,,,1,1,0,,-1184,16588,-688,-156,153,-222
31.943,31.64,0.99,0.96,-0.03,0.30,0.95,1.26,0.31,1.84,-1.52,647.00,879.00,657.00,752.00,1535.00,2528.00,798.00,807.00,,,,,,,,,,,,1,1,0,,-1176,16220,-656,-292,213,-159
32.005,31.70,1.01,1.36,-2.11,2.56,-0.77,1.39,0.61,-1.44,2.06,719.00,915.00,692.00,720.00,1507.00,2495.00,698.00,835.00,,,,,,,,,,,,1,1,0,,-1008,16236,-476,-279,145,-66
32.129,31.75,1.02,-1.95,2.04,2.15,-0.52,1.21,1.10,2.57,-0.69,610.00,933.00,688.00,727.00,1472.00,2480.00,753.00,767.00,,,,,,,,,,,,1,1,0,,-1084,16328,-592,-64,275,-50
32.149,31.81,1.05,3.17,-2.04,0.81,0.89,1.66,0.75,-0.27,1.09,693.00,850.00,653.00,738.00,1488.00,2459.00,720.00,818.00,,,,,,,,,,,,1,1,0,,-924,16232,-712,-2,221,-167
32.169,31.86,1.09,-0.84,0.32,2.64,-0.20,1.91,0.36,1.02,0.68,656.00,935.00,670.00,707.00,1513.00,2461.00,719.00,786.00,,,,,,,,,,,,1,1,0,,-1052,16312,-848,7,195,-104
32.23,31.92,1.11,1.94,-0.61,2.91,-1.02,1.30,0.87,1.09,-0.41,656.00,859.00,697.00,715.00,1488.00,2486.00,762.00,807.00,,,,,,,,,,,,1,1,0,,-1072,16228,-656,-175,165,-141
32.271,31.97,1.12,0.87,-1.56,0.10,0.60,1.49,0.87,-1.21,2.17,704.00,919.00,672.00,765.00,1483.00,2468.00,691.00,825.00,,,,,,,,,,,,1,1,0,,-1080,16364,-832,-113,133,-130
32.332,32.03,1.18,-1.67,2.19,1.38,0.62,2.18,0.11,3.63,-1.77,602.00,919.00,656.00,727.00,1526.00,2451.00,783.00,757.00,,,,,,,,,,,,1,1,0,,-1000,16312,-564,-182,47,-120
32.393,32.08,1.17,4.40,-3.54,3.79,-1.58,1.13,0.76,-1.41,1.05,735.00,843.00,707.00,701.00,1502.00,2511.00,737.00,857.00,,,,,,,,,,,,1,1,0,,-1160,16312,-588,-65,84,-236
32.434,32.14,1.17,-2.28,0.81,1.48,-0.70,1.13,0.99,0.58,1.09,656.00,977.00,703.00,750.00,1483.00,2495.00,709.00,791.00,,,,,,,,,,,,1,1,0,,-1100,16240,-760,61,170,-115
32.496,32.19,1.20,0.96,0.23,1.31,0.72,1.75,0.29,2.23,-1.53,638.00,873.00,653.00,727.00,1523.00,2481.00,793.00,795.00,,,,,,,,,,,,1,1,0,,-1132,16400,-712,11,222,-96
32.558,32.25,1.20,2.20,-2.70,3.28,-0.98,1.16,0.55,-1.55,1.86,731.00,899.00,691.00,704.00,1518.00,2522.00,707.00,843.00,,,,,,,,,,,,1,1,0,,-1196,16324,-672,-206,134,-146
32.599,32.30,1.17,-2.33,2.17,1.72,-0.30,0.69,1.08,2.44,-0.55,610.00,944.00,685.00,735.00,1488.00,2533.00,749.00,768.00,,,,,,,,,,,,1,1,0,,-1132,16384,-856,-73,128,-117
32.661,32.36,1.18,3.23,-2.29,0.32,1.11,1.22,0.51,-0.16,0.30,702.00,854.00,651.00,748.00,1520.00,2519.00,750.00,832.00,,,,,,,,,,,,1,1,0,,-1084,16300,-716,60,174,-107
32.723,32.41,1.17,-0.98,-0.02,2.18,-0.15,1.07,0.38,0.49,0.76,670.00,949.00,674.00,719.00,1535.00,2543.00,723.00,801.00,,,,,,,,,,,,1,1,0,,-1092,16348,-748,-132,115,-315
32.765,32.47,1.17,0.53,-0.11,2.29,-0.68,1.09,0.93,1.24,-0.68,655.00,896.00,692.00,726.00,1489.00,2503.00,771.00,808.00,,,,,,,,,,,,1,1,0,,-1192,16228,-568,-305,16,-122
32.909,32.52,1.19,1.12,-1.64,0.76,0.57,1.64,0.90,-1.04,1.82,704.00,912.00,665.00,746.00,1477.00,2452.00,702.00,827.00,,,,,,,,,,,,1,1,0,,-1096,16292,-508,-220,25,-156
32.93,32.58,1.22,-1.93,2.09,1.83,0.46,1.86,0.29,3.62,-1.41,608.00,931.00,656.00,717.00,1520.00,2470.00,768.00,750.00,,,,,,,,,,,,1,1,0,,-1096,16356,-516,-3,125,-166
32.951,32.63,1.24,4.70,-3.54,3.91,-1.54,1.61,0.66,-1.11,0.94,731.00,833.00,704.00,697.00,1497.00,2470.00,737.00,849.00,,,,,,,,,,,,1,1,0,,-1084,16444,-692,40,174,-131
33.012,32.69,1.26,-1.78,0.50,0.73,0.42,1.62,0.95,0.64,1.33,661.00,966.00,671.00,750.00,1473.00,2450.00,699.00,784.00,,,,,,,,,,,,1,1,0,,-1012,16224,-896,44,186,-247
33.033,32.74,1.32,0.98,0.55,1.51,0.88,2.48,0.10,2.25,-0.61,627.00,865.00,645.00,718.00,1519.00,2423.00,754.00,775.00,,,,,,,,,,,,1,1,0,,-1148,16288,-876,-37,81,-141
33.095,32.80,1.35,2.88,-2.90,3.93,-1.15,1.78,0.69,-1.26,1.92,730.00,880.00,689.00,689.00,1490.00,2452.00,701.00,832.00,,,,,,,,,,,,1,1,0,,-1016,16412,-740,-17,66,-202
33.156,32.85,1.36,-2.12,2.22,2.25,-0.09,1.55,0.99,2.84,-0.51,606.00,935.00,671.00,716.00,1472.00,2454.00,742.00,755.00,,,,,,,,,,,,1,1,0,,-1180,16360,-828,-36,134,-216
33.219,32.91,1.39,3.36,-1.97,1.08,1.12,2.01,0.50,0.45,0.12,688.00,842.00,642.00,726.00,1499.00,2442.00,749.00,816.00,,,,,,,,,,,,1,1,0,,-1240,16296,-948,-11,98,-203
33.261,32.96,1.40,-0.25,-0.35,3.32,-0.51,1.68,0.37,0.19,1.19,673.00,930.00,673.00,694.00,1519.00,2483.00,710.00,801.00,,,,,,,,,,,,1,1,0,,-1072,16284,-676,-96,84,-117
33.322,33.02,1.41,0.76,0.27,2.65,-0.64,1.47,0.24,1.63,-0.59,639.00,879.00,686.00,715.00,1535.00,2512.00,762.00,794.00,,,,,,,,,,,,1,1,0,,-1140,16368,-868,-141,154,-120
33.403,33.07,1.40,1.35,-1.69,0.82,0.64,1.33,0.69,-1.20,1.74,703.00,905.00,662.00,743.00,1502.00,2496.00,707.00,834.00,,,,,,,,,,,,1,1,0,,-1208,16464,-828,-62,195,-212
33.424,33.13,1.41,-2.37,2.15,1.32,0.55,1.51,0.23,2.80,-1.13,611.00,946.00,659.00,730.00,1535.00,2509.00,768.00,769.00,,,,,,,,,,,,1,1,0,,-1108,16360,-732,138,148,-177
33.505,33.18,1.37,3.87,-2.98,3.14,-1.46,0.70,0.68,-1.41,0.65,720.00,848.00,711.00,717.00,1520.00,2559.00,753.00,866.00,,,,,,,,,,,,1,1,0,,-1060,16540,-712,756,138,-19
33.588,33.24,1.35,-1.95,0.17,0.37,0.21,0.96,0.98,-0.07,1.49,675.00,981.00,683.00,765.00,1489.00,2513.00,702.00,803.00,,,,,,,,,,,,1,1,0,,-1028,15988,-1088,1042,168,-115
33.608,33.29,1.41,0.28,0.93,1.55,0.73,2.46,0.15,3.09,-1.80,622.00,880.00,650.00,720.00,1515.00,2421.00,792.00,774.00,,,,,,,,,,,,1,1,0,,-1012,16356,-972,660,139,-179
33.65,33.35,1.43,2.97,-2.91,3.96,-1.13,1.85,0.68,-1.36,1.85,729.00,877.00,688.00,688.00,1489.00,2446.00,705.00,837.00,,,,,,,,,,,,1,1,0,,-1036,16204,-1160,436,295,-213
33.711,33.40,1.45,-1.96,1.98,2.26,-0.43,1.78,1.04,2.58,-0.12,612.00,935.00,683.00,722.00,1462.00,2429.00,730.00,755.00,,,,,,,,,,,,1,1,0,,-1184,16120,-1436,281,284,-94
33.772,33.46,1.49,3.34,-1.58,1.47,1.10,2.40,0.50,0.80,-0.07,674.00,834.00,638.00,715.00,1488.00,2404.00,752.00,809.00,,,,,,,,,,,,1,1,0,,-1108,15804,-1460,-537,165,-96
33.833,33.51,1.53,0.16,-0.43,3.46,-0.39,2.17,0.37,0.25,1.38,671.00,917.00,667.00,688.00,1505.00,2435.00,702.00,795.00,,,,,,,,,,,,1,1,0,,-1120,16252,-1576,-1307,65,70
33.895,33.57,1.54,0.34,0.85,3.18,-0.73,1.68,0.90,2.14,-0.60,624.00,880.00,683.00,702.00,1476.00,2448.00,755.00,778.00,,,,,,,,,,,,1,1,0,,-976,16400,-920,-1800,68,-15
33.956,33.62,1.56,2.21,-1.95,1.22,0.70,1.92,0.69,-0.54,1.44,702.00,881.00,655.00,730.00,1486.00,2438.00,710.00,819.00,,,,,,,,,,,,1,1,0,,-1064,16568,-480,-1662,174,-129
33.977,33.68,1.59,-1.81,1.61,2.02,0.29,2.24,0.09,3.04,-0.90,623.00,939.00,660.00,715.00,1526.00,2446.00,755.00,757.00,,,,,,,,,,,,1,1,0,,-1184,16536,-296,-980,83,-159
34.038,33.73,1.57,3.72,-2.22,3.79,-1.42,1.26,0.63,-0.52,0.30,693.00,836.00,701.00,698.00,1509.00,2507.00,755.00,844.00,,,,,,,,,,,,1,1,0,,-1184,16372,-224,-424,94,-174
34.079,33.79,1.56,-1.27,-0.41,0.69,0.32,1.35,0.80,-0.18,1.61,688.00,970.00,675.00,753.00,1493.00,2487.00,699.00,804.00,,,,,,,,,,,,1,1,0,,-1104,16324,-516,106,328,-123
34.141,33.84,1.58,-0.22,1.13,1.34,0.83,1.89,0.10,3.25,-2.04,621.00,893.00,649.00,724.00,1535.00,2480.00,800.00,774.00,,,,,,,,,,,,1,1,0,,-924,16272,-796,47,294,-9
34.204,33.90,1.54,3.56,-3.65,3.55,-1.45,0.92,0.60,-2.16,1.88,751.00,874.00,705.00,705.00,1521.00,2543.00,714.00,863.00,,,,,,,,,,,,1,1,0,,-904,16120,-632,-197,198,-49
34.244,33.95,1.51,-2.76,1.86,0.83,0.22,0.77,0.89,1.90,-0.04,625.00,968.00,677.00,751.00,1501.00,2538.00,736.00,774.00,,,,,,,,,,,,1,1,0,,-964,16408,-484,-302,18,-43
34.347,34.01,1.49,2.94,-1.69,0.78,0.79,1.14,0.39,0.42,-0.38,683.00,850.00,657.00,741.00,1532.00,2535.00,770.00,828.00,,,,,,,,,,,,1,1,0,,-936,16476,-412,-172,-13,-164
34.368,34.06,1.48,-0.04,-1.09,3.04,-0.80,1.25,0.32,-0.77,1.65,698.00,941.00,687.00,707.00,1535.00,2529.00,705.00,822.00,,,,,,,,,,,,1,1,0,,-860,16356,-500,-209,-21,-334
34.41,34.12,1.47,-0.45,1.09,2.47,-0.63,1.36,0.85,2.17,-0.82,625.00,902.00,688.00,720.00,1488.00,2482.00,764.00,782.00,,,,,,,,,,,,1,1,1,,-1144,16216,-324,-179,-57,-251
34.47,34.17,1.49,2.64,-2.33,1.09,0.74,1.85,0.69,-0.39,1.31,711.00,875.00,655.00,733.00,1488.00,2445.00,713.00,817.00,,,,,,,,,,,,1,1,1,,-1048,16376,-424,55,31,-174
34.532,34.23,1.53,-1.60,1.44,2.29,0.31,2.22,0.21,2.95,-0.77,626.00,935.00,656.00,707.00,1517.00,2441.00,751.00,757.00,,,,,,,,,,,,1,1,1,,-944,16176,-500,26,161,-255
34.593,34.28,1.52,3.97,-2.47,3.02,-1.08,1.51,0.62,-0.11,0.19,699.00,833.00,698.00,713.00,1503.00,2483.00,754.00,833.00,,,,,,,,,,,,1,1,1,,-1112,16420,-540,30,217,-195
34.634,34.34,1.52,-0.96,-0.51,0.47,0.45,1.53,0.80,-0.23,1.86,688.00,961.00,673.00,757.00,1488.00,2469.00,690.00,800.00,,,,,,,,,,,,1,1,1,,-1136,16252,-648,-137,109,-172
34.736,34.39,1.57,-0.59,1.67,1.65,0.58,2.38,-0.06,3.79,-2.01,607.00,893.00,654.00,720.00,1535.00,2443.00,791.00,757.00,,,,,,,,,,,,1,1,1,,-964,16344,-616,-232,-22,-163
34.757,34.45,1.56,3.74,-3.49,4.19,-1.53,1.39,0.61,-1.61,1.59,742.00,864.00,700.00,689.00,1507.00,2495.00,718.00,851.00,,,,,,,,,,,,1,1,1,,-1036,16404,-528,-173,-71,-201
34.799,34.50,1.54,-2.42,1.63,1.30,0.22,1.28,0.89,2.00,0.15,629.00,961.00,671.00,737.00,1487.00,2487.00,727.00,767.00,,,,,,,,,,,,1,1,1,,-1148,16320,-396,-160,-26,-276
34.861,34.56,1.56,2.85,-1.39,0.92,1.14,1.76,0.36,1.43,-0.72,673.00,846.00,643.00,730.00,1517.00,2475.00,770.00,803.00,,,,,,,,,,,,1,1,1,,-1088,16204,-540,11,62,-224
34.924,34.61,1.55,0.57,-1.27,2.89,-0.26,1.36,0.40,-0.79,1.68,697.00,923.00,669.00,701.00,1525.00,2512.00,704.00,822.00,,,,,,,,,,,,1,1,1,,-1068,16220,-476,-61,144,-160
34.965,34.67,1.50,-0.94,1.49,2.35,-0.51,0.71,0.96,2.13,-0.86,617.00,910.00,685.00,721.00,1497.00,2539.00,766.00,784.00,,,,,,,,,,,,1,1,1,,-1092,16232,-552,-159,128,-135
35.069,34.72,1.49,2.38,-2.17,0.45,0.93,1.19,0.49,-0.89,1.15,708.00,880.00,656.00,748.00,1522.00,2523.00,726.00,837.00,,,,,,,,,,,,1,1,1,,-1064,16288,-504,-169,40,-155
35.09,34.78,1.47,-1.69,1.18,1.75,0.07,1.20,0.09,1.74,-0.29,636.00,945.00,671.00,727.00,1555.00,2549.00,748.00,784.00,,,,,,,,,,,,1,1,1,,-1088,16340,-560,-174,71,-132
35.131,34.83,1.45,2.79,-1.77,2.63,-0.87,1.01,0.44,0.22,-0.27,688.00,857.00,695.00,720.00,1531.00,2544.00,768.00,832.00,,,,,,,,,,,,1,1,1,,-1100,16304,-512,-361,101,-185
35.193,34.89,1.45,-0.72,-0.84,0.50,0.41,1.40,0.90,-0.42,1.82,697.00,960.00,674.00,757.00,1483.00,2475.00,694.00,807.00,,,,,,,,,,,,1,1,1,,-1092,16204,-424,-173,47,-193
35.256,34.94,1.49,-0.98,1.74,1.45,0.62,2.34,-0.00,3.96,-2.16,609.00,905.00,655.00,725.00,1531.00,2443.00,795.00,755.00,,,,,,,,,,,,1,1,1,,-1060,16372,-264,-49,98,-158
35.297,35.00,1.49,4.25,-3.71,3.84,-1.44,1.45,0.64,-1.45,1.49,744.00,852.00,701.00,697.00,1503.00,2487.00,720.00,848.00,,,,,,,,,,,,1,1,1,,-1052,16212,-384,-80,158,-90
35.358,35.05,1.49,-2.65,1.59,1.13,0.12,1.43,0.88,1.81,0.52,633.00,971.00,677.00,744.00,1484.00,2473.00,715.00,765.00,,,,,,,,,,,,1,1,1,,-1080,16336,-484,-45,187,-215
35.461,35.11,1.52,2.50,-0.83,1.10,1.14,2.06,0.34,1.57,-0.74,657.00,845.00,641.00,725.00,1511.00,2448.00,769.00,799.00,,,,,,,,,,,,1,1,1,,-1120,16252,-524,-105,103,-95
35.482,35.16,1.53,1.05,-1.54,3.20,-0.39,1.73,0.47,-0.88,1.95,701.00,912.00,670.00,695.00,1509.00,2471.00,695.00,819.00,,,,,,,,,,,,1,1,1,,-1084,16424,-520,-209,48,-97
35.523,35.22,1.52,-1.23,1.83,2.16,-0.17,1.36,0.87,2.74,-0.85,609.00,912.00,675.00,720.00,1487.00,2481.00,757.00,765.00,,,,,,,,,,,,1,1,1,,-1036,16348,-496,-225,72,-206
35.585,35.27,1.52,2.83,-2.06,0.88,1.15,1.62,0.57,-0.39,0.95,698.00,862.00,643.00,731.00,1504.00,2475.00,727.00,825.00,,,,,,,,,,,,1,1,1,,-1108,16268,-428,-133,55,-209
35.627,35.33,1.53,-1.20,0.90,2.70,-0.14,1.70,0.16,1.58,0.19,640.00,934.00,667.00,704.00,1535.00,2494.00,731.00,779.00,,,,,,,,,,,,1,1,1,,-1132,16348,-432,-48,111,-95
35.688,35.38,1.51,2.57,-1.10,2.59,-0.80,1.00,0.53,0.66,-0.41,666.00,849.00,693.00,720.00,1524.00,2539.00,768.00,821.00,,,,,,,,,,,,1,1,1,,-1144,16220,-288,-160,213,-71
35.729,35.44,1.48,0.01,-1.24,0.77,0.21,0.96,0.68,-0.85,1.86,703.00,943.00,678.00,753.00,1513.00,2533.00,698.00,820.00,,,,,,,,,,,,1,1,1,,-948,16396,-592,-121,191,-106
35.81,35.49,1.48,-1.75,2.31,0.32,0.97,1.58,-0.25,3.55,-2.14,599.00,919.00,656.00,751.00,1573.00,2534.00,800.00,767.00,,,,,,,,,,,,1,1,1,,-996,16292,-468,-116,154,-132
35.872,35.55,1.45,4.44,-3.95,3.71,-1.73,0.78,0.57,-1.75,1.29,751.00,851.00,714.00,706.00,1527.00,2559.00,732.00,863.00,,,,,,,,,,,,1,1,1,,-1040,16336,-344,-230,97,-221
35.913,35.60,1.45,-2.59,1.31,0.76,0.27,1.43,0.88,1.68,0.67,642.00,976.00,676.00,752.00,1484.00,2473.00,711.00,766.00,,,,,,,,,,,,1,1,1,,-1024,16352,-284,-298,27,-151
36.016,35.66,1.50,2.03,-0.27,1.26,1.06,2.43,0.13,2.48,-1.38,643.00,848.00,642.00,722.00,1518.00,2426.00,783.00,784.00,,,,,,,,,,,,1,1,1,,-1096,16328,-80,-61,94,-102
36.036,35.71,1.52,1.67,-1.82,3.22,-0.42,1.90,0.52,-0.79,2.00,704.00,897.00,671.00,695.00,1500.00,2451.00,692.00,815.00,,,,,,,,,,,,1,1,1,,-1016,16332,-540,-85,161,-176
36.057,35.77,1.51,-1.39,2.06,2.20,0.03,1.47,1.00,3.19,-0.88,603.00,912.00,667.00,715.00,1473.00,2461.00,752.00,752.00,,,,,,,,,,,,1,1,1,,-960,16284,-484,7,174,-111
36.118,35.82,1.53,3.43,-2.28,1.27,1.14,1.75,0.98,0.12,0.71,699.00,847.00,639.00,720.00,1467.00,2435.00,730.00,814.00,,,,,,,,,,,,1,1,1,,-956,16236,-440,0,115,-183
36.18,35.88,1.56,-0.77,0.50,3.02,0.09,2.17,0.19,1.69,0.41,649.00,928.00,655.00,691.00,1520.00,2447.00,721.00,771.00,,,,,,,,,,,,1,1,1,,-1008,16308,-348,-116,76,-82
36.242,35.93,1.56,2.39,-0.70,3.04,-0.80,1.60,0.60,1.32,-0.51,654.00,846.00,687.00,707.00,1502.00,2475.00,763.00,802.00,,,,,,,,,,,,1,1,1,,-1060,16420,-456,-37,133,-233
36.283,35.99,1.56,0.91,-1.57,1.05,0.33,1.48,0.81,-0.70,2.05,704.00,918.00,670.00,742.00,1488.00,2473.00,689.00,811.00,,,,,,,,,,,,1,1,1,,-1124,16356,-480,-17,45,-254
36.344,36.04,1.58,-1.52,2.26,1.50,0.74,1.97,0.08,4.17,-2.02,598.00,912.00,650.00,721.00,1535.00,2474.00,786.00,746.00,,,,,,,,,,,,1,1,1,,-1136,16340,-340,28,54,-125
36.405,36.10,1.54,4.71,-3.64,3.86,-1.68,0.91,0.64,-1.06,0.88,735.00,835.00,710.00,701.00,1518.00,2541.00,739.00,849.00,,,,,,,,,,,,1,1,1,,-1068,16316,-312,-32,182,-112
36.446,36.15,1.52,-2.27,0.95,0.67,0.30,0.99,0.84,1.11,0.78,651.00,973.00,676.00,754.00,1499.00,2519.00,714.00,781.00,,,,,,,,,,,,1,1,1,,-996,16244,-560,-41,235,-138
36.547,36.21,1.52,1.61,-0.04,0.97,1.07,1.66,-0.04,2.42,-1.53,640.00,857.00,645.00,730.00,1553.00,2512.00,790.00,789.00,,,,,,,,,,,,1,1,1,,-1152,16364,-512,-69,74,-155
36.568,36.26,1.50,2.00,-2.48,3.16,-0.75,1.05,0.38,-1.27,1.84,725.00,901.00,684.00,703.00,1535.00,2544.00,704.00,834.00,,,,,,,,,,,,1,1,1,,-1028,16484,-440,-60,134,-202
36.609,36.32,1.47,-1.88,2.14,1.58,-0.03,0.98,0.93,2.74,-0.60,606.00,928.00,677.00,734.00,1492.00,2514.00,747.00,760.00,,,,,,,,,,,,1,1,1,,-1076,16212,-580,-144,83,-242
36.692,36.37,1.51,3.58,-2.07,0.90,1.12,2.10,0.52,0.67,0.39,689.00,837.00,644.00,731.00,1495.00,2432.00,735.00,803.00,,,,,,,,,,,,1,1,1,,-992,16244,-324,-237,5,-131
36.733,36.43,1.54,-0.50,0.35,3.02,-0.02,2.27,0.26,1.59,0.70,651.00,922.00,659.00,693.00,1511.00,2432.00,711.00,768.00,,,,,,,,,,,,1,1,1,,-960,16436,-312,-93,136,-145
36.775,36.48,1.55,2.02,-0.21,2.88,-0.50,1.75,0.75,1.95,-0.56,641.00,847.00,678.00,706.00,1486.00,2451.00,756.00,783.00,,,,,,,,,,,,1,1,1,,-976,16124,-380,-32,227,-175
36.835,36.54,1.57,1.54,-1.60,1.47,0.58,1.84,0.69,-0.48,2.00,697.00,896.00,656.00,725.00,1488.00,2446.00,688.00,805.00,,,,,,,,,,,,1,1,1,,-1072,16340,-336,26,198,-187
36.917,36.59,1.61,-1.53,2.24,1.97,0.79,2.49,-0.10,4.27,-1.82,599.00,913.00,643.00,707.00,1535.00,2435.00,776.00,739.00,,,,,,,,,,,,1,1,1,,-1136,16208,-584,-48,130,-152
36.938,36.65,1.60,4.95,-3.37,3.98,-1.54,1.43,0.65,-0.56,0.76,721.00,821.00,703.00,695.00,1503.00,2489.00,737.00,835.00,,,,,,,,,,,,1,1,1,,-960,16316,-700,-51,50,-145
36.998,36.70,1.61,-1.61,0.64,1.04,0.56,1.66,0.75,1.31,1.16,654.00,956.00,662.00,738.00,1488.00,2459.00,697.00,767.00,,,,,,,,,,,,1,1,1,,-1056,16460,-532,-127,70,-242
37.06,36.76,1.64,1.23,0.61,1.76,0.89,2.29,-0.03,3.48,-1.79,622.00,855.00,642.00,711.00,1535.00,2450.00,786.00,762.00,,,,,,,,,,,,1,1,1,,-1248,16316,-492,-29,66,-185
37.101,36.81,1.63,2.95,-2.75,3.82,-0.92,1.51,0.42,-0.74,1.74,723.00,874.00,682.00,688.00,1519.00,2496.00,701.00,819.00,,,,,,,,,,,,1,1,1,,-1068,16192,-504,-20,111,-97
37.162,36.87,1.61,-1.69,2.11,2.07,-0.09,1.04,0.86,3.06,-0.68,605.00,922.00,673.00,721.00,1496.00,2513.00,746.00,752.00,,,,,,,,,,,,1,1,1,,-1080,16356,-532,-51,243,-142
37.223,36.92,1.60,3.72,-1.95,0.98,1.21,1.48,0.37,0.55,0.06,683.00,830.00,640.00,727.00,1524.00,2502.00,750.00,814.00,,,,,,,,,,,,1,1,1,,-1028,16336,-404,-148,171,-163
37.305,36.98,1.58,-0.62,-0.00,2.68,-0.10,1.21,0.33,0.97,0.70,665.00,935.00,666.00,704.00,1535.00,2532.00,719.00,787.00,,,,,,,,,,,,1,1,1,,-980,16312,-588,-103,77,-146
37.346,37.03,1.53,1.12,0.12,2.47,-0.63,0.65,0.76,1.59,-0.68,640.00,870.00,688.00,720.00,1515.00,2559.00,766.00,797.00,,,,,,,,,,,,1,1,1,,-952,16440,-588,-126,106,-171
37.407,37.09,1.50,1.21,-1.27,0.83,0.16,0.89,0.62,-0.94,1.68,689.00,900.00,679.00,752.00,1520.00,2544.00,706.00,827.00,,,,,,,,,,,,1,1,1,,-1064,16336,-772,-225,128,-264
37.47,37.14,1.53,-1.80,2.14,1.63,0.50,2.14,0.02,3.75,-1.50,605.00,925.00,657.00,722.00,1535.00,2461.00,770.00,748.00,,,,,,,,,,,,1,1,1,,-1120,16352,-376,-370,-16,-130
37.511,37.20,1.53,5.10,-3.49,4.00,-1.57,1.51,0.65,-0.52,0.69,724.00,819.00,704.00,695.00,1500.00,2480.00,739.00,835.00,,,,,,,,,,,,1,1,1,,-1008,16312,-220,-86,54,-145
37.573,37.25,1.54,-1.39,0.51,1.03,0.43,1.74,0.76,1.10,1.28,656.00,951.00,667.00,741.00,1485.00,2451.00,695.00,771.00,,,,,,,,,,,,1,1,1,,-1040,16372,-332,-59,124,-165
37.636,37.31,1.60,0.93,0.92,1.72,1.04,2.63,-0.05,3.74,-1.83,615.00,858.00,637.00,709.00,1527.00,2418.00,784.00,755.00,,,,,,,,,,,,1,1,1,,-920,16196,-492,115,203,-176
37.657,37.36,1.60,3.33,-2.93,3.96,-1.08,1.70,0.52,-1.13,1.82,725.00,865.00,686.00,687.00,1506.00,2471.00,703.00,830.00,,,,,,,,,,,,1,1,1,,-1188,16280,-548,-87,116,-218
37.719,37.42,1.60,-1.42,1.95,2.22,0.05,1.62,0.88,3.24,-0.49,607.00,916.00,666.00,714.00,1479.00,2455.00,736.00,743.00,,,,,,,,,,,,1,1,1,,-1184,16344,-476,196,102,-39
37.78,37.47,1.63,4.15,-1.91,1.43,1.11,2.16,0.39,1.33,-0.25,676.00,815.00,638.00,716.00,1504.00,2435.00,752.00,796.00,,,,,,,,,,,,1,1,1,,-956,16632,-156,982,310,-205
37.821,37.53,1.65,0.32,-0.46,3.67,-0.15,2.07,0.22,0.90,1.14,670.00,912.00,656.00,678.00,1520.00,2454.00,703.00,780.00,,,,,,,,,,,,1,1,1,,-1444,16320,-736,2269,560,-363
37.882,37.58,1.64,1.03,0.56,2.60,-0.35,1.39,0.82,2.52,-0.63,626.00,863.00,676.00,711.00,1490.00,2481.00,751.00,767.00,,,,,,,,,,,,1,1,1,,-1336,15952,-720,1991,1086,-156
37.944,37.64,1.63,2.26,-2.15,0.46,1.01,1.43,0.72,-0.06,1.51,709.00,884.00,653.00,746.00,1497.00,2484.00,701.00,802.00,,,,,,,,,,,,1,1,1,,-1144,16164,-1388,961,1514,-271
38.027,37.69,1.63,-1.80,1.90,1.09,0.74,1.59,0.20,3.30,-0.94,613.00,931.00,655.00,733.00,1535.00,2503.00,753.00,750.00,,,,,,,,,,,,1,1,1,,-1056,15744,-1800,-490,1474,84
38.048,37.75,1.56,4.78,-3.39,2.71,-1.08,0.31,0.81,-0.56,0.53,724.00,827.00,702.00,722.00,1520.00,2590.00,746.00,840.00,,,,,,,,,,,,1,1,1,,-888,15988,-1480,-2142,912,198
38.11,37.80,1.51,-1.84,-0.22,-0.63,0.76,0.53,0.94,0.30,1.31,688.00,987.00,675.00,784.00,1504.00,2559.00,704.00,795.00,,,,,,,,,,,,1,1,1,,-1104,16848,132,-545,1971,-87
38.152,37.86,1.49,0.19,0.81,-0.57,1.36,1.22,-0.08,3.22,-1.79,627.00,886.00,653.00,770.00,1569.00,2559.00,790.00,770.00,,,,,,,,,,,,1,1,1,,-1172,16596,-580,-65,3592,-299
38.213,37.91,1.43,3.73,-4.08,2.87,-1.21,0.24,0.66,-1.55,1.60,766.00,878.00,705.00,720.00,1535.00,2608.00,717.00,849.00,,,,,,,,,,,,1,1,1,,-936,16348,-1692,-1022,3294,-359
38.275,37.97,1.40,-2.50,1.86,0.76,0.27,0.88,0.98,2.73,-0.20,622.00,958.00,676.00,752.00,1491.00,2521.00,731.00,752.00,,,,,,,,,,,,1,1,1,,-896,16360,-1560,-1142,2042,-436
38.316,38.02,1.42,3.87,-2.22,1.00,1.03,1.66,0.52,1.78,-0.40,691.00,831.00,646.00,730.00,1507.00,2475.00,752.00,785.00,,,,,,,,,,,,1,1,1,,-1036,16152,-864,-977,949,-378
38.377,38.08,1.42,0.03,-0.87,3.19,-0.16,1.53,0.41,0.64,1.33,689.00,933.00,662.00,691.00,1519.00,2494.00,699.00,784.00,,,,,,,,,,,,1,1,1,,-1132,16416,-744,-232,1109,-224
38.439,38.13,1.40,0.60,0.59,2.48,-0.34,0.89,1.01,2.44,-0.50,630.00,877.00,677.00,714.00,1488.00,2518.00,747.00,767.00,,,,,,,,,,,,1,1,1,,-952,16316,-600,-194,923,-39
38.5,38.19,1.40,3.06,-2.78,0.66,1.17,1.38,0.56,-0.17,1.50,723.00,871.00,645.00,737.00,1511.00,2499.00,703.00,806.00,,,,,,,,,,,,1,1,1,,-1068,16412,-948,-216,879,-462
38.56,38.24,1.41,-1.68,1.65,2.07,0.64,1.61,0.19,3.30,-0.89,620.00,933.00,647.00,707.00,1535.00,2501.00,751.00,749.00,,,,,,,,,,,,1,1,1,,-1172,16140,-800,-348,239,-394
38.643,38.30,1.37,4.90,-3.07,3.79,-0.99,0.72,0.68,0.02,0.22,710.00,816.00,685.00,690.00,1520.00,2558.00,751.00,828.00,,,,,,,,,,,,1,1,1,,-1340,16464,-788,45,174,-114
38.663,38.35,1.34,-0.69,-0.77,0.54,0.90,0.80,0.86,0.26,1.75,694.00,957.00,656.00,746.00,1503.00,2537.00,688.00,787.00,,,,,,,,,,,,1,1,1,,-1116,16344,-804,240,125,-76
38.746,38.41,1.35,0.32,1.12,1.49,1.12,1.51,-0.13,3.48,-1.74,615.00,874.00,637.00,714.00,1565.00,2533.00,784.00,761.00,,,,,,,,,,,,1,1,1,,-1064,16264,-1336,51,-152,-148
38.767,38.46,1.30,4.64,-4.16,3.67,-1.04,0.29,0.64,-1.56,1.65,757.00,849.00,688.00,694.00,1535.00,2604.00,715.00,848.00,,,,,,,,,,,,1,1,1,,-812,16184,-2036,168,-2046,-416
38.808,38.52,1.24,-2.48,1.80,1.06,0.53,0.09,0.93,2.21,-0.02,624.00,959.00,663.00,738.00,1517.00,2605.00,731.00,764.00,,,,,,,,,,,,1,1,1,,-1224,16476,-736,665,-2891,230
38.869,38.57,1.21,3.68,-1.80,1.05,1.21,0.75,0.27,1.16,-0.46,678.00,828.00,639.00,725.00,1553.00,2583.00,763.00,806.00,,,,,,,,,,,,1,1,1,,-1328,16220,-720,-157,-2029,239
38.93,38.63,1.17,0.54,-1.31,2.75,-0.04,0.28,0.36,-0.13,1.43,699.00,925.00,663.00,701.00,1559.00,2625.00,705.00,806.00,,,,,,,,,,,,1,1,1,,-1032,16480,-704,-49,-1304,-69
38.992,38.68,1.09,-0.11,1.00,1.74,-0.22,-0.39,0.89,2.08,-0.75,624.00,892.00,682.00,733.00,1533.00,2657.00,762.00,783.00,,,,,,,,,,,,1,1,1,,-1180,16240,-924,-121,-998,-222
39.033,38.74,1.05,2.66,-2.50,0.22,1.06,0.37,0.61,-0.20,0.99,717.00,878.00,654.00,752.00,1535.00,2598.00,723.00,818.00,,,,,,,,,,,,1,1,1,,-1260,16288,-448,-356,-509,-121
39.115,38.79,1.07,-1.54,1.48,1.67,0.55,1.48,-0.00,2.65,-0.57,624.00,932.00,655.00,720.00,1555.00,2527.00,747.00,762.00,,,,,,,,,,,,1,1,1,,-1200,16400,-476,-597,-73,-98
39.156,38.85,1.07,4.45,-2.63,3.21,-0.88,0.90,0.59,0.60,-0.10,699.00,821.00,688.00,704.00,1522.00,2545.00,756.00,816.00,,,,,,,,,,,,1,1,1,,-1104,16480,-668,-85,109,-111
39.217,38.90,1.06,-0.67,-0.64,0.40,0.81,0.99,0.89,0.37,1.63,689.00,953.00,661.00,752.00,1495.00,2516.00,691.00,786.00,,,,,,,,,,,,1,1,1,,-1020,16256,-728,-16,-98,-185
39.258,38.96,1.10,-0.06,1.43,1.32,1.06,1.89,-0.19,3.93,-2.01,609.00,880.00,641.00,720.00,1559.00,2499.00,789.00,753.00,,,,,,,,,,,,1,1,1,,-1116,16496,-824,72,17,-210
39.32,39.01,1.09,4.61,-4.03,3.98,-1.22,0.88,0.60,-0.94,1.32,752.00,847.00,691.00,689.00,1522.00,2547.00,720.00,835.00,,,,,,,,,,,,1,1,1,,-1100,16236,-816,-96,39,-187
39.38,39.07,1.08,-2.48,1.80,1.26,0.43,0.78,0.86,2.29,0.20,624.00,959.00,664.00,734.00,1503.00,2539.00,721.00,757.00,,,,,,,,,,,,1,1,1,,-1108,16364,-708,-214,16,-79
39.421,39.12,1.09,3.79,-1.65,1.26,1.26,1.39,0.34,1.79,-0.65,671.00,821.00,635.00,718.00,1529.00,2513.00,762.00,790.00,,,,,,,,,,,,1,1,1,,-1020,16440,-864,-249,60,-172
39.504,39.18,1.09,1.04,-1.48,3.43,-0.35,0.96,0.41,-0.06,1.57,699.00,911.00,666.00,688.00,1535.00,2551.00,699.00,801.00,,,,,,,,,,,,1,1,1,,-1048,16368,-748,19,31,-261
39.524,39.23,1.05,-0.40,1.52,2.43,-0.21,0.36,0.83,2.48,-0.56,610.00,890.00,673.00,713.00,1517.00,2583.00,749.00,767.00,,,,,,,,,,,,1,1,1,,-1036,16328,-724,-65,-9,-158
39.586,39.29,1.03,3.06,-2.40,0.49,1.37,0.58,0.54,-0.18,0.96,708.00,862.00,640.00,738.00,1535.00,2581.00,724.00,818.00,,,,,,,,,,,,1,1,1,,-1152,16252,-700,-67,211,-106
39.646,39.34,1.01,-1.42,1.18,1.79,0.42,0.74,0.03,2.24,-0.36,633.00,935.00,658.00,719.00,1574.00,2601.00,744.00,770.00,,,,,,,,,,,,1,1,1,,-1044,16488,-800,-237,142,-145
39.687,39.40,0.96,3.65,-2.12,2.63,-0.71,0.05,0.39,0.22,-0.22,690.00,836.00,689.00,717.00,1563.00,2647.00,766.00,831.00,,,,,,,,,,,,1,1,1,,-1172,16404,-704,-158,33,-203
39.749,39.45,0.91,-0.65,-1.02,0.10,0.47,-0.18,0.80,-0.61,1.78,703.00,962.00,677.00,768.00,1535.00,2642.00,698.00,814.00,,,,,,,,,,,,1,1,1,,-960,16344,-656,-62,67,-56
39.852,39.51,0.90,-0.87,1.59,0.67,1.05,0.77,-0.30,3.51,-2.08,613.00,905.00,649.00,739.00,1601.00,2620.00,798.00,767.00,,,,,,,,,,,,1,1,1,,-956,16468,-780,17,208,-234
39.933,39.56,0.87,4.38,-3.95,3.35,-1.30,0.28,0.64,-1.25,1.37,752.00,853.00,702.00,708.00,1535.00,2605.00,722.00,844.00,,,,,,,,,,,,1,1,1,,-1172,16244,-1012,-219,48,-173
39.954,39.62,0.87,-2.44,1.67,0.74,0.55,0.87,0.70,2.31,0.22,628.00,961.00,666.00,747.00,1514.00,2541.00,720.00,756.00,,,,,,,,,,,,1,1,1,,-1064,16284,-724,-164,28,-108
39.996,39.67,0.90,3.04,-1.18,1.05,1.21,1.47,0.31,2.02,-0.75,663.00,835.00,639.00,725.00,1529.00,2507.00,763.00,785.00,,,,,,,,,,,,1,1,1,,-1184,16456,-652,-60,130,-171
40.038,39.73,0.91,1.08,-1.57,3.29,-0.31,1.18,0.34,-0.19,1.72,702.00,912.00,666.00,691.00,1535.00,2534.00,695.00,802.00,,,,,,,,,,,,1,1,1,,-1112,16324,-812,76,234,-182
40.101,39.78,0.90,-0.63,1.57,1.85,0.29,0.67,0.85,3.13,-0.83,611.00,897.00,662.00,720.00,1507.00,2551.00,751.00,753.00,,,,,,,,,,,,1,1,1,,-1064,16348,-1060,107,167,-240
40.164,39.84,0.92,3.43,-2.47,-0.39,1.67,1.19,0.46,0.10,0.92,706.00,851.00,640.00,758.00,1525.00,2525.00,722.00,810.00,,,,,,,,,,,,1,1,1,,-1088,16272,-844,-76,57,-127
40.205,39.89,0.93,-1.42,1.18,2.16,0.35,1.30,0.10,2.58,-0.22,633.00,935.00,656.00,710.00,1552.00,2539.00,734.00,757.00,,,,,,,,,,,,1,1,1,,-1048,16400,-700,-150,66,-115
40.246,39.95,0.91,3.65,-1.90,3.23,-0.91,0.45,0.58,0.79,-0.39,682.00,831.00,689.00,704.00,1535.00,2591.00,765.00,816.00,,,,,,,,,,,,1,1,1,,-1196,16356,-832,-9,104,-232
40.308,40.00,0.89,0.13,-1.07,0.47,0.76,0.47,0.69,-0.49,1.93,695.00,934.00,662.00,751.00,1526.00,2582.00,691.00,807.00,,,,,,,,,,,,1,1,1,,-1112,16248,-900,78,113,-173
40.35,40.06,0.91,-1.20,2.03,1.40,0.69,1.39,-0.33,3.94,-2.13,602.00,906.00,653.00,725.00,1586.00,2559.00,794.00,755.00,,,,,,,,,,,,1,1,1,,-1044,16672,-976,941,230,-193
