Time_Host,Time_Arduino,easingdata,CH1_Oxy,CH1_Deoxy,CH2_Oxy,CH2_Deoxy,CH3_Oxy,CH3_Deoxy,CH4_Oxy,CH4_Deoxy,CH1_PD730,CH1_PD850,CH2_PD730,CH2_PD850,CH3_PD730,CH3_PD850,CH4_PD730,CH4_PD850,Answers,airplane_playstate,trail_times,frameRate,Airplane X,Airplane Y,Correct,Wrong,Slow,AnswerRate,CorrectRate,VFTstates,VFTchoose,VFTCount,Culfstates,ax,ay,az,gx,gy,gz
1.178,0.04,0.00,0.00,0.00,0.00,0.00,0.00,0.00,0.00,0.00,2022.00,3696.00,1255.00,1290.00,1360.00,2541.00,4095.00,4095.00,,,,,,,,,,,,0,0,0,,-1504,15636,4144,866,-355,13
1.199,0.10,0.00,0.00,0.00,0.00,0.00,0.00,0.00,0.00,0.00,1908.00,3726.00,1196.00,1408.00,1261.00,2466.00,4095.00,4095.00,,,,,,,,,,,,0,0,0,,-1392,15424,4096,408,-592,9
1.218,0.15,0.00,0.00,0.00,0.00,0.00,0.00,0.00,0.00,0.00,1782.00,3494.00,1078.00,1351.00,1434.00,2367.00,4095.00,4095.00,,,,,,,,,,,,0,0,0,,-1172,15196,4420,431,-534,267
1.238,0.21,0.00,0.00,0.00,0.00,0.00,0.00,0.00,0.00,0.00,2000.00,3298.00,1255.00,1219.00,1365.00,2499.00,4095.00,4095.00,,,,,,,,,,,,0,0,0,,-1156,15492,4424,772,-252,436
1.259,0.26,0.00,0.00,0.00,0.00,0.00,0.00,0.00,0.00,0.00,1886.00,3536.00,1200.00,1360.00,1296.00,2494.00,4095.00,4095.00,,,,,,,,,,,,0,0,0,,-848,15312,3936,1041,-108,939
1.28,1.05,0.00,0.00,0.00,0.00,0.00,0.00,0.00,0.00,0.00,1817.00,3463.00,1139.00,1363.00,1296.00,2432.00,4095.00,4095.00,,,,,,,,,,,,0,0,0,,-904,15664,3352,-371,-334,-89
1.301,1.11,0.00,0.00,0.00,0.00,0.00,0.00,0.00,0.00,0.00,1835.00,3422.00,1114.00,1314.00,1394.00,2360.00,4095.00,4095.00,,,,,,,,,,,,0,0,0,,-932,15556,4072,-295,-357,356
1.362,1.16,0.00,0.00,0.00,0.00,0.00,0.00,0.00,0.00,0.00,1935.00,3347.00,1236.00,1231.00,1391.00,2511.00,4095.00,4095.00,,,,,,,,,,,,0,0,0,,-616,15684,4144,132,498,791
1.425,1.22,0.00,0.00,0.00,0.00,0.00,0.00,0.00,0.00,0.00,1869.00,3632.00,1174.00,1413.00,1238.00,2439.00,4095.00,4095.00,,,,,,,,,,,,0,0,0,,-528,15648,3580,236,1147,795
1.571,1.27,0.00,0.00,0.00,0.00,0.00,0.00,0.00,0.00,0.00,1760.00,3503.00,1042.00,1343.00,1431.00,2304.00,4095.00,4095.00,,,,,,,,,,,,0,0,0,,-220,16004,3164,-26,793,360
1.592,1.33,-0.06,2.98,-2.45,4.86,-3.17,-1.19,0.22,0.00,0.00,2035.00,3333.00,1270.00,1194.00,1360.00,2544.00,4095.00,4095.00,,,,,,,,,,,,0,0,0,,-300,15996,3324,-163,-89,-171
1.613,1.38,-0.15,-2.76,0.58,-2.12,0.28,-1.79,2.24,0.00,0.00,1917.00,3856.00,1197.00,1435.00,1232.00,2467.00,4095.00,4095.00,,,,,,,,,,,,0,0,0,,-412,15968,3700,194,-708,-380
1.654,1.44,-0.07,-2.32,1.37,-2.19,1.86,1.43,-1.08,0.00,0.00,1822.00,3710.00,1100.00,1379.00,1391.00,2375.00,4095.00,4095.00,,,,,,,,,,,,0,0,0,,-448,15860,3484,360,-939,-313
1.696,1.49,-0.04,0.87,-1.45,1.97,-1.30,0.48,-0.60,0.00,0.00,2003.00,3527.00,1210.00,1273.00,1379.00,2434.00,4095.00,4095.00,,,,,,,,,,,,0,0,0,,-356,15888,3228,425,-948,-175
1.757,1.55,-0.08,-0.05,-0.25,0.92,-1.13,-0.81,0.74,0.00,0.00,1909.00,3542.00,1222.00,1321.00,1313.00,2471.00,4095.00,4095.00,,,,,,,,,,,,0,0,0,,-400,15860,3248,166,-964,-151
1.88,1.60,-0.10,0.23,0.02,-1.11,0.40,-0.43,0.97,0.00,0.00,1872.00,3479.00,1167.00,1374.00,1288.00,2420.00,4095.00,4095.00,,,,,,,,,,,,0,0,0,,-368,16024,3396,260,-662,-215
1.941,1.66,0.02,0.39,0.51,-0.69,1.34,2.19,-1.60,0.00,0.00,1817.00,3411.00,1101.00,1318.00,1411.00,2337.00,4095.00,4095.00,,,,,,,,,,,,0,0,0,,-460,15972,3400,64,-281,-293
1.961,1.71,-0.02,2.67,-1.75,4.44,-2.87,-0.78,0.29,0.00,0.00,1970.00,3311.00,1259.00,1204.00,1345.00,2499.00,4095.00,4095.00,,,,,,,,,,,,0,0,0,,-444,15804,3384,335,171,-118
1.983,1.77,-0.09,-1.34,0.53,-1.80,0.48,-1.34,2.09,0.00,0.00,1873.00,3650.00,1177.00,1409.00,1232.00,2434.00,4095.00,4095.00,,,,,,,,,,,,0,0,0,,-432,15812,2972,158,296,-163
2.023,1.82,0.07,-0.93,1.69,-2.40,3.27,3.09,-2.36,0.00,0.00,1746.00,3482.00,1023.00,1339.00,1446.00,2301.00,4095.00,4095.00,,,,,,,,,,,,0,0,0,,-428,15912,3040,-159,66,-143
2.086,1.88,0.03,3.44,-2.82,5.22,-3.42,-0.67,0.00,0.00,0.00,2059.00,3306.00,1279.00,1185.00,1363.00,2507.00,4095.00,4095.00,,,,,,,,,,,,0,0,0,,-520,16012,3200,-215,35,-108
2.128,1.93,-0.03,-1.82,0.38,-0.95,-0.39,-1.24,1.44,0.00,0.00,1905.00,3735.00,1215.00,1395.00,1274.00,2467.00,4095.00,4095.00,,,,,,,,,,,,0,0,0,,-456,15832,3344,-147,198,-165
2.212,1.99,0.04,-1.53,0.97,-1.82,1.58,1.31,-0.62,0.00,0.00,1835.00,3634.00,1109.00,1369.00,1360.00,2357.00,4095.00,4095.00,,,,,,,,,,,,0,0,0,,-444,15808,3272,13,175,-3
2.274,2.04,0.08,0.75,-1.09,1.41,-0.65,0.88,-0.87,0.00,0.00,1969.00,3510.00,1180.00,1279.00,1389.00,2413.00,4095.00,4095.00,,,,,,,,,,,,0,0,0,,-464,15872,3560,316,269,154
2.295,2.10,0.05,-0.87,-0.30,1.64,-1.48,-0.56,0.24,0.00,0.00,1943.00,3664.00,1229.00,1296.00,1343.00,2480.00,4095.00,4095.00,,,,,,,,,,,,0,0,0,,-184,15928,3316,791,313,186
2.355,2.15,0.01,-1.96,0.24,-1.52,0.23,-0.79,1.22,0.00,0.00,1925.00,3771.00,1187.00,1403.00,1279.00,2438.00,4095.00,4095.00,,,,,,,,,,,,0,0,0,,-336,16040,3172,1169,219,434
2.417,2.21,0.13,-0.69,0.59,-1.44,1.71,2.57,-1.93,0.00,0.00,1845.00,3552.00,1094.00,1344.00,1427.00,2323.00,4095.00,4095.00,,,,,,,,,,,,0,0,0,,-112,16176,2884,1147,103,125
2.458,2.26,0.08,3.05,-1.96,4.60,-3.31,-0.87,0.23,0.00,0.00,1979.00,3280.00,1286.00,1211.00,1351.00,2511.00,4095.00,4095.00,,,,,,,,,,,,0,0,0,,-120,16060,2612,1060,138,71
2.52,2.32,-0.00,-0.37,0.29,-1.68,0.28,-1.62,2.51,0.00,0.00,1865.00,3536.00,1187.00,1410.00,1211.00,2434.00,4095.00,4095.00,,,,,,,,,,,,0,0,0,,-80,15960,2436,740,53,-150
2.583,2.37,0.16,0.01,1.99,-2.15,2.90,3.30,-2.41,0.00,0.00,1689.00,3328.00,1039.00,1339.00,1445.00,2286.00,4095.00,4095.00,,,,,,,,,,,,0,0,0,,-32,16000,2352,180,-43,-229
2.643,2.43,0.15,4.44,-2.60,4.53,-2.72,-0.16,-0.30,0.00,0.00,1998.00,3159.00,1247.00,1195.00,1373.00,2477.00,4095.00,4095.00,,,,,,,,,,,,0,0,0,,-132,16028,2372,-173,108,-171
2.685,2.48,0.09,0.69,-0.25,0.13,-0.57,-0.94,1.25,0.00,0.00,1883.00,3440.00,1203.00,1343.00,1280.00,2450.00,4095.00,4095.00,,,,,,,,,,,,0,0,0,,-188,16228,2612,-194,330,-287
2.725,2.54,0.13,0.15,1.25,-1.54,1.77,0.87,-0.23,0.00,0.00,1753.00,3375.00,1092.00,1347.00,1342.00,2373.00,4095.00,4095.00,,,,,,,,,,,,0,0,0,,-112,16156,2420,-45,209,-176
2.786,2.59,0.19,1.12,-0.04,0.11,0.49,1.29,-0.85,0.00,0.00,1847.00,3363.00,1136.00,1306.00,1377.00,2373.00,4095.00,4095.00,,,,,,,,,,,,0,0,0,,-100,16100,2336,26,-30,-264
2.848,2.65,0.14,1.28,-0.64,2.31,-1.54,-0.77,0.31,0.00,0.00,1903.00,3396.00,1218.00,1264.00,1343.00,2496.00,4095.00,4095.00,,,,,,,,,,,,0,0,0,,-172,16072,2320,-218,-107,-345
2.908,2.70,0.08,-1.60,0.63,-2.29,0.63,-1.14,1.60,0.00,0.00,1872.00,3678.00,1178.00,1431.00,1261.00,2447.00,4095.00,4095.00,,,,,,,,,,,,0,0,0,,-272,16124,2452,-382,-42,-314
3.011,2.76,0.20,-1.22,1.26,-1.98,2.23,2.58,-2.12,0.00,0.00,1797.00,3563.00,1074.00,1354.00,1441.00,2333.00,4095.00,4095.00,,,,,,,,,,,,0,0,0,,-216,15940,2304,-415,-49,-227
3.032,2.81,0.14,1.86,-1.97,4.11,-3.01,-1.10,0.12,0.00,0.00,2023.00,3439.00,1277.00,1225.00,1365.00,2542.00,4095.00,4095.00,,,,,,,,,,,,0,0,0,,-384,15860,2676,-47,-82,55
3.072,2.87,0.03,-3.68,0.93,-2.90,0.25,-1.96,2.35,0.00,0.00,1913.00,3962.00,1216.00,1481.00,1229.00,2477.00,4095.00,4095.00,,,,,,,,,,,,0,0,0,,-196,16112,2876,109,140,-70
3.153,2.92,0.13,-1.16,1.79,-2.88,2.88,2.07,-1.61,0.00,0.00,1744.00,3504.00,1054.00,1379.00,1415.00,2349.00,4095.00,4095.00,,,,,,,,,,,,0,0,0,,-276,15980,2580,-49,123,-17
3.194,2.98,0.14,2.37,-1.64,2.16,-1.64,0.17,-0.66,0.00,0.00,1969.00,3341.00,1228.00,1275.00,1391.00,2468.00,4095.00,4095.00,,,,,,,,,,,,0,0,0,,-128,16056,2616,-327,22,-95
3.215,3.03,0.07,-0.05,0.09,0.11,-0.52,-1.13,1.19,0.00,0.00,1874.00,3510.00,1200.00,1342.00,1289.00,2473.00,4095.00,4095.00,,,,,,,,,,,,0,0,0,,-172,16124,2444,-490,-117,-149
3.276,3.09,0.05,-0.09,0.74,-0.49,0.68,-0.45,0.81,0.00,0.00,1811.00,3456.00,1137.00,1331.00,1299.00,2431.00,4095.00,4095.00,,,,,,,,,,,,0,0,0,,-224,15964,2856,-611,-145,-203
3.38,3.14,0.11,0.11,0.39,-1.04,1.04,1.38,-1.10,0.00,0.00,1839.00,3461.00,1126.00,1347.00,1394.00,2381.00,4095.00,4095.00,,,,,,,,,,,,0,0,0,,-76,16176,2872,-382,18,-253
3.401,3.20,0.06,1.44,-1.04,2.67,-2.21,-1.06,0.21,0.00,0.00,1939.00,3411.00,1255.00,1269.00,1357.00,2531.00,4095.00,4095.00,,,,,,,,,,,,0,0,0,,-212,16076,2880,-162,195,-157
3.441,3.25,-0.03,-1.50,0.49,-2.38,0.50,-1.57,2.08,0.00,0.00,1883.00,3678.00,1188.00,1441.00,1238.00,2457.00,4095.00,4095.00,,,,,,,,,,,,0,0,0,,-208,16160,2764,135,112,-142
3.503,3.31,0.10,-1.31,1.60,-2.65,2.59,2.53,-2.08,0.00,0.00,1767.00,3543.00,1066.00,1377.00,1439.00,2335.00,4095.00,4095.00,,,,,,,,,,,,0,0,0,,-60,15984,2536,255,93,-104
3.563,3.36,0.03,2.56,-2.48,3.96,-3.01,-1.25,0.09,0.00,0.00,2054.00,3392.00,1280.00,1232.00,1371.00,2559.00,4095.00,4095.00,,,,,,,,,,,,0,0,0,,-172,15948,2496,46,82,-158
3.625,3.42,-0.06,-3.06,0.67,-2.44,0.08,-1.84,1.88,0.00,0.00,1918.00,3893.00,1217.00,1461.00,1258.00,2497.00,4095.00,4095.00,,,,,,,,,,,,0,0,0,,-212,15764,2508,-235,11,-74
3.667,3.47,-0.01,-2.22,1.10,-2.65,1.60,0.97,-0.94,0.00,0.00,1846.00,3723.00,1125.00,1414.00,1392.00,2409.00,4095.00,4095.00,,,,,,,,,,,,0,0,0,,-88,15920,2620,-244,20,21
3.748,3.53,-0.01,0.33,-1.21,0.99,-1.17,-0.11,-0.46,0.00,0.00,1997.00,3581.00,1223.00,1319.00,1383.00,2482.00,4095.00,4095.00,,,,,,,,,,,,0,0,0,,40,16300,2848,-18,205,16
3.769,3.58,-0.06,-0.75,-0.32,0.13,-1.01,-0.99,0.44,0.00,0.00,1941.00,3649.00,1232.00,1359.00,1339.00,2509.00,4095.00,4095.00,,,,,,,,,,,,0,0,0,,-84,16084,2784,-67,303,-242
3.831,3.64,-0.11,-0.42,0.09,-1.72,0.31,-1.06,1.06,0.00,0.00,1887.00,3562.00,1186.00,1411.00,1296.00,2474.00,4095.00,4095.00,,,,,,,,,,,,0,0,0,,-36,16024,2692,-21,185,-304
3.894,3.69,-0.01,0.03,0.53,-1.73,1.59,1.93,-1.91,0.00,0.00,1827.00,3458.00,1107.00,1364.00,1442.00,2381.00,4095.00,4095.00,,,,,,,,,,,,0,0,0,,-192,15956,2716,-126,89,-335
3.956,3.75,-0.07,2.66,-1.93,3.26,-2.85,-1.18,0.12,0.00,0.00,1990.00,3329.00,1285.00,1261.00,1367.00,2550.00,4095.00,4095.00,,,,,,,,,,,,0,0,0,,-144,15964,2500,-94,-13,-287
3.998,3.80,-0.16,-1.43,0.53,-2.55,0.34,-1.88,2.14,0.00,0.00,1876.00,3663.00,1202.00,1457.00,1241.00,2483.00,4095.00,4095.00,,,,,,,,,,,,0,0,0,,-100,16092,2688,-18,-40,-130
4.141,3.86,-0.01,-1.17,1.80,-3.02,2.74,2.85,-2.70,0.00,0.00,1743.00,3504.00,1065.00,1392.00,1480.00,2345.00,4095.00,4095.00,,,,,,,,,,,,0,0,0,,-156,15988,2624,-257,127,-184
4.162,3.91,-0.06,3.15,-2.61,3.87,-3.26,-1.00,-0.10,0.00,0.00,2046.00,3325.00,1300.00,1245.00,1379.00,2547.00,4095.00,4095.00,,,,,,,,,,,,0,0,0,,-156,16080,2624,-251,186,-136
4.181,3.97,-0.13,-1.71,0.23,-1.75,-0.35,-1.58,1.27,0.00,0.00,1917.00,3735.00,1230.00,1438.00,1294.00,2512.00,4095.00,4095.00,,,,,,,,,,,,0,0,0,,-60,16076,2776,-118,190,-133
4.222,4.02,-0.09,-1.32,1.03,-2.48,1.51,0.72,-0.72,0.00,0.00,1823.00,3600.00,1127.00,1408.00,1382.00,2419.00,4095.00,4095.00,,,,,,,,,,,,0,0,0,,-172,16024,2488,-147,186,-158
4.264,4.08,-0.07,0.44,-0.85,0.20,-0.54,0.34,-0.82,0.00,0.00,1954.00,3530.00,1199.00,1338.00,1399.00,2462.00,4095.00,4095.00,,,,,,,,,,,,0,0,0,,-104,16036,2540,-211,53,-243
4.326,4.13,-0.13,-0.74,-0.37,0.78,-1.37,-1.27,0.41,0.00,0.00,1946.00,3653.00,1241.00,1337.00,1348.00,2539.00,4095.00,4095.00,,,,,,,,,,,,0,0,0,,-268,16016,2736,-185,-45,-225
4.387,4.19,-0.21,-2.42,0.34,-2.36,0.22,-1.72,1.47,0.00,0.00,1930.00,3829.00,1206.00,1451.00,1283.00,2512.00,4095.00,4095.00,,,,,,,,,,,,0,0,0,,-16,16136,2796,-34,60,-167
4.509,4.24,-0.10,-1.45,0.78,-2.36,1.60,1.91,-2.00,0.00,0.00,1852.00,3642.00,1119.00,1398.00,1449.00,2388.00,4095.00,4095.00,,,,,,,,,,,,0,0,0,,-224,16032,2720,-156,183,-333
4.53,4.30,-0.17,2.52,-2.08,3.33,-3.01,-1.51,0.04,0.00,0.00,2011.00,3361.00,1295.00,1263.00,1381.00,2589.00,4095.00,4095.00,,,,,,,,,,,,0,0,0,,-260,15888,2696,-251,-1,-159
4.55,4.35,-0.27,-1.70,0.64,-2.79,0.28,-2.13,2.22,0.00,0.00,1875.00,3693.00,1211.00,1473.00,1241.00,2502.00,4095.00,4095.00,,,,,,,,,,,,0,0,0,,-188,15880,2880,-168,68,-132
4.612,4.41,-0.15,-0.82,1.87,-3.19,2.93,2.21,-2.17,0.00,0.00,1726.00,3450.00,1057.00,1394.00,1455.00,2371.00,4095.00,4095.00,,,,,,,,,,,,0,0,0,,-236,15928,2808,-126,216,-67
4.653,4.46,-0.17,2.68,-2.02,2.68,-2.46,-0.62,-0.43,0.00,0.00,1999.00,3334.00,1272.00,1277.00,1394.00,2531.00,4095.00,4095.00,,,,,,,,,,,,0,0,0,,20,16120,2728,-33,251,64
4.716,4.52,-0.24,-0.73,0.09,-0.65,-0.90,-1.59,1.11,0.00,0.00,1897.00,3606.00,1242.00,1397.00,1305.00,2523.00,4095.00,4095.00,,,,,,,,,,,,0,0,0,,-28,16056,2652,-180,262,-152
4.757,4.57,-0.24,-0.88,1.02,-2.58,1.40,-0.24,-0.02,0.00,0.00,1809.00,3538.00,1136.00,1418.00,1354.00,2466.00,4095.00,4095.00,,,,,,,,,,,,0,0,0,,-12,15988,2596,-150,2,-206
4.859,4.63,-0.19,-0.28,0.10,-1.52,0.88,0.71,-1.08,0.00,0.00,1881.00,3542.00,1146.00,1379.00,1409.00,2443.00,4095.00,4095.00,,,,,,,,,,,,0,0,0,,-176,16120,2668,-43,-57,-257
4.88,4.68,-0.27,0.49,-0.75,1.84,-1.86,-1.68,0.33,0.00,0.00,1942.00,3514.00,1250.00,1299.00,1364.00,2586.00,4095.00,4095.00,,,,,,,,,,,,0,0,0,,-340,16020,2596,38,92,-213
4.942,4.74,-0.35,-2.40,0.59,-3.05,0.54,-1.95,1.67,0.00,0.00,1904.00,3801.00,1200.00,1478.00,1275.00,2522.00,4095.00,4095.00,,,,,,,,,,,,0,0,0,,-200,15984,2520,-173,227,-117
4.984,4.79,-0.24,-2.13,1.41,-2.92,2.19,1.84,-2.10,0.00,0.00,1812.00,3679.00,1095.00,1407.00,1459.00,2401.00,4095.00,4095.00,,,,,,,,,,,,0,0,0,,-192,15920,2724,-260,258,-71
5.045,4.85,-0.33,1.29,-2.05,3.53,-3.18,-1.93,-0.07,0.00,0.00,2053.00,3525.00,1302.00,1259.00,1400.00,2640.00,4095.00,4095.00,,,,,,,,,,,,0,0,0,,-8,15984,2484,-147,315,116
5.106,4.90,-0.43,-4.07,0.80,-3.37,0.19,-2.44,2.06,0.00,0.00,1940.00,4037.00,1230.00,1511.00,1259.00,2544.00,4095.00,4095.00,,,,,,,,,,,,0,0,0,,-32,16104,2644,-199,175,-160
5.208,4.96,-0.36,-1.37,1.43,-3.32,2.41,0.94,-1.35,0.00,0.00,1785.00,3568.00,1090.00,1421.00,1424.00,2439.00,4095.00,4095.00,,,,,,,,,,,,0,0,0,,-140,15924,2704,-177,5,-155
5.229,5.01,-0.36,2.06,-1.53,1.33,-1.42,-0.23,-0.71,0.00,0.00,1969.00,3373.00,1232.00,1310.00,1405.00,2511.00,4095.00,4095.00,,,,,,,,,,,,0,0,0,,-76,16080,3048,-202,28,-174
5.27,5.07,-0.42,0.09,-0.21,-0.08,-0.93,-1.57,0.83,0.00,0.00,1900.00,3519.00,1231.00,1367.00,1325.00,2541.00,4095.00,4095.00,,,,,,,,,,,,0,0,0,,-68,16044,2872,-125,191,-196
5.33,5.12,-0.45,0.06,0.13,-1.90,0.38,-1.10,0.79,0.00,0.00,1866.00,3491.00,1185.00,1418.00,1316.00,2496.00,4095.00,4095.00,,,,,,,,,,,,0,0,0,,-20,16064,2768,-55,156,-114
5.412,5.18,-0.37,-0.04,0.38,-1.74,1.44,1.22,-1.44,0.00,0.00,1844.00,3481.00,1116.00,1370.00,1424.00,2418.00,4095.00,4095.00,,,,,,,,,,,,0,0,0,,-32,16000,2780,-17,92,-173
5.432,5.23,-0.43,2.03,-1.76,2.72,-2.75,-1.66,0.12,0.00,0.00,1995.00,3398.00,1291.00,1285.00,1379.00,2599.00,4095.00,4095.00,,,,,,,,,,,,0,0,0,,-80,16044,2708,93,27,-211
5.474,5.29,-0.52,-1.88,0.60,-2.71,0.43,-2.16,1.97,0.00,0.00,1885.00,3723.00,1200.00,1463.00,1259.00,2522.00,4095.00,4095.00,,,,,,,,,,,,0,0,0,,-12,15964,2768,118,77,-206
5.577,5.34,-0.38,-1.35,1.52,-2.93,2.60,2.18,-2.25,0.00,0.00,1776.00,3557.00,1071.00,1392.00,1462.00,2379.00,4095.00,4095.00,,,,,,,,,,,,0,0,0,,-160,15972,2860,190,89,-207
5.598,5.40,-0.45,2.93,-2.82,4.18,-3.72,-1.73,0.01,0.00,0.00,2078.00,3373.00,1325.00,1245.00,1389.00,2614.00,4095.00,4095.00,,,,,,,,,,,,0,0,0,,-108,16108,2488,203,74,-270
5.639,5.45,-0.54,-2.95,0.61,-2.14,-0.23,-2.31,1.80,0.00,0.00,1921.00,3883.00,1231.00,1456.00,1274.00,2549.00,4095.00,4095.00,,,,,,,,,,,,0,0,0,,-84,16072,2384,25,-24,-288
5.7,5.51,-0.50,-2.24,1.09,-2.76,1.50,0.44,-0.79,0.00,0.00,1847.00,3726.00,1133.00,1424.00,1394.00,2450.00,4095.00,4095.00,,,,,,,,,,,,0,0,0,,-164,15928,2572,35,-57,-208
5.803,5.56,-0.48,0.07,-0.99,0.48,-0.68,-0.11,-0.84,0.00,0.00,1983.00,3597.00,1202.00,1328.00,1412.00,2508.00,4095.00,4095.00,,,,,,,,,,,,0,0,0,,-156,16088,2576,19,31,-407
5.844,5.62,-0.51,0.25,-0.59,0.97,-1.40,-1.14,0.12,0.00,0.00,1934.00,3533.00,1239.00,1328.00,1366.00,2546.00,4095.00,4095.00,,,,,,,,,,,,0,0,0,,-168,16000,2692,249,-87,-318
5.865,5.67,-0.55,-0.22,0.05,-1.64,0.15,-1.39,1.03,0.00,0.00,1884.00,3538.00,1195.00,1413.00,1306.00,2509.00,4095.00,4095.00,,,,,,,,,,,,0,0,0,,-240,16064,2584,283,-196,-261
5.967,5.73,-0.44,0.12,0.68,-1.69,1.64,1.79,-2.08,0.00,0.00,1809.00,3431.00,1103.00,1360.00,1459.00,2405.00,4095.00,4095.00,,,,,,,,,,,,0,0,0,,-160,16052,2464,160,25,-260
5.988,5.78,-0.50,2.69,-1.84,3.81,-2.97,-1.70,0.13,0.00,0.00,1979.00,3317.00,1281.00,1238.00,1379.00,2602.00,4095.00,4095.00,,,,,,,,,,,,0,0,0,,-96,16008,2196,7,6,-218
6.05,5.84,-0.58,-1.51,0.53,-2.44,0.26,-2.17,2.15,0.00,0.00,1879.00,3675.00,1205.00,1454.00,1247.00,2511.00,4095.00,4095.00,,,,,,,,,,,,0,0,0,,-184,16096,2280,-214,-95,-404
6.111,5.89,-0.45,-1.18,1.74,-2.68,2.74,2.17,-2.36,0.00,0.00,1749.00,3511.00,1058.00,1373.00,1471.00,2387.00,4095.00,4095.00,,,,,,,,,,,,0,0,0,,-264,16008,2508,-254,-12,-346
6.152,5.95,-0.46,2.95,-2.47,3.80,-2.93,-0.81,-0.55,0.00,0.00,2038.00,3339.00,1278.00,1237.00,1408.00,2558.00,4095.00,4095.00,,,,,,,,,,,,0,0,0,,-436,16068,2516,-81,79,-286
6.214,6.00,-0.52,-1.47,0.12,-0.93,-0.61,-1.60,1.16,0.00,0.00,1920.00,3710.00,1229.00,1402.00,1302.00,2521.00,4095.00,4095.00,,,,,,,,,,,,0,0,0,,-248,16140,2544,18,267,-161
6.317,6.06,-0.48,-1.87,1.20,-2.47,1.57,0.29,-0.48,0.00,0.00,1824.00,3662.00,1123.00,1405.00,1375.00,2445.00,4095.00,4095.00,,,,,,,,,,,,0,0,0,,-300,16072,2360,17,351,-123
6.338,6.11,-0.42,-0.74,-0.35,0.07,-0.77,0.64,-1.08,0.00,0.00,1943.00,3650.00,1217.00,1353.00,1411.00,2450.00,4095.00,4095.00,,,,,,,,,,,,0,0,0,,-276,16048,2196,-217,106,-232
6.379,6.17,-0.46,-0.79,-0.65,1.53,-1.71,-1.16,-0.05,0.00,0.00,1977.00,3687.00,1247.00,1310.00,1379.00,2559.00,4095.00,4095.00,,,,,,,,,,,,0,0,0,,-316,16144,2280,-366,-287,-348
6.439,6.22,-0.52,-3.75,0.84,-2.90,0.35,-1.70,1.31,0.00,0.00,1925.00,3983.00,1209.00,1477.00,1294.00,2521.00,4095.00,4095.00,,,,,,,,,,,,0,0,0,,-352,16140,2856,-312,-249,-240
6.46,6.28,-0.39,-1.98,1.03,-2.75,2.15,2.05,-2.22,0.00,0.00,1845.00,3695.00,1094.00,1399.00,1463.00,2389.00,4095.00,4095.00,,,,,,,,,,,,0,0,0,,-456,15976,2824,-240,24,-224
6.521,6.33,-0.44,2.75,-2.22,3.88,-3.07,-1.28,-0.14,0.00,0.00,2018.00,3343.00,1286.00,1238.00,1389.00,2578.00,4095.00,4095.00,,,,,,,,,,,,0,0,0,,-360,15860,2704,-146,166,99
6.581,6.39,-0.53,-2.12,0.70,-2.91,0.50,-2.23,2.47,0.00,0.00,1883.00,3748.00,1200.00,1472.00,1227.00,2496.00,4095.00,4095.00,,,,,,,,,,,,0,0,0,,-292,15968,2668,-140,352,279
6.705,6.44,-0.40,-0.85,1.95,-2.75,2.87,1.95,-1.72,0.00,0.00,1719.00,3446.00,1052.00,1372.00,1426.00,2366.00,4095.00,4095.00,,,,,,,,,,,,0,0,0,,-136,16016,2684,-178,514,241
6.727,6.50,-0.39,2.48,-1.83,2.47,-1.86,-0.12,-0.57,0.00,0.00,1986.00,3344.00,1236.00,1267.00,1392.00,2491.00,4095.00,4095.00,,,,,,,,,,,,0,0,0,,-4,16156,2448,-189,288,242
6.747,6.55,-0.44,-0.41,-0.06,0.08,-0.66,-1.44,1.19,0.00,0.00,1902.00,3575.00,1210.00,1349.00,1296.00,2503.00,4095.00,4095.00,,,,,,,,,,,,0,0,0,,-8,16036,2548,-326,72,-99
6.808,6.61,-0.46,-0.92,0.91,-1.79,1.21,-0.74,0.70,0.00,0.00,1821.00,3554.00,1131.00,1381.00,1314.00,2467.00,4095.00,4095.00,,,,,,,,,,,,0,0,0,,32,16052,2752,-285,-34,-180
6.87,6.66,-0.33,-0.18,0.18,-1.12,1.18,2.07,-2.28,0.00,0.00,1869.00,3519.00,1119.00,1346.00,1467.00,2391.00,4095.00,4095.00,,,,,,,,,,,,0,0,0,,-8,16108,2740,58,-19,-207
6.931,6.72,-0.38,0.80,-0.96,2.75,-2.12,-1.26,0.11,0.00,0.00,1953.00,3491.00,1247.00,1262.00,1370.00,2559.00,4095.00,4095.00,,,,,,,,,,,,0,0,0,,-176,16036,2512,283,1,-140
6.971,6.77,-0.45,-2.61,0.68,-2.39,0.41,-1.75,1.95,0.00,0.00,1902.00,3824.00,1194.00,1445.00,1251.00,2483.00,4095.00,4095.00,,,,,,,,,,,,0,0,0,,-156,15956,2416,192,122,-44
7.075,6.83,-0.30,-2.40,1.63,-2.52,2.62,2.53,-2.29,0.00,0.00,1799.00,3696.00,1062.00,1369.00,1456.00,2349.00,4095.00,4095.00,,,,,,,,,,,,0,0,0,,12,16032,2324,-167,241,35
7.117,6.88,-0.36,1.54,-2.37,4.05,-3.14,-1.51,0.03,0.00,0.00,2080.00,3521.00,1287.00,1232.00,1382.00,2590.00,4095.00,4095.00,,,,,,,,,,,,0,0,0,,28,15976,2364,-336,291,9
7.137,6.94,-0.44,-4.44,0.82,-2.82,0.32,-2.08,2.09,0.00,0.00,1951.00,4095.00,1209.00,1473.00,1249.00,2506.00,4095.00,4095.00,,,,,,,,,,,,0,0,0,,116,16248,2444,-462,333,-24
7.198,6.99,-0.36,-2.30,1.32,-2.60,2.03,1.26,-1.18,0.00,0.00,1827.00,3713.00,1098.00,1395.00,1403.00,2397.00,4095.00,4095.00,,,,,,,,,,,,0,0,0,,56,16208,2664,-744,282,-351
7.259,7.05,-0.33,1.87,-1.58,2.03,-1.32,0.18,-0.59,0.00,0.00,1981.00,3403.00,1210.00,1271.00,1386.00,2463.00,4095.00,4095.00,,,,,,,,,,,,0,0,0,,-40,15952,2768,-595,39,-476
7.321,7.10,-0.36,0.18,-0.26,0.79,-0.97,-0.93,0.71,0.00,0.00,1902.00,3511.00,1214.00,1322.00,1318.00,2485.00,4095.00,4095.00,,,,,,,,,,,,0,0,0,,-232,15988,3020,-463,-76,-556
7.341,7.16,-0.38,0.13,0.16,-1.43,1.01,-0.65,1.05,0.00,0.00,1861.00,3479.00,1136.00,1369.00,1287.00,2435.00,4095.00,4095.00,,,,,,,,,,,,0,0,0,,-304,15900,3048,-227,30,-330
7.424,7.21,-0.26,0.07,0.54,-0.23,0.38,2.04,-1.60,0.00,0.00,1825.00,3452.00,1150.00,1328.00,1415.00,2351.00,4095.00,4095.00,,,,,,,,,,,,0,0,0,,-224,15988,3016,-18,213,54
7.485,7.27,-0.29,1.88,-1.66,3.46,-2.61,-0.91,0.15,0.00,0.00,1989.00,3408.00,1264.00,1243.00,1358.00,2521.00,4095.00,4095.00,,,,,,,,,,,,0,0,0,,-172,15848,2912,-120,358,209
7.546,7.32,-0.35,-1.76,0.59,-1.91,0.36,-1.59,2.13,0.00,0.00,1882.00,3706.00,1187.00,1420.00,1235.00,2455.00,4095.00,4095.00,,,,,,,,,,,,0,0,0,,40,16048,2744,-94,303,197
7.566,7.38,-0.18,-1.58,1.79,-2.27,2.94,3.13,-2.46,0.00,0.00,1758.00,3564.00,1039.00,1344.00,1453.00,2304.00,4095.00,4095.00,,,,,,,,,,,,0,0,0,,120,16160,2808,62,127,-9
7.626,7.43,-0.21,2.75,-2.77,4.77,-3.44,-0.83,-0.11,0.00,0.00,2079.00,3392.00,1291.00,1207.00,1375.00,2530.00,4095.00,4095.00,,,,,,,,,,,,0,0,0,,56,16124,2668,210,-45,-257
7.687,7.49,-0.27,-2.80,0.47,-1.34,-0.14,-1.34,1.39,0.00,0.00,1930.00,3874.00,1207.00,1407.00,1280.00,2480.00,4095.00,4095.00,,,,,,,,,,,,0,0,0,,-40,16036,2472,174,52,-346
7.79,7.54,-0.20,-2.23,1.13,-1.85,1.58,1.00,-0.59,0.00,0.00,1843.00,3721.00,1110.00,1371.00,1365.00,2384.00,4095.00,4095.00,,,,,,,,,,,,0,0,0,,-132,16040,2772,-88,202,-258
7.81,7.60,-0.16,-0.51,-0.81,1.09,-0.63,0.70,-0.78,0.00,0.00,1984.00,3662.00,1186.00,1295.00,1387.00,2425.00,4095.00,4095.00,,,,,,,,,,,,0,0,0,,-132,15856,2548,-165,154,-81
7.852,7.65,-0.19,-1.88,-0.20,1.29,-1.36,-0.70,0.20,0.00,0.00,1968.00,3803.00,1229.00,1310.00,1349.00,2496.00,4095.00,4095.00,,,,,,,,,,,,0,0,0,,12,16192,2788,-380,103,-251
7.913,7.71,-0.22,-1.47,0.27,-1.41,0.25,-0.93,1.48,0.00,0.00,1904.00,3695.00,1183.00,1396.00,1264.00,2434.00,4095.00,4095.00,,,,,,,,,,,,0,0,0,,-24,16004,2800,-384,-63,-303
7.975,7.76,-0.09,-0.57,0.74,-1.35,1.78,2.48,-1.91,0.00,0.00,1826.00,3521.00,1088.00,1337.00,1427.00,2329.00,4095.00,4095.00,,,,,,,,,,,,0,0,0,,-140,15944,2820,-153,-172,-224
8.015,7.82,-0.12,2.59,-2.00,3.98,-2.74,-0.76,0.10,0.00,0.00,2000.00,3344.00,1261.00,1222.00,1358.00,2509.00,4095.00,4095.00,,,,,,,,,,,,0,0,0,,-96,15932,2844,54,75,-99
8.076,7.87,-0.20,-1.34,0.41,-1.54,0.05,-1.61,2.43,0.00,0.00,1886.00,3663.00,1199.00,1411.00,1216.00,2438.00,4095.00,4095.00,,,,,,,,,,,,0,0,0,,-112,16044,2788,112,303,84
8.18,7.93,-0.03,-1.28,1.83,-2.35,2.96,3.15,-2.31,0.00,0.00,1744.00,3517.00,1039.00,1347.00,1441.00,2293.00,4095.00,4095.00,,,,,,,,,,,,0,0,0,,28,16148,2588,-4,383,25
8.201,7.98,-0.04,2.67,-2.33,4.48,-2.95,-0.22,-0.23,0.00,0.00,2033.00,3363.00,1264.00,1205.00,1369.00,2478.00,4095.00,4095.00,,,,,,,,,,,,0,0,0,,0,15976,2612,-220,197,-65
8.241,8.04,-0.08,-1.27,-0.13,-0.16,-0.68,-0.91,1.24,0.00,0.00,1939.00,3705.00,1216.00,1362.00,1280.00,2448.00,4095.00,4095.00,,,,,,,,,,,,0,0,0,,60,16012,2716,-310,-83,-227
8.303,8.09,-0.03,-1.71,1.10,-2.62,2.99,0.93,-0.26,0.00,0.00,1829.00,3649.00,1043.00,1361.00,1343.00,2370.00,4095.00,4095.00,,,,,,,,,,,,0,0,0,,36,16020,2904,-155,-63,-231
8.345,8.15,0.04,-0.88,-0.23,-0.25,0.43,1.44,-1.07,0.00,0.00,1936.00,3659.00,1147.00,1327.00,1390.00,2373.00,4095.00,4095.00,,,,,,,,,,,,0,0,0,,-120,16060,3020,5,47,-176
8.407,8.20,0.01,-0.83,-0.55,2.02,-1.64,-0.62,0.31,0.00,0.00,1968.00,3683.00,1231.00,1282.00,1339.00,2481.00,4095.00,4095.00,,,,,,,,,,,,0,0,0,,0,15948,2860,121,196,-102
8.449,8.26,-0.04,-3.71,0.75,-2.79,0.84,-1.06,1.53,0.00,0.00,1933.00,3986.00,1175.00,1451.00,1264.00,2444.00,4095.00,4095.00,,,,,,,,,,,,0,0,0,,96,15988,2564,127,132,-80
8.532,8.31,0.08,-3.35,1.35,-2.08,2.07,2.53,-2.01,0.00,0.00,1859.00,3867.00,1085.00,1365.00,1434.00,2331.00,4095.00,4095.00,,,,,,,,,,,,0,0,0,,76,15976,2548,53,42,-88
8.553,8.37,0.04,-0.23,-1.89,3.79,-2.96,-0.81,-0.06,0.00,0.00,2093.00,3728.00,1281.00,1239.00,1371.00,2525.00,4095.00,4095.00,,,,,,,,,,,,0,0,0,,84,16212,2568,-150,153,-72
8.614,8.42,-0.05,-4.38,0.94,-2.96,0.51,-1.80,2.44,0.00,0.00,1937.00,4073.00,1200.00,1474.00,1219.00,2455.00,4095.00,4095.00,,,,,,,,,,,,0,0,0,,96,15980,2628,-419,123,-309
8.676,8.48,0.08,-2.20,2.14,-2.97,3.07,2.59,-1.84,0.00,0.00,1744.00,3617.00,1045.00,1377.00,1419.00,2315.00,4095.00,4095.00,,,,,,,,,,,,0,0,0,,60,15896,2708,-397,4,-223
8.737,8.53,0.09,1.92,-1.88,2.53,-1.85,0.27,-0.42,0.00,0.00,2011.00,3423.00,1234.00,1264.00,1371.00,2443.00,4095.00,4095.00,,,,,,,,,,,,0,0,0,,-16,16000,3028,-276,154,-181
8.798,8.59,0.04,-0.75,0.13,0.07,-0.49,-0.85,1.22,0.00,0.00,1894.00,3605.00,1199.00,1343.00,1280.00,2443.00,4095.00,4095.00,,,,,,,,,,,,0,0,0,,72,16044,2700,-161,221,-165
8.9,8.64,0.04,-1.05,0.95,-1.60,1.34,0.06,0.56,0.00,0.00,1822.00,3569.00,1119.00,1366.00,1305.00,2399.00,4095.00,4095.00,,,,,,,,,,,,0,0,0,,68,16184,2640,-20,146,-90
8.921,8.70,0.13,-0.55,0.25,-0.55,0.99,1.73,-1.13,0.00,0.00,1875.00,3565.00,1119.00,1323.00,1387.00,2350.00,4095.00,4095.00,,,,,,,,,,,,0,0,0,,116,15996,2620,-39,46,-215
8.941,8.75,0.08,0.92,-1.27,2.90,-1.99,-0.81,0.32,0.00,0.00,1982.00,3504.00,1235.00,1250.00,1343.00,2499.00,4095.00,4095.00,,,,,,,,,,,,0,0,0,,16,16004,2704,-3,-85,-196
9.003,8.81,0.02,-2.45,0.57,-2.39,0.77,-1.18,2.00,0.00,0.00,1907.00,3810.00,1171.00,1431.00,1235.00,2425.00,4095.00,4095.00,,,,,,,,,,,,0,0,0,,-4,16068,2844,-94,-2,-155
9.065,8.86,0.16,-2.02,1.30,-2.17,2.48,2.82,-1.98,0.00,0.00,1819.00,3673.00,1063.00,1355.00,1424.00,2303.00,4095.00,4095.00,,,,,,,,,,,,0,0,0,,60,15980,2700,-183,166,-166
9.127,8.92,0.09,1.55,-2.21,4.47,-3.18,-1.15,0.20,0.00,0.00,2062.00,3505.00,1280.00,1213.00,1360.00,2541.00,4095.00,4095.00,,,,,,,,,,,,0,0,0,,20,15940,2712,-244,247,-155
9.188,8.97,-0.00,-4.45,0.84,-2.39,0.11,-1.76,2.26,0.00,0.00,1950.00,4095.00,1214.00,1457.00,1230.00,2463.00,4095.00,4095.00,,,,,,,,,,,,0,0,0,,68,15980,2812,-281,220,-193
9.291,9.03,0.08,-3.86,1.85,-2.84,2.52,1.52,-1.14,0.00,0.00,1826.00,3893.00,1074.00,1390.00,1393.00,2370.00,4095.00,4095.00,,,,,,,,,,,,0,0,0,,-20,16028,2952,-138,-2,-224
9.311,9.08,0.08,-1.33,-0.97,1.46,-1.20,0.20,-0.44,0.00,0.00,2032.00,3800.00,1215.00,1296.00,1374.00,2451.00,4095.00,4095.00,,,,,,,,,,,,0,0,0,,24,15984,2724,43,-54,-99
9.352,9.14,0.02,-3.65,0.24,0.08,-1.00,-1.12,1.08,0.00,0.00,1985.00,4032.00,1232.00,1361.00,1296.00,2479.00,4095.00,4095.00,,,,,,,,,,,,0,0,0,,20,16040,2784,-55,198,-260
9.395,9.19,-0.00,-1.66,0.25,-1.55,0.53,-0.46,0.96,0.00,0.00,1913.00,3725.00,1168.00,1393.00,1289.00,2423.00,4095.00,4095.00,,,,,,,,,,,,0,0,0,,56,15972,2688,-131,144,-149
9.457,9.25,0.10,-0.71,0.45,-1.32,1.48,1.99,-1.40,0.00,0.00,1860.00,3568.00,1105.00,1346.00,1401.00,2343.00,4095.00,4095.00,,,,,,,,,,,,0,0,0,,-104,15952,2876,-156,124,-70
9.497,9.30,0.05,1.62,-1.67,3.19,-2.53,-0.83,0.33,0.00,0.00,2000.00,3445.00,1265.00,1254.00,1343.00,2501.00,4095.00,4095.00,,,,,,,,,,,,0,0,0,,-112,15968,2852,-213,352,-46
9.557,9.36,-0.02,-1.83,0.52,-2.11,0.52,-1.45,2.24,0.00,0.00,1891.00,3723.00,1181.00,1425.00,1225.00,2435.00,4095.00,4095.00,,,,,,,,,,,,0,0,0,,96,16024,2800,-99,314,12
9.638,9.41,0.13,-1.91,1.75,-2.46,2.86,2.98,-2.06,0.00,0.00,1772.00,3614.00,1047.00,1357.00,1426.00,2293.00,4095.00,4095.00,,,,,,,,,,,,0,0,0,,96,16120,2816,-107,182,-130
9.659,9.47,0.07,2.82,-2.82,4.86,-3.54,-0.92,0.10,0.00,0.00,2082.00,3388.00,1296.00,1206.00,1362.00,2525.00,4095.00,4095.00,,,,,,,,,,,,0,0,0,,60,15992,2788,20,50,-179
9.761,9.52,-0.01,-2.99,0.67,-1.89,0.17,-1.67,2.20,0.00,0.00,1916.00,3882.00,1199.00,1426.00,1232.00,2458.00,4095.00,4095.00,,,,,,,,,,,,0,0,0,,124,15988,2692,138,20,-151
9.782,9.58,0.06,-2.48,1.27,-2.63,1.92,1.39,-0.75,0.00,0.00,1837.00,3743.00,1105.00,1401.00,1367.00,2357.00,4095.00,4095.00,,,,,,,,,,,,0,0,0,,120,15932,2644,45,23,-151
9.843,9.63,0.09,-0.11,-0.93,1.26,-0.77,0.64,-0.57,0.00,0.00,1983.00,3617.00,1191.00,1291.00,1373.00,2417.00,4095.00,4095.00,,,,,,,,,,,,0,0,0,,176,16016,2596,-151,33,-132
9.885,9.69,0.05,-2.07,-0.14,0.69,-1.07,-0.69,0.45,0.00,0.00,1969.00,3826.00,1223.00,1331.00,1331.00,2479.00,4095.00,4095.00,,,,,,,,,,,,0,0,0,,96,16016,2820,-264,169,-98
10.006,9.74,0.01,-3.29,0.52,-1.78,0.30,-0.71,1.12,0.00,0.00,1942.00,3945.00,1188.00,1415.00,1284.00,2437.00,4095.00,4095.00,,,,,,,,,,,,0,0,0,,124,15968,2760,-282,255,-136
10.026,9.80,0.11,-3.65,0.99,-2.16,1.81,2.00,-1.78,0.00,0.00,1906.00,3951.00,1102.00,1379.00,1430.00,2366.00,4095.00,4095.00,,,,,,,,,,,,0,0,0,,144,15968,2852,-144,212,-189
10.067,9.85,0.04,-1.45,-1.50,3.00,-2.76,-1.23,0.26,0.00,0.00,2095.00,3871.00,1285.00,1271.00,1358.00,2545.00,4095.00,4095.00,,,,,,,,,,,,0,0,0,,160,16180,2720,12,182,-202
10.128,9.91,-0.05,-4.32,0.75,-2.76,0.44,-1.82,2.39,0.00,0.00,1954.00,4083.00,1200.00,1465.00,1223.00,2461.00,4095.00,4095.00,,,,,,,,,,,,0,0,0,,212,15988,2492,-109,18,-419
10.168,9.96,0.11,-2.32,1.85,-2.66,2.82,3.12,-2.53,0.00,0.00,1776.00,3664.00,1053.00,1369.00,1459.00,2309.00,4095.00,4095.00,,,,,,,,,,,,0,0,0,,-84,15848,2900,-76,-113,-377
10.209,10.02,0.07,2.79,-2.67,4.42,-3.26,-0.61,-0.18,0.00,0.00,2067.00,3379.00,1287.00,1218.00,1375.00,2513.00,4095.00,4095.00,,,,,,,,,,,,0,0,0,,-72,15896,2864,-53,66,-234
10.27,10.07,0.00,-2.12,0.36,-1.24,-0.31,-1.29,1.50,0.00,0.00,1918.00,3782.00,1216.00,1408.00,1271.00,2468.00,4095.00,4095.00,,,,,,,,,,,,0,0,0,,28,15904,2780,-28,192,-40
10.352,10.13,0.04,-1.64,1.14,-2.26,1.75,0.72,0.07,0.00,0.00,1822.00,3634.00,1108.00,1387.00,1324.00,2368.00,4095.00,4095.00,,,,,,,,,,,,0,0,0,,152,15956,2748,-125,277,2
10.372,10.18,0.09,0.37,-0.81,0.84,-0.47,0.95,-0.79,0.00,0.00,1953.00,3537.00,1181.00,1302.00,1381.00,2401.00,4095.00,4095.00,,,,,,,,,,,,0,0,0,,108,16164,2804,-134,211,-38
10.434,10.24,0.05,-0.73,-0.42,1.47,-1.29,-0.53,0.20,0.00,0.00,1950.00,3655.00,1220.00,1298.00,1345.00,2480.00,4095.00,4095.00,,,,,,,,,,,,0,0,0,,184,16008,2768,47,76,-136
10.537,10.29,0.01,-2.20,0.26,-1.79,0.26,-0.92,1.39,0.00,0.00,1931.00,3805.00,1191.00,1417.00,1270.00,2439.00,4095.00,4095.00,,,,,,,,,,,,0,0,0,,92,16028,2796,163,28,-203
10.558,10.35,0.11,-2.47,1.03,-1.79,1.62,2.14,-1.82,0.00,0.00,1861.00,3767.00,1106.00,1366.00,1429.00,2355.00,4095.00,4095.00,,,,,,,,,,,,0,0,0,,28,15984,2732,62,9,-263
10.599,10.40,0.05,0.01,-1.72,3.38,-2.84,-1.18,0.30,0.00,0.00,2064.00,3675.00,1282.00,1255.00,1354.00,2538.00,4095.00,4095.00,,,,,,,,,,,,0,0,0,,20,15952,2768,-62,7,-264
10.662,10.46,-0.05,-4.33,0.66,-2.74,0.24,-1.90,2.37,0.00,0.00,1964.00,4095.00,1213.00,1472.00,1226.00,2470.00,4095.00,4095.00,,,,,,,,,,,,0,0,0,,-20,16012,2600,-143,71,-271
10.766,10.51,0.08,-4.87,2.26,-3.44,2.88,2.59,-2.17,0.00,0.00,1819.00,4007.00,1065.00,1410.00,1445.00,2336.00,4095.00,4095.00,,,,,,,,,,,,0,0,0,,-32,16016,2848,-171,69,-228
10.787,10.57,0.05,-0.98,-1.92,2.76,-2.63,-0.61,-0.17,0.00,0.00,2125.00,3843.00,1282.00,1279.00,1374.00,2512.00,4095.00,4095.00,,,,,,,,,,,,0,0,0,,108,16072,2908,-111,168,-55
10.808,10.62,-0.02,-4.30,0.62,-1.15,-0.79,-1.25,1.26,0.00,0.00,1968.00,4095.00,1246.00,1421.00,1287.00,2480.00,4095.00,4095.00,,,,,,,,,,,,0,0,0,,100,16104,2716,-268,258,-228
10.87,10.68,0.02,-2.57,1.22,-2.45,1.60,0.65,-0.22,0.00,0.00,1846.00,3763.00,1121.00,1403.00,1347.00,2394.00,4095.00,4095.00,,,,,,,,,,,,0,0,0,,64,16036,2736,-177,10,-214
10.931,10.73,0.07,-0.62,-0.23,-0.62,0.22,1.12,-0.84,0.00,0.00,1927.00,3622.00,1168.00,1354.00,1381.00,2389.00,4095.00,4095.00,,,,,,,,,,,,0,0,0,,80,16008,2812,-93,-12,-245
11.011,10.79,0.03,0.13,-0.56,1.87,-1.71,-0.73,0.27,0.00,0.00,1935.00,3547.00,1239.00,1292.00,1345.00,2495.00,4095.00,4095.00,,,,,,,,,,,,0,0,0,,32,16000,2772,-99,179,-219
11.114,10.84,-0.02,-2.24,0.53,-2.61,0.53,-0.97,1.49,0.00,0.00,1904.00,3783.00,1191.00,1453.00,1264.00,2437.00,4095.00,4095.00,,,,,,,,,,,,0,0,0,,56,16152,2740,-82,126,-111
11.134,10.90,0.11,-1.91,1.18,-2.30,2.13,2.55,-2.01,0.00,0.00,1827.00,3669.00,1086.00,1375.00,1433.00,2329.00,4095.00,4095.00,,,,,,,,,,,,0,0,0,,-92,15948,2736,-77,130,-219
11.175,10.95,0.05,1.20,-1.89,3.72,-3.01,-1.03,0.20,0.00,0.00,2039.00,3523.00,1286.00,1244.00,1357.00,2529.00,4095.00,4095.00,,,,,,,,,,,,0,0,0,,-40,15976,2664,-14,27,-196
11.195,11.01,-0.05,-4.23,1.06,-3.25,0.61,-1.94,2.48,0.00,0.00,1919.00,4035.00,1200.00,1487.00,1220.00,2467.00,4095.00,4095.00,,,,,,,,,,,,0,0,0,,-140,16020,2728,14,50,-233
11.256,11.06,0.07,-3.75,2.21,-3.17,2.96,2.31,-1.82,0.00,0.00,1787.00,3839.00,1055.00,1392.00,1425.00,2340.00,4095.00,4095.00,,,,,,,,,,,,0,0,0,,-52,16064,2644,-25,93,-215
11.317,11.12,0.06,-0.39,-1.58,1.81,-1.98,-0.08,-0.52,0.00,0.00,2064.00,3721.00,1259.00,1305.00,1387.00,2483.00,4095.00,4095.00,,,,,,,,,,,,0,0,0,,136,15908,2636,-119,98,-199
11.378,11.17,-0.02,-4.01,0.54,-1.06,-0.51,-1.59,1.47,0.00,0.00,1966.00,4057.00,1225.00,1405.00,1280.00,2499.00,4095.00,4095.00,,,,,,,,,,,,0,0,0,,84,16076,2612,-125,119,-182
11.481,11.23,-0.03,-4.31,1.36,-2.75,1.35,-0.14,0.26,0.00,0.00,1891.00,4016.00,1142.00,1429.00,1331.00,2438.00,4095.00,4095.00,,,,,,,,,,,,0,0,0,,-8,16092,2620,-170,106,-184
11.502,11.28,0.02,-4.17,0.71,-1.76,0.88,0.99,-0.92,0.00,0.00,1953.00,4063.00,1151.00,1392.00,1390.00,2406.00,4095.00,4095.00,,,,,,,,,,,,0,0,0,,-44,15820,2644,-141,88,-99
11.543,11.34,-0.04,-3.53,-0.33,1.29,-1.79,-1.24,0.26,0.00,0.00,2042.00,4073.00,1258.00,1325.00,1358.00,2546.00,4095.00,4095.00,,,,,,,,,,,,0,0,0,,56,16120,2792,-246,232,-254
11.605,11.39,-0.12,-4.18,0.70,-3.18,0.59,-1.60,1.87,0.00,0.00,1955.00,4066.00,1200.00,1484.00,1253.00,2474.00,4095.00,4095.00,,,,,,,,,,,,0,0,0,,-44,15952,2612,-264,92,-288
11.665,11.45,0.02,-2.16,1.29,-2.74,2.40,2.58,-2.08,0.00,0.00,1825.00,3695.00,1079.00,1389.00,1438.00,2331.00,4095.00,4095.00,,,,,,,,,,,,0,0,0,,-192,15948,2868,-196,-7,-220
11.707,11.50,-0.04,2.18,-2.17,3.75,-3.13,-1.16,0.18,0.00,0.00,2034.00,3415.00,1293.00,1246.00,1362.00,2544.00,4095.00,4095.00,,,,,,,,,,,,0,0,0,,-60,15956,2776,-123,201,-165
11.789,11.56,-0.14,-3.09,0.87,-2.82,0.32,-2.01,2.54,0.00,0.00,1899.00,3877.00,1209.00,1473.00,1217.00,2469.00,4095.00,4095.00,,,,,,,,,,,,0,0,0,,20,15908,2840,-139,240,-66
11.848,11.61,-0.05,-2.50,2.08,-2.91,2.58,1.74,-1.44,0.00,0.00,1759.00,3666.00,1072.00,1392.00,1410.00,2368.00,4095.00,4095.00,,,,,,,,,,,,0,0,0,,208,16128,2760,-140,143,-150
11.869,11.67,-0.05,0.62,-1.34,1.61,-1.44,-0.08,-0.31,0.00,0.00,2000.00,3552.00,1227.00,1296.00,1371.00,2469.00,4095.00,4095.00,,,,,,,,,,,,0,0,0,,40,16028,2756,-74,116,-186
11.93,11.72,-0.11,-2.01,0.18,-0.22,-0.78,-1.35,1.32,0.00,0.00,1932.00,3783.00,1224.00,1369.00,1285.00,2486.00,4095.00,4095.00,,,,,,,,,,,,0,0,0,,36,15996,2756,-11,12,-240
11.991,11.78,-0.14,-2.68,0.91,-2.24,0.82,-0.71,0.96,0.00,0.00,1881.00,3811.00,1165.00,1421.00,1295.00,2447.00,4095.00,4095.00,,,,,,,,,,,,0,0,0,,0,15972,2704,-51,61,-247
12.053,11.83,-0.07,-2.21,0.40,-1.73,1.13,1.38,-1.13,0.00,0.00,1917.00,3792.00,1135.00,1381.00,1396.00,2383.00,4095.00,4095.00,,,,,,,,,,,,0,0,0,,-72,15956,2796,-130,51,-249
12.094,11.89,-0.13,-1.03,-1.05,2.16,-2.24,-1.25,0.31,0.00,0.00,2029.00,3762.00,1269.00,1296.00,1355.00,2544.00,4095.00,4095.00,,,,,,,,,,,,0,0,0,,-100,16024,2732,-147,67,-179
12.135,11.94,-0.20,-4.38,0.74,-3.01,0.40,-1.67,1.98,0.00,0.00,1958.00,4095.00,1208.00,1481.00,1247.00,2473.00,4095.00,4095.00,,,,,,,,,,,,0,0,0,,-20,15936,2808,-130,104,-202
12.196,12.00,-0.07,-4.71,1.95,-3.43,2.75,2.47,-2.01,0.00,0.00,1845.00,4016.00,1072.00,1414.00,1435.00,2336.00,4095.00,4095.00,,,,,,,,,,,,0,0,0,,-112,15996,2844,-88,75,-150
12.256,12.05,-0.14,-0.84,-2.04,3.30,-3.20,-1.56,0.14,0.00,0.00,2133.00,3834.00,1309.00,1271.00,1375.00,2587.00,4095.00,4095.00,,,,,,,,,,,,0,0,0,,-24,16092,2868,-9,141,-72
12.318,12.11,-0.24,-4.17,0.42,-3.07,0.08,-2.05,2.32,0.00,0.00,1984.00,4095.00,1231.00,1498.00,1233.00,2488.00,4095.00,4095.00,,,,,,,,,,,,0,0,0,,-100,15984,2660,-121,172,-237
12.379,12.16,-0.16,-2.76,1.43,-3.04,2.08,1.28,-1.03,0.00,0.00,1831.00,3769.00,1104.00,1418.00,1391.00,2386.00,4095.00,4095.00,,,,,,,,,,,,0,0,0,,-28,15968,2764,-113,-4,-195
12.442,12.22,-0.14,0.95,-1.43,1.51,-1.28,0.19,-0.46,0.00,0.00,1998.00,3514.00,1219.00,1296.00,1376.00,2453.00,4095.00,4095.00,,,,,,,,,,,,0,0,0,,-60,16012,2724,-137,103,-140
12.462,12.27,-0.19,-1.18,-0.04,-0.08,-0.73,-1.10,0.98,0.00,0.00,1926.00,3683.00,1218.00,1360.00,1303.00,2484.00,4095.00,4095.00,,,,,,,,,,,,0,0,0,,16,16016,2828,-167,239,-113
12.566,12.33,-0.22,-1.54,0.46,-1.91,0.48,-0.73,1.03,0.00,0.00,1887.00,3686.00,1179.00,1415.00,1291.00,2445.00,4095.00,4095.00,,,,,,,,,,,,0,0,0,,48,16072,2864,-164,167,-42
12.587,12.38,-0.12,-1.52,0.63,-1.71,1.40,1.73,-1.37,0.00,0.00,1869.00,3667.00,1118.00,1370.00,1405.00,2365.00,4095.00,4095.00,,,,,,,,,,,,0,0,0,,160,15992,2740,-185,-3,-275
12.649,12.44,-0.18,0.63,-1.60,2.77,-2.68,-1.19,0.41,0.00,0.00,2028.00,3575.00,1285.00,1280.00,1346.00,2531.00,4095.00,4095.00,,,,,,,,,,,,0,0,0,,100,16088,2912,15,-125,-414
12.689,12.49,-0.25,-3.29,0.63,-2.87,0.48,-1.73,2.30,0.00,0.00,1931.00,3933.00,1200.00,1470.00,1227.00,2458.00,4095.00,4095.00,,,,,,,,,,,,0,0,0,,-40,16020,2808,66,-5,-489
12.75,12.55,-0.11,-3.06,1.80,-3.05,2.73,2.70,-2.03,0.00,0.00,1804.00,3776.00,1066.00,1394.00,1431.00,2317.00,4095.00,4095.00,,,,,,,,,,,,0,0,0,,-32,16056,2728,53,193,-391
12.812,12.60,-0.15,1.30,-2.67,4.07,-3.71,-1.07,-0.02,0.00,0.00,2123.00,3583.00,1327.00,1250.00,1375.00,2549.00,4095.00,4095.00,,,,,,,,,,,,0,0,0,,-140,15960,2616,137,338,-242
12.874,12.66,-0.25,-4.30,0.62,-2.26,-0.13,-1.98,2.15,0.00,0.00,1968.00,4095.00,1227.00,1459.00,1243.00,2493.00,4095.00,4095.00,,,,,,,,,,,,0,0,0,,-108,16020,2316,-77,171,-232
12.936,12.71,-0.20,-4.47,1.47,-2.93,1.63,0.75,-0.49,0.00,0.00,1885.00,4029.00,1129.00,1429.00,1364.00,2401.00,4095.00,4095.00,,,,,,,,,,,,0,0,0,,-240,15880,2460,-207,-126,-368
12.957,12.77,-0.18,-2.07,-0.70,0.58,-0.91,0.18,-0.58,0.00,0.00,2029.00,3883.00,1215.00,1331.00,1385.00,2462.00,4095.00,4095.00,,,,,,,,,,,,0,0,0,,-172,16104,2812,-438,-146,-497
13.019,12.82,-0.22,-2.06,-0.23,0.20,-1.04,-1.13,0.55,0.00,0.00,1978.00,3834.00,1232.00,1356.00,1334.00,2515.00,4095.00,4095.00,,,,,,,,,,,,0,0,0,,-324,15916,3020,-521,-49,-375
13.081,12.88,-0.26,-1.74,0.21,-1.99,0.34,-0.86,1.24,0.00,0.00,1920.00,3741.00,1190.00,1425.00,1279.00,2443.00,4095.00,4095.00,,,,,,,,,,,,0,0,0,,-296,15828,3108,-274,65,-152
13.143,12.93,-0.14,-1.24,0.67,-1.82,1.58,2.11,-1.77,0.00,0.00,1856.00,3623.00,1109.00,1369.00,1426.00,2355.00,4095.00,4095.00,,,,,,,,,,,,0,0,0,,-252,15928,3072,-118,242,-17
13.205,12.99,-0.19,1.43,-1.90,3.48,-2.93,-1.10,0.34,0.00,0.00,2031.00,3491.00,1286.00,1253.00,1349.00,2527.00,4095.00,4095.00,,,,,,,,,,,,0,0,0,,-84,16092,2960,-82,189,118
13.308,13.04,-0.27,-2.93,0.76,-2.71,0.44,-1.89,2.50,0.00,0.00,1904.00,3863.00,1199.00,1462.00,1217.00,2460.00,4095.00,4095.00,,,,,,,,,,,,0,0,0,,-132,16100,2936,70,256,20
13.328,13.10,-0.11,-2.53,1.94,-3.11,2.87,2.97,-2.35,0.00,0.00,1774.00,3685.00,1059.00,1392.00,1449.00,2312.00,4095.00,4095.00,,,,,,,,,,,,0,0,0,,-108,16012,2880,117,184,40
13.348,13.15,-0.15,1.86,-2.50,3.90,-3.22,-0.84,0.10,0.00,0.00,2082.00,3488.00,1296.00,1242.00,1360.00,2517.00,4095.00,4095.00,,,,,,,,,,,,0,0,0,,-48,16036,2888,325,120,-16
13.41,13.21,-0.21,-3.54,0.62,-2.03,-0.12,-1.45,1.51,0.00,0.00,1941.00,3974.00,1221.00,1445.00,1274.00,2483.00,4095.00,4095.00,,,,,,,,,,,,0,0,0,,24,15936,2600,339,115,-32
13.472,13.26,-0.15,-3.15,1.29,-2.71,1.72,0.94,-0.50,0.00,0.00,1858.00,3842.00,1119.00,1413.00,1360.00,2384.00,4095.00,4095.00,,,,,,,,,,,,0,0,0,,-16,15972,2716,213,98,-53
13.532,13.32,-0.12,-1.14,-0.70,0.46,-0.64,0.60,-0.81,0.00,0.00,1995.00,3743.00,1200.00,1328.00,1392.00,2437.00,4095.00,4095.00,,,,,,,,,,,,0,0,0,,36,16024,2508,55,110,-111
13.593,13.37,-0.15,-2.80,-0.04,0.81,-1.41,-0.87,0.37,0.00,0.00,1984.00,3927.00,1243.00,1337.00,1341.00,2502.00,4095.00,4095.00,,,,,,,,,,,,0,0,0,,32,15976,2484,-109,128,-76
13.675,13.43,-0.21,-4.35,0.69,-2.62,0.40,-1.36,1.63,0.00,0.00,1962.00,4095.00,1200.00,1459.00,1264.00,2466.00,4095.00,4095.00,,,,,,,,,,,,0,0,0,,56,15804,2564,-79,200,57
13.696,13.48,-0.12,-4.56,1.31,-2.42,1.64,1.66,-1.67,0.00,0.00,1904.00,4061.00,1118.00,1400.00,1430.00,2391.00,4095.00,4095.00,,,,,,,,,,,,0,0,0,,4,16212,2824,-172,359,-45
13.759,13.54,-0.18,0.16,-1.76,2.97,-2.86,-1.30,0.38,0.00,0.00,2064.00,3659.00,1293.00,1276.00,1351.00,2544.00,4095.00,4095.00,,,,,,,,,,,,0,0,0,,-4,16020,2532,-231,259,-126
13.78,13.59,-0.27,-2.99,0.68,-2.71,0.20,-1.97,2.55,0.00,0.00,1915.00,3882.00,1215.00,1472.00,1216.00,2465.00,4095.00,4095.00,,,,,,,,,,,,0,0,0,,152,16028,2524,-187,33,-148
13.841,13.65,-0.10,-2.28,2.05,-2.66,2.20,3.03,-2.30,0.00,0.00,1755.00,3638.00,1089.00,1392.00,1443.00,2303.00,4095.00,4095.00,,,,,,,,,,,,0,0,0,,-80,15988,2604,-149,105,-184
13.903,13.70,-0.13,2.51,-2.47,3.48,-2.88,-0.54,-0.00,0.00,0.00,2054.00,3397.00,1282.00,1251.00,1360.00,2494.00,4095.00,4095.00,,,,,,,,,,,,0,0,0,,20,15912,2600,-172,132,-166
13.944,13.76,-0.19,-2.22,0.27,-1.19,-0.49,-1.49,1.61,0.00,0.00,1931.00,3807.00,1227.00,1412.00,1268.00,2480.00,4095.00,4095.00,,,,,,,,,,,,0,0,0,,12,16068,2804,-155,137,-248
14.044,13.81,-0.14,-2.11,1.23,-2.43,1.57,0.84,-0.25,0.00,0.00,1829.00,3693.00,1122.00,1403.00,1344.00,2377.00,4095.00,4095.00,,,,,,,,,,,,0,0,0,,28,15904,2748,-111,107,-311
14.065,13.87,-0.08,-0.30,-0.54,0.08,-0.20,1.04,-0.81,0.00,0.00,1948.00,3606.00,1180.00,1332.00,1381.00,2395.00,4095.00,4095.00,,,,,,,,,,,,0,0,0,,-44,16068,2668,-55,-6,-283
14.107,13.92,-0.11,-1.22,-0.26,1.10,-1.44,-0.69,0.42,0.00,0.00,1951.00,3711.00,1239.00,1323.00,1333.00,2481.00,4095.00,4095.00,,,,,,,,,,,,0,0,0,,-64,16064,2752,18,124,-230
14.17,13.98,-0.17,-3.12,0.66,-2.24,0.31,-1.14,1.60,0.00,0.00,1922.00,3904.00,1197.00,1440.00,1261.00,2447.00,4095.00,4095.00,,,,,,,,,,,,0,0,0,,8,15932,2664,-62,114,-182
14.231,14.03,-0.04,-3.00,1.04,-2.62,1.95,2.25,-1.81,0.00,0.00,1878.00,3845.00,1103.00,1399.00,1426.00,2345.00,4095.00,4095.00,,,,,,,,,,,,0,0,0,,-40,16104,2564,-203,97,-176
14.273,14.09,-0.10,-0.26,-1.69,2.90,-2.75,-1.22,0.31,0.00,0.00,2071.00,3712.00,1287.00,1276.00,1354.00,2541.00,4095.00,4095.00,,,,,,,,,,,,0,0,0,,-60,16024,2720,-227,105,-234
14.417,14.14,-0.20,-4.30,0.62,-3.19,0.33,-2.13,2.60,0.00,0.00,1968.00,4095.00,1217.00,1495.00,1216.00,2477.00,4095.00,4095.00,,,,,,,,,,,,0,0,0,,-144,15904,2628,-203,6,-238
14.438,14.20,-0.07,-5.16,2.32,-3.77,2.97,2.45,-2.04,0.00,0.00,1823.00,4048.00,1066.00,1425.00,1438.00,2340.00,4095.00,4095.00,,,,,,,,,,,,0,0,0,,-28,16260,2840,-189,167,-138
14.458,14.25,-0.10,0.75,-2.21,2.63,-2.47,-0.63,0.06,0.00,0.00,2092.00,3617.00,1274.00,1280.00,1358.00,2499.00,4095.00,4095.00,,,,,,,,,,,,0,0,0,,-156,16028,2720,-197,217,-211
14.5,14.31,-0.15,-2.22,0.15,-1.01,-0.74,-1.08,1.20,0.00,0.00,1943.00,3819.00,1239.00,1411.00,1287.00,2467.00,4095.00,4095.00,,,,,,,,,,,,0,0,0,,-132,15884,2832,-168,3,-88
14.562,14.36,-0.11,-1.81,1.25,-2.49,1.58,0.63,-0.04,0.00,0.00,1817.00,3648.00,1123.00,1406.00,1334.00,2384.00,4095.00,4095.00,,,,,,,,,,,,0,0,0,,-120,16000,2864,-97,93,-25
14.623,14.42,-0.04,-0.30,-0.12,-0.98,0.68,1.22,-0.84,0.00,0.00,1904.00,3565.00,1147.00,1357.00,1378.00,2379.00,4095.00,4095.00,,,,,,,,,,,,0,0,0,,-48,15952,2744,-103,258,-39
14.665,14.47,-0.08,-0.12,-0.49,1.65,-1.50,-0.72,0.43,0.00,0.00,1936.00,3575.00,1230.00,1296.00,1333.00,2483.00,4095.00,4095.00,,,,,,,,,,,,0,0,0,,60,16064,2796,-25,230,9
14.79,14.53,-0.12,-2.72,0.70,-2.77,0.63,-1.01,1.61,0.00,0.00,1903.00,3837.00,1188.00,1458.00,1257.00,2433.00,4095.00,4095.00,,,,,,,,,,,,0,0,0,,44,16136,2588,-124,161,-135
14.811,14.58,0.02,-1.97,1.26,-2.43,2.30,2.82,-2.01,0.00,0.00,1822.00,3671.00,1079.00,1376.00,1426.00,2304.00,4095.00,4095.00,,,,,,,,,,,,0,0,0,,88,16096,2772,36,47,-200
14.852,14.64,-0.02,1.21,-1.93,3.73,-3.12,-0.87,0.11,0.00,0.00,2043.00,3525.00,1293.00,1247.00,1360.00,2519.00,4095.00,4095.00,,,,,,,,,,,,0,0,0,,40,16060,2688,58,-12,-229
14.914,14.69,-0.11,-4.32,0.90,-3.08,0.34,-1.90,2.57,0.00,0.00,1939.00,4067.00,1214.00,1488.00,1213.00,2457.00,4095.00,4095.00,,,,,,,,,,,,0,0,0,,36,16092,2644,43,37,-223
14.935,14.75,0.02,-3.77,2.33,-3.52,3.08,2.54,-1.85,0.00,0.00,1776.00,3829.00,1055.00,1407.00,1421.00,2320.00,4095.00,4095.00,,,,,,,,,,,,0,0,0,,68,15884,2512,-103,93,-236
15.018,14.80,0.00,-0.62,-1.58,1.38,-1.84,-0.31,-0.29,0.00,0.00,2073.00,3755.00,1259.00,1322.00,1376.00,2491.00,4095.00,4095.00,,,,,,,,,,,,0,0,0,,-12,15996,2576,-251,176,-172
15.038,14.86,-0.07,-4.18,0.58,-1.23,-0.36,-1.47,1.47,0.00,0.00,1968.00,4080.00,1219.00,1409.00,1277.00,2487.00,4095.00,4095.00,,,,,,,,,,,,0,0,0,,36,15948,2700,-176,158,-167
15.141,14.91,-0.07,-4.91,1.67,-3.24,1.62,0.00,0.33,0.00,0.00,1879.00,4077.00,1136.00,1447.00,1323.00,2420.00,4095.00,4095.00,,,,,,,,,,,,0,0,0,,48,16332,2804,-198,259,-174
15.162,14.97,-0.00,-2.48,0.31,-1.79,1.03,1.29,-1.02,0.00,0.00,1936.00,3842.00,1142.00,1388.00,1390.00,2384.00,4095.00,4095.00,,,,,,,,,,,,0,0,0,,-128,15928,2596,-264,233,-319
15.224,15.02,-0.05,-0.02,-0.72,1.61,-1.60,-1.03,0.56,0.00,0.00,1957.00,3583.00,1238.00,1302.00,1331.00,2505.00,4095.00,4095.00,,,,,,,,,,,,0,0,0,,-100,15992,2824,-128,-37,-271
15.265,15.08,-0.12,-2.41,0.59,-2.77,0.59,-1.36,2.05,0.00,0.00,1904.00,3802.00,1191.00,1460.00,1235.00,2438.00,4095.00,4095.00,,,,,,,,,,,,0,0,0,,-172,15936,2844,-89,-22,-249
15.328,15.13,0.03,-1.40,1.32,-2.54,2.45,2.76,-1.89,0.00,0.00,1797.00,3583.00,1072.00,1376.00,1419.00,2303.00,4095.00,4095.00,,,,,,,,,,,,0,0,0,,-168,15808,2776,-122,138,-146
15.39,15.19,-0.02,1.80,-1.89,3.84,-2.84,-0.92,0.20,0.00,0.00,2017.00,3440.00,1271.00,1232.00,1355.00,2519.00,4095.00,4095.00,,,,,,,,,,,,0,0,0,,-24,16084,2912,-92,238,-56
15.451,15.24,-0.11,-3.81,1.06,-3.29,0.67,-1.82,2.57,0.00,0.00,1904.00,3969.00,1197.00,1487.00,1211.00,2449.00,4095.00,4095.00,,,,,,,,,,,,0,0,0,,-16,16044,2728,-1,181,-45
15.511,15.30,0.01,-2.76,2.02,-3.11,2.68,2.26,-1.46,0.00,0.00,1773.00,3710.00,1070.00,1399.00,1399.00,2322.00,4095.00,4095.00,,,,,,,,,,,,0,0,0,,48,16000,2668,131,104,-68
15.572,15.35,0.00,0.36,-1.46,1.68,-1.63,-0.11,-0.17,0.00,0.00,2023.00,3600.00,1238.00,1299.00,1362.00,2463.00,4095.00,4095.00,,,,,,,,,,,,0,0,0,,64,15952,2632,42,132,-57
15.632,15.41,-0.07,-2.89,0.47,-0.67,-0.55,-1.46,1.57,0.00,0.00,1933.00,3888.00,1219.00,1385.00,1270.00,2480.00,4095.00,4095.00,,,,,,,,,,,,0,0,0,,12,16048,2552,-132,142,-65
15.652,15.46,-0.09,-3.41,1.26,-2.80,1.49,-0.42,0.78,0.00,0.00,1870.00,3885.00,1135.00,1427.00,1301.00,2431.00,4095.00,4095.00,,,,,,,,,,,,0,0,0,,84,16020,2756,-269,166,5
15.713,15.52,-0.02,-3.01,0.65,-1.79,1.08,1.32,-0.95,0.00,0.00,1919.00,3888.00,1139.00,1386.00,1384.00,2377.00,4095.00,4095.00,,,,,,,,,,,,0,0,0,,144,16172,2688,-272,132,-36
15.774,15.57,-0.08,-2.11,-0.41,1.91,-2.31,-1.29,0.47,0.00,0.00,1999.00,3860.00,1279.00,1311.00,1344.00,2537.00,4095.00,4095.00,,,,,,,,,,,,0,0,0,,152,15976,2728,27,-61,-30
15.877,15.63,-0.14,-4.43,0.81,-3.18,0.63,-1.30,1.81,0.00,0.00,1952.00,4095.00,1197.00,1482.00,1250.00,2448.00,4095.00,4095.00,,,,,,,,,,,,0,0,0,,252,16140,2688,11,76,-301
15.898,15.68,-0.01,-2.72,1.34,-2.78,2.52,2.53,-1.83,0.00,0.00,1839.00,3773.00,1073.00,1387.00,1420.00,2320.00,4095.00,4095.00,,,,,,,,,,,,0,0,0,,124,15952,2488,-108,-2,-366
15.939,15.74,-0.08,1.98,-2.10,2.96,-2.76,-1.38,0.54,0.00,0.00,2033.00,3435.00,1286.00,1273.00,1341.00,2541.00,4095.00,4095.00,,,,,,,,,,,,0,0,0,,124,16084,2736,-132,66,-274
15.999,15.79,-0.17,-3.18,0.85,-2.98,0.52,-1.88,2.73,0.00,0.00,1904.00,3893.00,1200.00,1475.00,1202.00,2444.00,4095.00,4095.00,,,,,,,,,,,,0,0,0,,8,16044,2812,-197,269,-283
16.062,15.85,-0.07,-2.07,1.99,-3.20,3.02,1.74,-1.20,0.00,0.00,1754.00,3613.00,1052.00,1391.00,1392.00,2353.00,4095.00,4095.00,,,,,,,,,,,,0,0,0,,-84,16004,2624,-141,231,-174
16.125,15.90,-0.06,0.66,-1.20,1.55,-1.34,0.22,-0.23,0.00,0.00,1984.00,3533.00,1222.00,1296.00,1358.00,2435.00,4095.00,4095.00,,,,,,,,,,,,0,0,0,,20,16108,2596,-110,110,-331
16.146,15.96,-0.11,-1.88,0.25,-0.42,-0.34,-1.12,1.40,0.00,0.00,1921.00,3758.00,1200.00,1364.00,1274.00,2458.00,4095.00,4095.00,,,,,,,,,,,,0,0,0,,72,16064,2720,-45,-73,-357
16.247,16.01,-0.13,-2.35,0.97,-2.33,1.21,-0.55,1.14,0.00,0.00,1863.00,3755.00,1142.00,1411.00,1279.00,2420.00,4095.00,4095.00,,,,,,,,,,,,0,0,0,,0,16020,2724,-16,-151,-405
16.288,16.07,-0.04,-1.93,0.52,-1.51,1.23,1.69,-1.14,0.00,0.00,1895.00,3738.00,1124.00,1365.00,1389.00,2354.00,4095.00,4095.00,,,,,,,,,,,,0,0,0,,-124,16008,2724,-31,43,-318
16.309,16.12,-0.10,-0.74,-0.75,1.98,-1.89,-1.22,0.54,0.00,0.00,1986.00,3689.00,1249.00,1293.00,1337.00,2525.00,4095.00,4095.00,,,,,,,,,,,,0,0,0,,-180,15868,2484,-159,107,-191
16.39,16.18,-0.16,-4.21,0.91,-2.75,0.49,-1.37,2.06,0.00,0.00,1934.00,4048.00,1197.00,1463.00,1235.00,2439.00,4095.00,4095.00,,,,,,,,,,,,0,0,0,,-112,16024,2720,-193,202,-87
16.453,16.23,-0.02,-3.86,1.74,-3.02,2.49,2.64,-2.00,0.00,0.00,1837.00,3905.00,1079.00,1401.00,1430.00,2320.00,4095.00,4095.00,,,,,,,,,,,,0,0,0,,-36,15952,2592,-176,184,-53
16.493,16.29,-0.09,-0.26,-1.82,3.97,-3.11,-1.33,0.26,0.00,0.00,2086.00,3725.00,1287.00,1235.00,1360.00,2555.00,4095.00,4095.00,,,,,,,,,,,,0,0,0,,-32,15876,2716,-54,91,-72
16.555,16.34,-0.18,-4.30,0.62,-3.19,0.34,-2.01,2.45,0.00,0.00,1968.00,4095.00,1216.00,1494.00,1223.00,2475.00,4095.00,4095.00,,,,,,,,,,,,0,0,0,,20,16264,2732,-65,171,-99
16.616,16.40,-0.10,-3.82,2.03,-3.43,2.75,1.60,-1.15,0.00,0.00,1807.00,3868.00,1072.00,1414.00,1392.00,2363.00,4095.00,4095.00,,,,,,,,,,,,0,0,0,,-8,16036,2708,-61,130,-221
16.637,16.45,-0.08,0.66,-1.27,1.30,-1.15,0.22,-0.28,0.00,0.00,1991.00,3540.00,1215.00,1302.00,1362.00,2439.00,4095.00,4095.00,,,,,,,,,,,,0,0,0,,-104,15924,2704,2,-33,-147
16.7,16.51,-0.15,-1.27,0.18,-0.09,-0.64,-1.54,1.60,0.00,0.00,1907.00,3675.00,1212.00,1357.00,1270.00,2486.00,4095.00,4095.00,,,,,,,,,,,,0,0,0,,-44,15960,2860,-37,199,-75
16.764,16.56,-0.17,-1.35,0.88,-1.76,0.88,-0.53,1.26,0.00,0.00,1838.00,3617.00,1151.00,1392.00,1270.00,2410.00,4095.00,4095.00,,,,,,,,,,,,0,0,0,,56,16044,2556,-150,267,-19
16.805,16.62,-0.08,-1.05,0.58,-1.57,1.60,1.74,-1.03,0.00,0.00,1859.00,3605.00,1103.00,1355.00,1379.00,2342.00,4095.00,4095.00,,,,,,,,,,,,0,0,0,,124,16112,2648,-86,185,-21
16.869,16.67,-0.12,0.64,-1.19,2.67,-2.21,-1.04,0.61,0.00,0.00,1983.00,3535.00,1255.00,1269.00,1328.00,2503.00,4095.00,4095.00,,,,,,,,,,,,0,0,0,,148,16052,2636,-24,135,-102
16.992,16.73,-0.19,-2.76,0.71,-4.16,1.13,-1.53,2.49,0.00,0.00,1904.00,3843.00,1186.00,1520.00,1210.00,2426.00,4095.00,4095.00,,,,,,,,,,,,0,0,0,,224,16080,2620,61,23,-208
17.013,16.78,-0.05,-2.37,1.70,-2.81,2.86,2.74,-1.80,0.00,0.00,1792.00,3685.00,1054.00,1376.00,1412.00,2299.00,4095.00,4095.00,,,,,,,,,,,,0,0,0,,76,16084,2660,11,72,-270
17.054,16.84,-0.07,1.63,-2.30,4.20,-3.15,-0.59,-0.51,0.00,0.00,2069.00,3502.00,1284.00,1225.00,1399.00,2533.00,4095.00,4095.00,,,,,,,,,,,,0,0,0,,-52,16104,2512,-45,52,-252
17.095,16.89,-0.15,-4.42,0.94,-2.67,0.37,-1.62,2.43,0.00,0.00,1938.00,4079.00,1203.00,1463.00,1216.00,2439.00,4095.00,4095.00,,,,,,,,,,,,0,0,0,,64,15972,2740,-130,51,-251
17.157,16.95,-0.07,-3.99,1.87,-3.35,2.69,1.45,-0.86,0.00,0.00,1828.00,3911.00,1074.00,1412.00,1374.00,2359.00,4095.00,4095.00,,,,,,,,,,,,0,0,0,,-44,15988,2720,-227,103,-204
17.219,17.00,-0.06,-1.19,-0.93,1.05,-1.07,0.23,-0.27,0.00,0.00,2022.00,3774.00,1215.00,1312.00,1361.00,2437.00,4095.00,4095.00,,,,,,,,,,,,0,0,0,,8,15968,2640,-134,105,-142
17.239,17.06,-0.12,-4.17,0.55,-0.35,-0.85,-1.23,1.34,0.00,0.00,1970.00,4081.00,1232.00,1379.00,1281.00,2473.00,4095.00,4095.00,,,,,,,,,,,,0,0,0,,32,16160,2740,8,250,24
17.36,17.11,-0.14,-3.51,0.53,-2.18,0.65,-0.62,1.14,0.00,0.00,1949.00,3978.00,1174.00,1424.00,1280.00,2426.00,4095.00,4095.00,,,,,,,,,,,,0,0,0,,204,16164,2608,-164,207,-272
17.38,17.17,-0.04,-1.56,0.55,-1.75,1.56,1.87,-1.15,0.00,0.00,1879.00,3681.00,1109.00,1366.00,1385.00,2338.00,4095.00,4095.00,,,,,,,,,,,,0,0,0,,28,16008,2780,-200,-27,-266
17.422,17.22,-0.08,1.09,-1.50,2.98,-2.52,-0.85,0.53,0.00,0.00,2000.00,3501.00,1269.00,1264.00,1329.00,2489.00,4095.00,4095.00,,,,,,,,,,,,0,0,0,,24,16004,2808,-168,58,-288
17.505,17.28,-0.14,-2.01,0.68,-2.49,0.63,-1.37,2.43,0.00,0.00,1881.00,3734.00,1182.00,1442.00,1210.00,2414.00,4095.00,4095.00,,,,,,,,,,,,0,0,0,,-16,16028,2668,-51,220,-175
17.526,17.33,0.02,-1.56,1.65,-2.78,3.01,3.16,-2.09,0.00,0.00,1770.00,3573.00,1045.00,1369.00,1424.00,2279.00,4095.00,4095.00,,,,,,,,,,,,0,0,0,,-124,16104,2640,8,177,-36
17.588,17.39,-0.03,2.61,-2.49,4.50,-3.32,-0.91,0.36,0.00,0.00,2053.00,3386.00,1289.00,1216.00,1343.00,2507.00,4095.00,4095.00,,,,,,,,,,,,0,0,0,,24,16048,2556,-99,209,-130
17.649,17.44,-0.11,-3.15,0.84,-2.55,0.39,-1.77,2.62,0.00,0.00,1904.00,3889.00,1199.00,1455.00,1207.00,2441.00,4095.00,4095.00,,,,,,,,,,,,0,0,0,,112,16100,2596,-36,97,-116
17.733,17.50,-0.03,-2.34,1.51,-2.68,2.17,1.53,-0.70,0.00,0.00,1809.00,3699.00,1091.00,1394.00,1360.00,2341.00,4095.00,4095.00,,,,,,,,,,,,0,0,0,,180,15944,2608,6,76,-141
17.754,17.55,-0.01,0.33,-1.10,1.50,-1.00,0.43,-0.21,0.00,0.00,1985.00,3570.00,1201.00,1287.00,1351.00,2413.00,4095.00,4095.00,,,,,,,,,,,,0,0,0,,176,15972,2628,-108,112,-175
17.794,17.61,-0.06,-2.33,0.21,0.02,-0.83,-0.98,1.21,0.00,0.00,1941.00,3830.00,1222.00,1358.00,1284.00,2457.00,4095.00,4095.00,,,,,,,,,,,,0,0,0,,12,16108,2540,-143,105,-201
17.856,17.66,-0.08,-2.84,0.56,-1.91,0.59,-0.54,1.26,0.00,0.00,1922.00,3871.00,1172.00,1411.00,1270.00,2411.00,4095.00,4095.00,,,,,,,,,,,,0,0,0,,0,16104,2672,-190,145,-228
17.918,17.72,0.01,-3.10,0.77,-1.74,1.52,1.68,-1.00,0.00,0.00,1909.00,3888.00,1111.00,1367.00,1379.00,2347.00,4095.00,4095.00,,,,,,,,,,,,0,0,0,,-72,15900,2796,-140,177,-147
17.959,17.77,-0.04,-1.22,-1.27,2.53,-2.53,-1.00,0.50,0.00,0.00,2061.00,3813.00,1280.00,1287.00,1335.00,2506.00,4095.00,4095.00,,,,,,,,,,,,0,0,0,,16,16120,2556,-59,246,-12
18.022,17.83,-0.12,-4.43,0.80,-2.91,0.50,-1.50,2.37,0.00,0.00,1953.00,4095.00,1200.00,1472.00,1217.00,2431.00,4095.00,4095.00,,,,,,,,,,,,0,0,0,,84,16016,2676,-146,161,-162
18.104,17.88,0.04,-2.20,1.63,-3.05,3.03,3.08,-1.89,0.00,0.00,1793.00,3667.00,1049.00,1383.00,1410.00,2273.00,4095.00,4095.00,,,,,,,,,,,,0,0,0,,84,16088,2564,-58,48,-190
18.124,17.94,-0.00,2.91,-2.74,4.54,-3.48,-0.93,0.33,0.00,0.00,2070.00,3369.00,1299.00,1219.00,1345.00,2510.00,4095.00,4095.00,,,,,,,,,,,,0,0,0,,-84,16000,2784,-96,67,-231
18.206,17.99,-0.09,-2.74,0.87,-2.24,0.27,-1.69,2.65,0.00,0.00,1887.00,3824.00,1200.00,1442.00,1203.00,2431.00,4095.00,4095.00,,,,,,,,,,,,0,0,0,,-20,16000,2764,-115,129,-162
18.268,18.05,-0.01,-1.89,1.39,-2.64,2.19,1.59,-0.72,0.00,0.00,1806.00,3646.00,1089.00,1391.00,1360.00,2337.00,4095.00,4095.00,,,,,,,,,,,,0,0,0,,-36,16096,2740,-66,227,3
18.309,18.10,0.02,0.59,-0.86,1.56,-0.95,0.58,-0.30,0.00,0.00,1950.00,3511.00,1196.00,1282.00,1354.00,2405.00,4095.00,4095.00,,,,,,,,,,,,0,0,0,,28,16032,2756,-117,191,-44
18.371,18.16,-0.01,-1.45,0.05,0.22,-0.68,-0.72,1.03,0.00,0.00,1927.00,3715.00,1208.00,1342.00,1290.00,2443.00,4095.00,4095.00,,,,,,,,,,,,0,0,0,,92,16012,2700,-25,74,-79
18.455,18.21,-0.04,-1.93,0.48,-1.73,0.60,-0.51,1.33,0.00,0.00,1899.00,3742.00,1168.00,1401.00,1265.00,2404.00,4095.00,4095.00,,,,,,,,,,,,0,0,0,,92,16116,2828,67,109,-75
18.475,18.27,0.07,-1.94,0.71,-1.71,1.66,2.04,-1.18,0.00,0.00,1876.00,3721.00,1102.00,1360.00,1383.00,2324.00,4095.00,4095.00,,,,,,,,,,,,0,0,0,,88,16044,2572,24,90,-81
18.517,18.32,0.02,-0.27,-1.32,2.72,-2.58,-0.95,0.60,0.00,0.00,2031.00,3677.00,1279.00,1279.00,1326.00,2494.00,4095.00,4095.00,,,,,,,,,,,,0,0,0,,104,16088,2564,-79,95,-120
18.578,18.38,-0.06,-4.46,0.92,-3.01,0.64,-1.53,2.43,0.00,0.00,1941.00,4087.00,1193.00,1472.00,1214.00,2430.00,4095.00,4095.00,,,,,,,,,,,,0,0,0,,144,16076,2512,-214,153,-164
18.62,18.43,0.09,-4.18,2.07,-3.25,2.87,2.96,-1.95,0.00,0.00,1815.00,3920.00,1062.00,1400.00,1418.00,2288.00,4095.00,4095.00,,,,,,,,,,,,0,0,0,,80,16088,2512,-225,39,-143
18.681,18.49,0.04,0.08,-2.38,3.80,-3.34,-0.92,0.13,0.00,0.00,2137.00,3731.00,1307.00,1251.00,1360.00,2523.00,4095.00,4095.00,,,,,,,,,,,,0,0,0,,60,16000,2596,-167,117,-68
18.742,18.54,-0.05,-4.17,0.42,-2.74,0.21,-1.74,2.44,0.00,0.00,1984.00,4095.00,1215.00,1473.00,1218.00,2450.00,4095.00,4095.00,,,,,,,,,,,,0,0,0,,184,16048,2680,-243,309,-206
18.885,18.60,0.02,-2.56,1.14,-2.84,1.99,1.35,-0.49,0.00,0.00,1853.00,3769.00,1105.00,1410.00,1349.00,2345.00,4095.00,4095.00,,,,,,,,,,,,0,0,0,,168,15972,2624,-264,55,-237
18.905,18.65,0.04,0.90,-1.12,1.39,-1.11,0.45,-0.18,0.00,0.00,1967.00,3493.00,1210.00,1296.00,1349.00,2410.00,4095.00,4095.00,,,,,,,,,,,,0,0,0,,176,15996,2800,-271,29,-303
18.925,18.71,0.00,-0.87,0.02,0.24,-0.83,-0.74,1.18,0.00,0.00,1909.00,3632.00,1217.00,1346.00,1280.00,2435.00,4095.00,4095.00,,,,,,,,,,,,0,0,0,,132,16004,2728,-271,168,-261
18.946,18.76,-0.02,-1.14,0.33,-1.66,0.54,-0.50,1.34,0.00,0.00,1887.00,3641.00,1170.00,1399.00,1264.00,2402.00,4095.00,4095.00,,,,,,,,,,,,0,0,0,,40,16040,2760,-217,166,-136
19.008,18.82,0.09,-1.37,0.75,-1.54,1.56,2.20,-1.21,0.00,0.00,1852.00,3633.00,1105.00,1355.00,1381.00,2311.00,4095.00,4095.00,,,,,,,,,,,,0,0,0,,204,16056,2768,-148,195,-258
19.069,18.87,0.04,0.72,-1.44,2.77,-2.65,-0.89,0.55,0.00,0.00,2007.00,3547.00,1283.00,1279.00,1328.00,2491.00,4095.00,4095.00,,,,,,,,,,,,0,0,0,,164,16032,2696,-61,46,-283
19.132,18.93,-0.03,-3.00,0.77,-3.01,1.00,-1.38,2.45,0.00,0.00,1906.00,3873.00,1170.00,1458.00,1209.00,2414.00,4095.00,4095.00,,,,,,,,,,,,0,0,0,,100,16040,2652,84,-70,-398
19.193,18.98,0.12,-2.96,1.99,-3.24,3.14,3.00,-1.83,0.00,0.00,1783.00,3743.00,1046.00,1389.00,1408.00,2277.00,4095.00,4095.00,,,,,,,,,,,,0,0,0,,-64,16052,2744,16,-29,-452
19.234,19.04,0.06,1.57,-2.67,4.18,-3.48,-1.12,0.43,0.00,0.00,2113.00,3545.00,1308.00,1237.00,1343.00,2523.00,4095.00,4095.00,,,,,,,,,,,,0,0,0,,-76,15856,2720,-229,24,-394
19.295,19.09,-0.03,-4.41,0.77,-2.63,0.23,-1.78,2.53,0.00,0.00,1955.00,4095.00,1211.00,1466.00,1213.00,2448.00,4095.00,4095.00,,,,,,,,,,,,0,0,0,,-92,15988,2796,-355,319,-262
19.356,19.15,0.04,-3.91,1.39,-4.19,2.15,1.34,-0.63,0.00,0.00,1874.00,3949.00,1123.00,1481.00,1360.00,2355.00,4095.00,4095.00,,,,,,,,,,,,0,0,0,,-72,15996,2620,-420,441,-208
19.416,19.20,0.05,-1.57,-0.87,0.83,-0.99,0.39,-0.30,0.00,0.00,2029.00,3825.00,1215.00,1321.00,1359.00,2423.00,4095.00,4095.00,,,,,,,,,,,,0,0,0,,-100,15816,2656,-327,250,-167
19.476,19.26,0.00,-4.04,0.29,-0.45,-0.86,-0.96,1.05,0.00,0.00,1994.00,4089.00,1235.00,1385.00,1295.00,2466.00,4095.00,4095.00,,,,,,,,,,,,0,0,0,,8,16212,2744,-314,197,-291
19.559,19.31,-0.03,-2.60,0.35,-2.11,0.52,-0.71,1.41,0.00,0.00,1936.00,3856.00,1181.00,1425.00,1264.00,2418.00,4095.00,4095.00,,,,,,,,,,,,0,0,0,,-244,15884,2688,-243,-7,-363
19.58,19.37,0.07,-1.42,0.63,-1.83,1.60,2.07,-1.19,0.00,0.00,1866.00,3653.00,1108.00,1369.00,1383.00,2322.00,4095.00,4095.00,,,,,,,,,,,,0,0,0,,-228,15828,2752,-203,-25,-199
19.621,19.42,0.02,1.35,-1.58,2.95,-2.51,-0.92,0.69,0.00,0.00,2000.00,3473.00,1269.00,1265.00,1319.00,2485.00,4095.00,4095.00,,,,,,,,,,,,0,0,0,,-240,15844,3016,-220,210,-15
19.683,19.48,-0.06,-2.18,0.65,-2.59,0.68,-1.58,2.74,0.00,0.00,1890.00,3762.00,1181.00,1446.00,1195.00,2415.00,4095.00,4095.00,,,,,,,,,,,,0,0,0,,-68,15856,2860,-204,246,14
19.724,19.53,0.10,-1.93,1.73,-2.91,3.03,3.11,-1.83,0.00,0.00,1774.00,3618.00,1046.00,1375.00,1405.00,2267.00,4095.00,4095.00,,,,,,,,,,,,0,0,0,,-60,15968,3084,-77,168,-26
19.787,19.59,0.04,2.37,-2.57,4.39,-3.37,-1.03,0.45,0.00,0.00,2071.00,3426.00,1295.00,1223.00,1339.00,2512.00,4095.00,4095.00,,,,,,,,,,,,0,0,0,,108,16040,2952,76,145,-127
19.85,19.64,-0.04,-3.49,0.95,-2.56,0.38,-1.72,2.66,0.00,0.00,1904.00,3930.00,1200.00,1456.00,1203.00,2433.00,4095.00,4095.00,,,,,,,,,,,,0,0,0,,60,16024,2756,232,166,-195
19.91,19.70,0.03,-2.57,1.28,-2.90,2.05,1.46,-0.69,0.00,0.00,1840.00,3757.00,1103.00,1411.00,1361.00,2347.00,4095.00,4095.00,,,,,,,,,,,,0,0,0,,84,16048,3128,215,477,-257
19.952,19.75,0.05,-0.16,-0.92,1.23,-0.90,0.43,-0.25,0.00,0.00,1983.00,3622.00,1200.00,1297.00,1354.00,2416.00,4095.00,4095.00,,,,,,,,,,,,0,0,0,,-136,16124,2580,124,733,-330
20.014,19.81,-0.01,-2.78,0.27,-0.09,-0.74,-1.20,1.51,0.00,0.00,1950.00,3891.00,1219.00,1361.00,1268.00,2458.00,4095.00,4095.00,,,,,,,,,,,,0,0,0,,-180,16128,2636,43,755,-299
20.076,19.86,-0.04,-3.36,0.69,-2.07,0.49,-0.62,1.31,0.00,0.00,1927.00,3938.00,1182.00,1424.00,1269.00,2416.00,4095.00,4095.00,,,,,,,,,,,,0,0,0,,-228,15960,2852,-40,1194,-245
20.117,19.92,0.05,-3.32,0.79,-2.34,1.72,1.72,-1.07,0.00,0.00,1915.00,3921.00,1111.00,1392.00,1383.00,2347.00,4095.00,4095.00,,,,,,,,,,,,0,0,0,,-168,15816,2712,-221,1180,-84
20.178,19.97,-0.01,-1.81,-1.23,2.26,-2.51,-1.14,0.54,0.00,0.00,2078.00,3899.00,1285.00,1300.00,1335.00,2517.00,4095.00,4095.00,,,,,,,,,,,,0,0,0,,-188,16100,2592,-217,1158,63
20.282,20.03,-0.08,-4.38,0.74,-3.28,0.68,-1.44,2.16,0.00,0.00,1958.00,4095.00,1196.00,1486.00,1230.00,2439.00,4095.00,4095.00,,,,,,,,,,,,0,0,0,,-80,16248,2444,-301,622,-126
20.302,20.08,0.06,-2.49,1.77,-3.47,3.13,2.84,-1.79,0.00,0.00,1789.00,3696.00,1051.00,1402.00,1409.00,2289.00,4095.00,4095.00,,,,,,,,,,,,0,0,0,,-284,16120,2652,-80,-222,-191
20.343,20.14,-0.01,2.68,-2.71,4.58,-3.59,-1.32,0.41,0.00,0.00,2075.00,3397.00,1306.00,1221.00,1349.00,2544.00,4095.00,4095.00,,,,,,,,,,,,0,0,0,,-44,16016,2912,-160,51,-398
20.383,20.19,-0.09,-2.78,0.78,-2.58,0.42,-1.77,2.65,0.00,0.00,1897.00,3839.00,1198.00,1456.00,1205.00,2439.00,4095.00,4095.00,,,,,,,,,,,,0,0,0,,-120,15964,2696,-168,121,-534
20.444,20.25,-0.01,-2.21,1.65,-2.91,2.39,1.53,-0.72,0.00,0.00,1791.00,3666.00,1083.00,1399.00,1362.00,2343.00,4095.00,4095.00,,,,,,,,,,,,0,0,0,,-140,16056,2800,-190,43,-601
20.505,20.30,0.00,0.74,-1.13,1.27,-0.93,0.35,-0.22,0.00,0.00,1973.00,3515.00,1201.00,1296.00,1354.00,2422.00,4095.00,4095.00,,,,,,,,,,,,0,0,0,,-220,16112,3024,-331,592,-916
20.545,20.36,-0.04,-1.63,0.13,-0.14,-0.65,-0.98,1.31,0.00,0.00,1925.00,3733.00,1214.00,1360.00,1277.00,2450.00,4095.00,4095.00,,,,,,,,,,,,0,0,0,,-372,16088,2896,-307,802,-1048
20.649,20.41,-0.07,-1.92,0.44,-2.17,0.79,-0.48,1.13,0.00,0.00,1903.00,3745.00,1165.00,1418.00,1278.00,2414.00,4095.00,4095.00,,,,,,,,,,,,0,0,0,,-488,16112,3060,-159,1030,-1236
20.669,20.47,0.03,-2.21,0.82,-1.82,1.42,1.81,-1.01,0.00,0.00,1874.00,3750.00,1119.00,1375.00,1376.00,2335.00,4095.00,4095.00,,,,,,,,,,,,0,0,0,,-524,16136,3104,63,1570,-1851
20.729,20.52,-0.03,-0.25,-1.33,3.63,-2.83,-1.12,0.63,0.00,0.00,2031.00,3675.00,1275.00,1242.00,1328.00,2509.00,4095.00,4095.00,,,,,,,,,,,,0,0,0,,-940,16020,2600,56,1541,-1933
20.771,20.58,-0.10,-4.30,0.91,-3.05,0.54,-1.52,2.30,0.00,0.00,1937.00,4063.00,1200.00,1478.00,1222.00,2437.00,4095.00,4095.00,,,,,,,,,,,,0,0,0,,-1288,15856,2528,-12,1011,-1935
20.831,20.63,0.03,-4.14,1.94,-3.40,2.76,2.67,-1.89,0.00,0.00,1826.00,3926.00,1071.00,1412.00,1421.00,2311.00,4095.00,4095.00,,,,,,,,,,,,0,0,0,,-1620,15784,2736,53,358,-1607
20.894,20.69,-0.03,-0.06,-2.05,3.41,-3.04,-1.19,0.23,0.00,0.00,2105.00,3719.00,1295.00,1260.00,1359.00,2543.00,4095.00,4095.00,,,,,,,,,,,,0,0,0,,-1780,15692,2468,82,-261,-1073
20.934,20.74,-0.12,-4.42,0.79,-3.17,0.40,-1.90,2.60,0.00,0.00,1954.00,4095.00,1212.00,1491.00,1211.00,2455.00,4095.00,4095.00,,,,,,,,,,,,0,0,0,,-1728,15788,2452,-81,-811,-775
21.017,20.80,-0.04,-2.73,1.83,-3.47,2.68,1.51,-0.84,0.00,0.00,1791.00,3725.00,1077.00,1419.00,1371.00,2352.00,4095.00,4095.00,,,,,,,,,,,,0,0,0,,-1872,15760,3068,-51,-648,-503
21.037,20.85,-0.02,0.89,-1.15,1.33,-1.10,0.27,-0.15,0.00,0.00,1970.00,3496.00,1211.00,1299.00,1351.00,2425.00,4095.00,4095.00,,,,,,,,,,,,0,0,0,,-1896,15860,2736,11,-320,-293
21.099,20.91,-0.08,-1.19,0.17,-0.33,-0.42,-1.08,1.49,0.00,0.00,1905.00,3664.00,1203.00,1362.00,1267.00,2448.00,4095.00,4095.00,,,,,,,,,,,,0,0,0,,-1916,15752,2644,132,-231,-3
21.16,20.96,-0.10,-1.59,0.65,-1.93,0.84,-0.65,1.34,0.00,0.00,1870.00,3675.00,1157.00,1403.00,1267.00,2416.00,4095.00,4095.00,,,,,,,,,,,,0,0,0,,-1752,15900,2684,293,-241,236
21.201,21.02,-0.03,-1.51,0.65,-1.65,1.49,1.49,-0.81,0.00,0.00,1867.00,3664.00,1111.00,1363.00,1369.00,2352.00,4095.00,4095.00,,,,,,,,,,,,0,0,0,,-1724,15816,2508,491,-477,511
21.263,21.07,-0.08,0.11,-1.08,2.29,-2.17,-1.03,0.55,0.00,0.00,1991.00,3600.00,1261.00,1287.00,1332.00,2506.00,4095.00,4095.00,,,,,,,,,,,,0,0,0,,-1576,15844,2452,520,-534,762
21.325,21.13,-0.15,-3.36,0.91,-2.69,0.42,-1.58,2.49,0.00,0.00,1904.00,3914.00,1200.00,1462.00,1211.00,2431.00,4095.00,4095.00,,,,,,,,,,,,0,0,0,,-1356,15984,2408,396,-469,762
21.447,21.18,-0.01,-2.98,1.71,-3.05,2.73,2.68,-1.79,0.00,0.00,1811.00,3774.00,1066.00,1394.00,1413.00,2304.00,4095.00,4095.00,,,,,,,,,,,,0,0,0,,-1224,16136,2476,202,-65,566
21.467,21.24,-0.08,0.94,-2.04,3.84,-3.04,-1.33,0.40,0.00,0.00,2065.00,3573.00,1285.00,1239.00,1350.00,2546.00,4095.00,4095.00,,,,,,,,,,,,0,0,0,,-1040,15992,2204,-118,249,404
21.489,21.29,-0.17,-4.57,1.01,-3.30,0.53,-2.02,2.63,0.00,0.00,1936.00,4095.00,1206.00,1493.00,1212.00,2465.00,4095.00,4095.00,,,,,,,,,,,,0,0,0,,-1044,16016,2124,-366,104,466
21.552,21.35,-0.09,-4.83,2.25,-3.66,2.83,1.45,-1.03,0.00,0.00,1819.00,4003.00,1072.00,1424.00,1387.00,2370.00,4095.00,4095.00,,,,,,,,,,,,0,0,0,,-916,16064,2184,-551,-540,456
21.594,21.40,-0.09,-1.84,-0.99,0.51,-0.92,-0.08,-0.20,0.00,0.00,2053.00,3879.00,1217.00,1335.00,1363.00,2462.00,4095.00,4095.00,,,,,,,,,,,,0,0,0,,-784,16124,2764,-442,-831,457
21.654,21.46,-0.15,-4.25,0.54,-1.04,-0.53,-1.34,1.42,0.00,0.00,1974.00,4095.00,1226.00,1405.00,1278.00,2478.00,4095.00,4095.00,,,,,,,,,,,,0,0,0,,-644,16312,2932,-323,-78,143
21.757,21.51,-0.17,-2.66,0.85,-2.68,1.12,-0.46,0.96,0.00,0.00,1886.00,3814.00,1155.00,1434.00,1289.00,2423.00,4095.00,4095.00,,,,,,,,,,,,0,0,0,,-804,15904,2564,-328,492,-18
21.777,21.57,-0.08,-1.34,0.57,-1.88,1.32,1.55,-0.89,0.00,0.00,1869.00,3646.00,1126.00,1382.00,1374.00,2352.00,4095.00,4095.00,,,,,,,,,,,,0,0,0,,-716,15916,2380,-271,136,25
21.819,21.62,-0.13,0.47,-0.74,2.18,-1.90,-1.07,0.74,0.00,0.00,1941.00,3515.00,1245.00,1283.00,1319.00,2497.00,4095.00,4095.00,,,,,,,,,,,,0,0,0,,-640,16052,2636,-263,-27,-1
21.881,21.68,-0.19,-2.24,0.76,-2.65,0.64,-1.19,2.10,0.00,0.00,1881.00,3760.00,1185.00,1451.00,1228.00,2419.00,4095.00,4095.00,,,,,,,,,,,,0,0,0,,-692,15988,2608,-294,-15,-45
21.923,21.73,-0.03,-1.73,1.49,-2.78,2.66,2.84,-1.86,0.00,0.00,1791.00,3613.00,1065.00,1382.00,1414.00,2293.00,4095.00,4095.00,,,,,,,,,,,,0,0,0,,-676,16076,2944,-267,33,-153
21.985,21.79,-0.09,1.91,-2.05,3.83,-2.88,-1.18,0.53,0.00,0.00,2030.00,3440.00,1274.00,1234.00,1337.00,2522.00,4095.00,4095.00,,,,,,,,,,,,0,0,0,,-704,16068,2764,-179,292,-206
22.048,21.84,-0.19,-3.73,0.98,-3.29,0.62,-2.01,2.94,0.00,0.00,1910.00,3965.00,1200.00,1489.00,1191.00,2443.00,4095.00,4095.00,,,,,,,,,,,,0,0,0,,-736,15928,2556,-69,112,-188
22.111,21.90,-0.08,-3.02,2.12,-3.22,2.77,1.96,-1.23,0.00,0.00,1772.00,3738.00,1067.00,1402.00,1389.00,2335.00,4095.00,4095.00,,,,,,,,,,,,0,0,0,,-824,16000,2672,43,-10,-220
22.152,21.95,-0.07,-0.14,-1.15,1.32,-1.40,0.17,-0.20,0.00,0.00,2007.00,3641.00,1231.00,1310.00,1357.00,2438.00,4095.00,4095.00,,,,,,,,,,,,0,0,0,,-752,16060,2752,-60,145,-274
22.193,22.01,-0.13,-3.13,0.52,-0.95,-0.32,-1.38,1.68,0.00,0.00,1936.00,3919.00,1210.00,1392.00,1261.00,2465.00,4095.00,4095.00,,,,,,,,,,,,0,0,0,,-828,15960,2532,-130,75,-229
22.256,22.06,-0.15,-3.57,1.30,-2.75,1.44,-0.42,1.01,0.00,0.00,1871.00,3905.00,1137.00,1426.00,1285.00,2416.00,4095.00,4095.00,,,,,,,,,,,,0,0,0,,-800,15908,2704,-241,6,-204
22.318,22.12,-0.07,-3.23,0.77,-1.97,1.32,1.35,-0.76,0.00,0.00,1914.00,3909.00,1128.00,1387.00,1369.00,2362.00,4095.00,4095.00,,,,,,,,,,,,0,0,0,,-808,15916,2824,-98,48,-113
22.359,22.17,-0.13,-2.33,-0.35,1.27,-1.56,-1.19,0.64,0.00,0.00,2001.00,3888.00,1243.00,1318.00,1329.00,2515.00,4095.00,4095.00,,,,,,,,,,,,0,0,0,,-788,16136,2832,-18,192,-14
22.42,22.23,-0.19,-3.76,0.74,-3.42,0.96,-1.30,2.08,0.00,0.00,1936.00,3995.00,1181.00,1483.00,1232.00,2431.00,4095.00,4095.00,,,,,,,,,,,,0,0,0,,-804,16044,2816,-22,300,-137
22.501,22.28,-0.04,-1.83,1.35,-2.96,2.70,2.85,-1.90,0.00,0.00,1808.00,3641.00,1066.00,1390.00,1417.00,2295.00,4095.00,4095.00,,,,,,,,,,,,0,0,0,,-868,16008,2648,-70,69,-193
22.522,22.34,-0.08,2.27,-1.97,3.81,-2.73,-1.02,0.53,0.00,0.00,2009.00,3385.00,1264.00,1230.00,1333.00,2506.00,4095.00,4095.00,,,,,,,,,,,,0,0,0,,-896,15816,2700,-58,-33,-160
22.604,22.39,-0.17,-2.88,0.94,-3.19,0.77,-1.76,2.94,0.00,0.00,1884.00,3837.00,1188.00,1477.00,1186.00,2419.00,4095.00,4095.00,,,,,,,,,,,,0,0,0,,-856,15736,2760,-58,89,-80
22.645,22.45,-0.04,-2.06,2.11,-3.42,3.33,2.50,-1.39,0.00,0.00,1742.00,3600.00,1039.00,1392.00,1387.00,2295.00,4095.00,4095.00,,,,,,,,,,,,0,0,0,,-824,16108,2692,118,39,145
22.685,22.50,-0.02,1.09,-1.54,1.81,-1.58,0.21,-0.12,0.00,0.00,2005.00,3505.00,1232.00,1291.00,1350.00,2429.00,4095.00,4095.00,,,,,,,,,,,,0,0,0,,-812,16104,2656,66,-45,264
22.748,22.56,-0.08,-1.85,0.33,-0.76,-0.14,-1.07,1.70,0.00,0.00,1911.00,3745.00,1194.00,1375.00,1252.00,2433.00,4095.00,4095.00,,,,,,,,,,,,0,0,0,,-508,16012,2728,92,23,312
22.891,22.61,-0.06,-2.32,1.36,-2.62,1.77,0.20,0.64,0.00,0.00,1823.00,3711.00,1114.00,1406.00,1296.00,2381.00,4095.00,4095.00,,,,,,,,,,,,0,0,0,,-476,16040,2728,97,292,177
22.911,22.67,0.02,-1.59,0.44,-1.40,1.21,1.48,-0.77,0.00,0.00,1891.00,3696.00,1123.00,1360.00,1367.00,2351.00,4095.00,4095.00,,,,,,,,,,,,0,0,0,,-500,15912,2624,36,520,57
22.932,22.72,-0.02,-1.09,-0.41,1.62,-1.47,-0.74,0.51,0.00,0.00,1962.00,3707.00,1229.00,1297.00,1328.00,2480.00,4095.00,4095.00,,,,,,,,,,,,0,0,0,,-372,16044,2328,-75,274,22
22.973,22.78,-0.09,-4.15,1.05,-3.18,0.86,-1.30,2.17,0.00,0.00,1917.00,4023.00,1182.00,1473.00,1226.00,2425.00,4095.00,4095.00,,,,,,,,,,,,0,0,0,,-436,16048,2456,-155,2,-99
23.034,22.83,0.04,-3.62,1.63,-3.05,2.78,2.52,-1.71,0.00,0.00,1840.00,3879.00,1063.00,1392.00,1411.00,2313.00,4095.00,4095.00,,,,,,,,,,,,0,0,0,,-488,15964,2656,-109,-53,-98
23.096,22.89,-0.01,-0.40,-1.68,3.06,-2.63,-0.98,0.38,0.00,0.00,2076.00,3733.00,1275.00,1264.00,1343.00,2512.00,4095.00,4095.00,,,,,,,,,,,,0,0,0,,-560,16020,2764,19,140,175
23.138,22.94,-0.11,-4.36,0.70,-3.65,0.64,-1.97,2.82,0.00,0.00,1961.00,4095.00,1207.00,1510.00,1198.00,2447.00,4095.00,4095.00,,,,,,,,,,,,0,0,0,,-464,15952,2628,-135,349,69
23.219,23.00,0.03,-2.75,1.99,-3.20,2.97,2.67,-1.74,0.00,0.00,1776.00,3712.00,1055.00,1393.00,1409.00,2301.00,4095.00,4095.00,,,,,,,,,,,,0,0,0,,-392,15928,2508,-44,301,103
23.239,23.05,0.05,1.47,-1.78,2.11,-1.71,0.41,-0.71,0.00,0.00,2017.00,3475.00,1234.00,1280.00,1389.00,2448.00,4095.00,4095.00,,,,,,,,,,,,0,0,0,,-284,15956,2768,-3,137,33
23.32,23.11,-0.00,-1.57,0.35,-0.74,-0.39,-1.10,1.74,0.00,0.00,1900.00,3702.00,1210.00,1383.00,1250.00,2433.00,4095.00,4095.00,,,,,,,,,,,,0,0,0,,-228,16028,2696,189,107,15
23.381,23.16,0.04,-1.56,1.37,-2.58,1.96,0.85,0.05,0.00,0.00,1797.00,3600.00,1102.00,1397.00,1322.00,2357.00,4095.00,4095.00,,,,,,,,,,,,0,0,0,,-284,16056,2436,257,8,46
23.402,23.22,0.12,-0.64,0.00,-0.87,0.82,1.60,-1.00,0.00,0.00,1903.00,3601.00,1136.00,1346.00,1381.00,2354.00,4095.00,4095.00,,,,,,,,,,,,0,0,0,,-208,16152,2548,215,64,-87
23.465,23.27,0.08,-0.19,-0.46,1.55,-1.28,-0.61,0.60,0.00,0.00,1936.00,3583.00,1218.00,1294.00,1318.00,2461.00,4095.00,4095.00,,,,,,,,,,,,0,0,0,,-232,16224,2548,168,147,-88
23.526,23.33,0.02,-2.87,0.99,-2.81,0.85,-1.11,2.03,0.00,0.00,1879.00,3831.00,1175.00,1452.00,1231.00,2416.00,4095.00,4095.00,,,,,,,,,,,,0,0,0,,-244,16064,2364,223,144,-174
23.608,23.38,0.14,-2.20,1.28,-2.47,2.33,2.46,-1.65,0.00,0.00,1827.00,3702.00,1078.00,1377.00,1408.00,2315.00,4095.00,4095.00,,,,,,,,,,,,0,0,0,,-280,16116,2380,265,38,-213
23.629,23.44,0.08,0.74,-1.69,3.53,-2.70,-1.02,0.59,0.00,0.00,2034.00,3568.00,1269.00,1243.00,1329.00,2502.00,4095.00,4095.00,,,,,,,,,,,,0,0,0,,-384,16048,2268,152,-30,-237
23.689,23.49,-0.01,-4.32,1.01,-3.02,0.58,-1.77,2.72,0.00,0.00,1927.00,4055.00,1197.00,1475.00,1200.00,2434.00,4095.00,4095.00,,,,,,,,,,,,0,0,0,,-364,16084,2212,30,21,-200
23.749,23.55,0.14,-4.17,2.47,-3.52,3.30,2.88,-1.99,0.00,0.00,1776.00,3877.00,1042.00,1398.00,1423.00,2298.00,4095.00,4095.00,,,,,,,,,,,,0,0,0,,-324,16172,2092,-186,36,-177
23.789,23.60,0.11,-0.01,-1.97,2.85,-2.42,-0.41,-0.03,0.00,0.00,2093.00,3703.00,1265.00,1267.00,1359.00,2483.00,4095.00,4095.00,,,,,,,,,,,,0,0,0,,-340,16012,2224,-223,45,-111
23.85,23.66,0.04,-4.17,0.42,-1.39,-0.52,-1.34,1.62,0.00,0.00,1984.00,4095.00,1233.00,1424.00,1264.00,2465.00,4095.00,4095.00,,,,,,,,,,,,0,0,0,,-280,16316,2180,-372,-37,-304
23.996,23.71,0.08,-2.63,1.30,-2.74,1.93,0.96,-0.12,0.00,0.00,1840.00,3764.00,1107.00,1407.00,1332.00,2358.00,4095.00,4095.00,,,,,,,,,,,,0,0,0,,-320,16120,2208,-413,-105,-365
24.016,23.77,0.13,0.17,-0.54,-0.08,0.15,1.14,-0.52,0.00,0.00,1931.00,3539.00,1161.00,1328.00,1357.00,2367.00,4095.00,4095.00,,,,,,,,,,,,0,0,0,,-344,16040,2420,-282,-84,-322
24.036,23.82,0.10,0.09,-0.42,1.37,-1.22,-0.50,0.61,0.00,0.00,1921.00,3538.00,1218.00,1301.00,1315.00,2450.00,4095.00,4095.00,,,,,,,,,,,,0,0,0,,-436,16096,2572,-186,53,-211
24.078,23.88,0.06,-1.23,0.45,-2.08,0.64,-0.77,1.56,0.00,0.00,1878.00,3643.00,1173.00,1419.00,1255.00,2414.00,4095.00,4095.00,,,,,,,,,,,,0,0,0,,-344,16040,2460,-155,159,-93
24.139,23.93,0.18,-1.18,0.99,-2.20,2.15,2.45,-1.58,0.00,0.00,1822.00,3583.00,1083.00,1369.00,1403.00,2312.00,4095.00,4095.00,,,,,,,,,,,,0,0,0,,-296,16188,2472,-170,199,-203
24.2,23.99,0.12,1.45,-1.68,3.20,-2.52,-0.96,0.48,0.00,0.00,2007.00,3469.00,1264.00,1253.00,1335.00,2503.00,4095.00,4095.00,,,,,,,,,,,,0,0,0,,-264,16064,2428,-229,140,-177
24.263,24.04,0.03,-2.88,0.73,-2.77,0.66,-1.81,2.89,0.00,0.00,1906.00,3859.00,1186.00,1457.00,1190.00,2427.00,4095.00,4095.00,,,,,,,,,,,,0,0,0,,-448,16164,2416,-284,98,-221
24.325,24.10,0.18,-2.85,2.30,-3.56,3.66,3.15,-2.21,0.00,0.00,1750.00,3696.00,1023.00,1387.00,1433.00,2287.00,4095.00,4095.00,,,,,,,,,,,,0,0,0,,-252,16052,2508,-285,86,-243
24.346,24.15,0.15,1.61,-2.31,3.50,-2.72,-0.50,0.08,0.00,0.00,2070.00,3505.00,1271.00,1245.00,1353.00,2485.00,4095.00,4095.00,,,,,,,,,,,,0,0,0,,-368,16096,2508,-267,80,-247
24.388,24.21,0.07,-3.59,0.58,-1.98,-0.02,-1.30,1.71,0.00,0.00,1946.00,3985.00,1213.00,1438.00,1257.00,2455.00,4095.00,4095.00,,,,,,,,,,,,0,0,0,,-432,16024,2712,-175,100,-191
24.45,24.26,0.12,-3.28,1.36,-2.87,1.90,0.98,-0.27,0.00,0.00,1856.00,3856.00,1111.00,1415.00,1342.00,2365.00,4095.00,4095.00,,,,,,,,,,,,0,0,0,,-376,16036,2628,-64,126,-196
24.511,24.32,0.14,-1.33,-0.58,0.55,-0.41,0.58,-0.47,0.00,0.00,1989.00,3760.00,1183.00,1315.00,1367.00,2416.00,4095.00,4095.00,,,,,,,,,,,,0,0,0,,-468,16028,2396,-10,60,-154
24.573,24.37,0.10,-2.95,0.00,0.29,-1.01,-0.75,0.52,0.00,0.00,1985.00,3946.00,1228.00,1350.00,1327.00,2480.00,4095.00,4095.00,,,,,,,,,,,,0,0,0,,-388,16092,2504,-11,138,-79
24.614,24.43,0.02,-3.24,0.49,-2.38,0.55,-1.41,2.33,0.00,0.00,1943.00,3939.00,1185.00,1439.00,1218.00,2425.00,4095.00,4095.00,,,,,,,,,,,,0,0,0,,-356,15920,2348,-207,208,-335
24.698,24.48,0.14,-1.69,0.91,-2.33,2.04,2.31,-1.60,0.00,0.00,1847.00,3664.00,1092.00,1380.00,1408.00,2326.00,4095.00,4095.00,,,,,,,,,,,,0,0,0,,-448,15952,2320,-216,-38,-245
24.718,24.54,0.09,1.31,-1.52,2.89,-2.42,-0.83,0.45,0.00,0.00,1995.00,3473.00,1264.00,1265.00,1334.00,2492.00,4095.00,4095.00,,,,,,,,,,,,0,0,0,,-460,15944,2728,-216,35,-204
24.78,24.59,0.00,-2.17,0.79,-2.79,0.75,-1.66,2.75,0.00,0.00,1875.00,3746.00,1181.00,1455.00,1196.00,2422.00,4095.00,4095.00,,,,,,,,,,,,0,0,0,,-420,15932,2624,-172,236,-132
24.841,24.65,0.16,-1.78,2.04,-3.11,3.22,3.13,-1.94,0.00,0.00,1740.00,3567.00,1039.00,1379.00,1413.00,2272.00,4095.00,4095.00,,,,,,,,,,,,0,0,0,,-324,16088,2488,-112,184,27
24.902,24.70,0.10,2.75,-2.65,4.30,-3.29,-0.97,0.50,0.00,0.00,2065.00,3381.00,1292.00,1225.00,1334.00,2503.00,4095.00,4095.00,,,,,,,,,,,,0,0,0,,-264,16056,2560,29,170,-183
24.963,24.76,0.01,-2.91,0.76,-2.06,0.21,-1.77,2.65,0.00,0.00,1904.00,3861.00,1200.00,1434.00,1205.00,2439.00,4095.00,4095.00,,,,,,,,,,,,0,0,0,,-360,16000,2380,135,31,-173
25.066,24.81,0.07,-2.21,1.36,-2.86,2.05,1.30,-0.43,0.00,0.00,1820.00,3696.00,1102.00,1409.00,1346.00,2346.00,4095.00,4095.00,,,,,,,,,,,,0,0,0,,-480,16044,2352,129,-12,-179
25.087,24.87,0.08,0.85,-1.22,1.16,-0.80,0.31,-0.08,0.00,0.00,1979.00,3509.00,1195.00,1297.00,1345.00,2417.00,4095.00,4095.00,,,,,,,,,,,,0,0,0,,-448,16072,2396,14,161,-147
25.128,24.92,0.03,-2.30,0.11,-0.28,-0.71,-1.01,1.13,0.00,0.00,1950.00,3835.00,1221.00,1370.00,1290.00,2465.00,4095.00,4095.00,,,,,,,,,,,,0,0,0,,-424,15972,2416,-57,196,-93
25.189,24.98,-0.00,-2.87,0.59,-2.20,0.55,-0.66,1.36,0.00,0.00,1920.00,3872.00,1181.00,1429.00,1266.00,2416.00,4095.00,4095.00,,,,,,,,,,,,0,0,0,,-392,16164,2540,-68,208,-98
25.272,25.03,0.08,-3.05,0.86,-2.16,1.77,1.68,-1.06,0.00,0.00,1899.00,3873.00,1105.00,1381.00,1383.00,2350.00,4095.00,4095.00,,,,,,,,,,,,0,0,0,,-344,16076,2428,-72,199,-11
25.292,25.09,0.02,-1.23,-1.32,2.29,-2.49,-1.14,0.61,0.00,0.00,2066.00,3819.00,1283.00,1298.00,1330.00,2512.00,4095.00,4095.00,,,,,,,,,,,,0,0,0,,-412,15912,2576,30,209,62
25.334,25.14,-0.06,-4.35,0.69,-3.27,0.61,-1.57,2.25,0.00,0.00,1962.00,4095.00,1200.00,1488.00,1227.00,2446.00,4095.00,4095.00,,,,,,,,,,,,0,0,0,,-236,16316,2492,114,330,24
25.437,25.20,0.09,-3.09,1.60,-3.33,2.79,2.92,-1.95,0.00,0.00,1825.00,3802.00,1068.00,1407.00,1419.00,2292.00,4095.00,4095.00,,,,,,,,,,,,0,0,0,,-196,16000,2264,79,212,-140
25.459,25.25,0.02,1.99,-2.15,3.93,-2.97,-1.25,0.52,0.00,0.00,2038.00,3438.00,1278.00,1232.00,1339.00,2529.00,4095.00,4095.00,,,,,,,,,,,,0,0,0,,-300,16168,2160,62,47,-166
25.519,25.31,-0.07,-2.92,0.82,-2.76,0.40,-1.80,2.72,0.00,0.00,1898.00,3856.00,1203.00,1467.00,1201.00,2437.00,4095.00,4095.00,,,,,,,,,,,,0,0,0,,-228,16084,2484,-1,98,-183
25.56,25.36,0.01,-1.94,1.92,-3.11,2.82,1.59,-0.84,0.00,0.00,1757.00,3602.00,1062.00,1394.00,1369.00,2345.00,4095.00,4095.00,,,,,,,,,,,,0,0,0,,-216,15888,2244,30,173,-133
25.601,25.42,0.02,0.90,-1.14,1.36,-0.97,0.09,-0.08,0.00,0.00,1968.00,3493.00,1202.00,1293.00,1350.00,2438.00,4095.00,4095.00,,,,,,,,,,,,0,0,0,,-220,16164,2140,-55,169,-178
25.662,25.47,-0.04,-1.83,0.38,-0.68,-0.21,-1.19,1.64,0.00,0.00,1906.00,3738.00,1197.00,1373.00,1259.00,2449.00,4095.00,4095.00,,,,,,,,,,,,0,0,0,,-136,16076,2180,-198,50,-164
25.723,25.53,-0.06,-1.96,1.08,-2.55,1.48,-0.45,1.13,0.00,0.00,1839.00,3687.00,1130.00,1413.00,1277.00,2411.00,4095.00,4095.00,,,,,,,,,,,,0,0,0,,-216,16204,2356,-151,25,-204
25.805,25.58,0.02,-1.51,0.53,-1.62,1.45,1.57,-0.85,0.00,0.00,1879.00,3675.00,1113.00,1363.00,1370.00,2347.00,4095.00,4095.00,,,,,,,,,,,,0,0,0,,-256,16152,2260,-192,6,-259
25.826,25.64,-0.04,-0.63,-0.67,1.75,-1.63,-1.19,0.80,0.00,0.00,1973.00,3665.00,1237.00,1296.00,1318.00,2505.00,4095.00,4095.00,,,,,,,,,,,,0,0,0,,-300,16084,2252,-227,-22,-328
25.887,25.69,-0.11,-3.84,0.98,-3.17,0.84,-1.46,2.27,0.00,0.00,1913.00,3981.00,1183.00,1473.00,1223.00,2434.00,4095.00,4095.00,,,,,,,,,,,,0,0,0,,-380,16128,2472,-173,-58,-244
25.948,25.75,0.02,-3.35,1.72,-2.96,2.65,2.48,-1.70,0.00,0.00,1822.00,3829.00,1069.00,1392.00,1411.00,2316.00,4095.00,4095.00,,,,,,,,,,,,0,0,0,,-304,16032,2332,-79,60,-205
26.01,25.80,-0.04,-0.13,-1.68,3.11,-2.71,-1.06,0.40,0.00,0.00,2065.00,3692.00,1279.00,1264.00,1343.00,2518.00,4095.00,4095.00,,,,,,,,,,,,0,0,0,,-412,15924,2476,2,81,-110
26.051,25.86,-0.14,-4.52,0.93,-3.94,0.84,-2.00,2.85,0.00,0.00,1942.00,4095.00,1200.00,1519.00,1197.00,2448.00,4095.00,4095.00,,,,,,,,,,,,0,0,0,,-200,16168,2344,-29,151,-120
26.176,25.91,-0.01,-3.43,2.05,-3.82,3.30,2.46,-1.66,0.00,0.00,1792.00,3807.00,1048.00,1415.00,1409.00,2316.00,4095.00,4095.00,,,,,,,,,,,,0,0,0,,-296,16100,2480,-226,194,-223
26.196,25.97,-0.01,1.31,-1.83,2.07,-1.87,-0.13,-0.13,0.00,0.00,2029.00,3503.00,1246.00,1288.00,1359.00,2462.00,4095.00,4095.00,,,,,,,,,,,,0,0,0,,-348,16080,2256,-172,-61,-207
26.237,26.02,-0.06,-1.52,0.17,-0.76,-0.49,-1.01,1.60,0.00,0.00,1916.00,3712.00,1217.00,1388.00,1258.00,2434.00,4095.00,4095.00,,,,,,,,,,,,0,0,0,,-372,16104,2404,-92,33,-168
26.278,26.08,-0.02,-1.50,1.31,-2.66,1.97,0.81,0.17,0.00,0.00,1801.00,3598.00,1103.00,1401.00,1315.00,2354.00,4095.00,4095.00,,,,,,,,,,,,0,0,0,,-364,15984,2308,-87,248,-104
26.34,26.13,0.05,-0.34,-0.11,-0.59,0.52,1.44,-0.76,0.00,0.00,1904.00,3569.00,1149.00,1342.00,1367.00,2354.00,4095.00,4095.00,,,,,,,,,,,,0,0,0,,-364,16164,2304,-25,199,-75
26.403,26.19,0.02,-0.22,-0.43,1.45,-1.17,-0.58,0.65,0.00,0.00,1933.00,3583.00,1213.00,1295.00,1314.00,2455.00,4095.00,4095.00,,,,,,,,,,,,0,0,0,,-236,16028,2272,-34,117,-101
26.444,26.24,-0.03,-2.23,0.59,-2.47,0.85,-1.03,1.81,0.00,0.00,1898.00,3776.00,1168.00,1433.00,1244.00,2422.00,4095.00,4095.00,,,,,,,,,,,,0,0,0,,-192,16220,2292,34,85,-139
26.607,26.30,0.10,-1.93,1.03,-2.23,2.16,2.48,-1.64,0.00,0.00,1843.00,3687.00,1083.00,1370.00,1407.00,2313.00,4095.00,4095.00,,,,,,,,,,,,0,0,0,,-132,16112,2248,20,41,-132
26.628,26.35,0.04,0.42,-1.54,2.95,-2.45,-0.98,0.54,0.00,0.00,2029.00,3599.00,1265.00,1263.00,1331.00,2501.00,4095.00,4095.00,,,,,,,,,,,,0,0,0,,-324,16100,2232,-56,46,-177
26.649,26.41,-0.04,-4.10,0.92,-2.95,0.68,-1.58,2.25,0.00,0.00,1929.00,4030.00,1189.00,1467.00,1227.00,2447.00,4095.00,4095.00,,,,,,,,,,,,0,0,0,,-256,16048,2368,-96,107,-167
26.671,26.46,0.11,-3.76,1.94,-3.44,3.24,2.95,-2.05,0.00,0.00,1814.00,3869.00,1044.00,1396.00,1426.00,2295.00,4095.00,4095.00,,,,,,,,,,,,0,0,0,,-196,16104,2260,-104,168,-155
26.711,26.52,0.07,0.22,-2.10,3.27,-2.86,-0.72,0.24,0.00,0.00,2100.00,3683.00,1286.00,1261.00,1347.00,2496.00,4095.00,4095.00,,,,,,,,,,,,0,0,0,,-228,16160,2224,-85,111,-142
26.774,26.57,-0.02,-4.25,0.54,-2.01,-0.14,-1.62,1.89,0.00,0.00,1974.00,4095.00,1222.00,1445.00,1252.00,2474.00,4095.00,4095.00,,,,,,,,,,,,0,0,0,,-276,15992,2296,-55,85,-133
26.834,26.63,0.03,-4.81,1.55,-3.05,1.80,0.90,-0.14,0.00,0.00,1888.00,4075.00,1121.00,1429.00,1335.00,2365.00,4095.00,4095.00,,,,,,,,,,,,0,0,0,,-192,16356,2344,-125,189,-240
26.897,26.68,0.06,-0.60,-0.84,0.36,-0.47,0.60,-0.38,0.00,0.00,1990.00,3677.00,1191.00,1327.00,1360.00,2409.00,4095.00,4095.00,,,,,,,,,,,,0,0,0,,-332,16084,2152,-147,61,-344
26.939,26.74,0.03,-0.92,-0.05,0.65,-0.90,-0.43,0.50,0.00,0.00,1918.00,3646.00,1213.00,1327.00,1321.00,2450.00,4095.00,4095.00,,,,,,,,,,,,0,0,0,,-360,16088,2348,-133,-85,-275
26.981,26.79,0.00,-1.27,0.38,-1.96,0.72,-0.62,1.58,0.00,0.00,1886.00,3655.00,1165.00,1409.00,1250.00,2398.00,4095.00,4095.00,,,,,,,,,,,,0,0,0,,-344,15996,2432,-68,205,-170
27.044,26.85,0.11,-0.94,0.83,-1.93,1.94,2.10,-1.28,0.00,0.00,1830.00,3565.00,1090.00,1362.00,1389.00,2325.00,4095.00,4095.00,,,,,,,,,,,,0,0,0,,-372,15988,2352,-83,232,-104
27.107,26.90,0.06,1.12,-1.41,2.90,-2.26,-0.85,0.67,0.00,0.00,1990.00,3489.00,1253.00,1259.00,1319.00,2480.00,4095.00,4095.00,,,,,,,,,,,,0,0,0,,-176,16168,2284,-15,203,-53
27.169,26.96,-0.02,-2.72,0.83,-2.65,0.67,-1.45,2.61,0.00,0.00,1890.00,3824.00,1183.00,1450.00,1200.00,2410.00,4095.00,4095.00,,,,,,,,,,,,0,0,0,,-176,16096,2280,-41,117,-170
27.251,27.01,0.13,-2.33,1.86,-2.93,3.09,2.99,-1.70,0.00,0.00,1775.00,3664.00,1043.00,1374.00,1398.00,2270.00,4095.00,4095.00,,,,,,,,,,,,0,0,0,,-248,16168,2284,-19,-52,-293
27.272,27.07,0.07,2.14,-2.57,4.44,-3.33,-1.09,0.54,0.00,0.00,2079.00,3456.00,1291.00,1219.00,1334.00,2512.00,4095.00,4095.00,,,,,,,,,,,,0,0,0,,-384,16120,2124,-52,-40,-375
27.333,27.12,-0.02,-3.77,0.84,-2.61,0.38,-1.76,2.72,0.00,0.00,1925.00,3985.00,1201.00,1459.00,1200.00,2433.00,4095.00,4095.00,,,,,,,,,,,,0,0,0,,-428,16088,2132,-43,18,-356
27.374,27.18,0.06,-3.26,1.74,-2.82,2.04,1.56,-0.72,0.00,0.00,1817.00,3813.00,1102.00,1407.00,1361.00,2340.00,4095.00,4095.00,,,,,,,,,,,,0,0,0,,-452,16012,2196,-32,114,-212
27.435,27.23,0.10,-0.70,-1.03,1.17,-1.12,0.96,-0.37,0.00,0.00,2015.00,3712.00,1216.00,1308.00,1350.00,2374.00,4095.00,4095.00,,,,,,,,,,,,0,0,0,,-348,16060,2312,-19,190,-101
27.496,27.29,0.04,-3.49,0.39,-0.43,-0.74,-1.12,1.54,0.00,0.00,1963.00,3990.00,1226.00,1379.00,1264.00,2448.00,4095.00,4095.00,,,,,,,,,,,,0,0,0,,-324,16080,2192,-37,109,-64
27.537,27.34,0.01,-4.09,0.91,-2.47,1.02,-0.58,1.33,0.00,0.00,1929.00,4028.00,1157.00,1426.00,1266.00,2410.00,4095.00,4095.00,,,,,,,,,,,,0,0,0,,-224,15968,2240,-58,95,-73
27.642,27.40,0.09,-3.96,0.83,-2.25,1.42,1.51,-0.83,0.00,0.00,1933.00,4017.00,1128.00,1399.00,1370.00,2351.00,4095.00,4095.00,,,,,,,,,,,,0,0,0,,-272,16332,2268,-93,181,-182
27.662,27.45,0.03,-0.92,-0.71,1.67,-1.52,-1.09,0.79,0.00,0.00,1988.00,3712.00,1231.00,1296.00,1316.00,2495.00,4095.00,4095.00,,,,,,,,,,,,0,0,0,,-296,15936,2016,-195,71,-309
27.704,27.51,-0.04,-2.91,0.88,-2.97,0.98,-1.33,2.42,0.00,0.00,1892.00,3849.00,1170.00,1456.00,1210.00,2411.00,4095.00,4095.00,,,,,,,,,,,,0,0,0,,-320,16028,2216,-180,-11,-167
27.767,27.56,0.11,-1.68,1.56,-2.44,2.56,2.90,-1.68,0.00,0.00,1783.00,3600.00,1064.00,1367.00,1399.00,2277.00,4095.00,4095.00,,,,,,,,,,,,0,0,0,,-276,16112,2416,-118,284,-33
27.828,27.62,0.06,2.36,-1.91,4.18,-2.85,-0.84,0.57,0.00,0.00,1999.00,3367.00,1264.00,1216.00,1326.00,2486.00,4095.00,4095.00,,,,,,,,,,,,0,0,0,,-320,16040,1968,-158,286,16
27.869,27.67,-0.01,-3.28,1.02,-3.11,0.86,-1.41,2.93,0.00,0.00,1890.00,3891.00,1181.00,1469.00,1179.00,2386.00,4095.00,4095.00,,,,,,,,,,,,0,0,0,,-188,16224,2052,15,204,34
27.91,27.73,0.15,-2.54,2.36,-3.18,3.26,3.25,-1.43,0.00,0.00,1734.00,3645.00,1038.00,1381.00,1371.00,2230.00,4095.00,4095.00,,,,,,,,,,,,0,0,0,,-132,16152,2160,-291,162,-168
28.012,27.78,0.17,0.75,-1.43,2.05,-1.58,0.54,0.05,0.00,0.00,2005.00,3542.00,1227.00,1279.00,1330.00,2387.00,4095.00,4095.00,,,,,,,,,,,,0,0,0,,-284,16236,2036,-506,-2,-256
28.032,27.84,0.12,-2.62,0.54,-1.11,-0.11,-0.81,1.98,0.00,0.00,1917.00,3840.00,1200.00,1393.00,1228.00,2391.00,4095.00,4095.00,,,,,,,,,,,,0,0,0,,-244,16236,2336,-447,67,-309
28.094,27.89,0.16,-2.96,1.55,-2.67,1.92,0.93,0.32,0.00,0.00,1826.00,3787.00,1106.00,1403.00,1301.00,2333.00,4095.00,4095.00,,,,,,,,,,,,0,0,0,,-224,16104,2252,-386,50,-278
28.155,27.95,0.20,-2.09,0.22,-1.21,0.94,0.95,-0.43,0.00,0.00,1931.00,3792.00,1136.00,1360.00,1355.00,2379.00,4095.00,4095.00,,,,,,,,,,,,0,0,0,,-284,16112,2324,-369,51,-264
28.216,28.00,0.16,-1.96,-0.17,1.24,-1.31,-0.51,0.65,0.00,0.00,1968.00,3812.00,1227.00,1311.00,1312.00,2448.00,4095.00,4095.00,,,,,,,,,,,,0,0,0,,-192,15920,2516,-433,129,-352
28.257,28.06,0.11,-4.49,0.97,-2.82,0.76,-0.92,1.74,0.00,0.00,1937.00,4086.00,1181.00,1456.00,1246.00,2416.00,4095.00,4095.00,,,,,,,,,,,,0,0,0,,-292,15936,2300,-602,127,-343
28.297,28.11,0.23,-4.36,1.43,-2.65,2.22,2.47,-1.56,0.00,0.00,1885.00,4016.00,1088.00,1391.00,1401.00,2309.00,4095.00,4095.00,,,,,,,,,,,,0,0,0,,-308,15888,2248,-689,216,-284
28.358,28.17,0.17,-1.64,-1.44,2.59,-2.53,-0.92,0.48,0.00,0.00,2096.00,3895.00,1279.00,1284.00,1334.00,2499.00,4095.00,4095.00,,,,,,,,,,,,0,0,0,,-404,16140,2184,-1037,415,-202
28.441,28.22,0.07,-4.37,0.71,-3.10,0.47,-1.83,2.94,0.00,0.00,1960.00,4095.00,1206.00,1484.00,1187.00,2425.00,4095.00,4095.00,,,,,,,,,,,,0,0,0,,-364,16068,2376,-1681,441,-338
28.461,28.28,0.23,-2.77,2.00,-3.36,3.29,3.15,-1.92,0.00,0.00,1776.00,3714.00,1040.00,1390.00,1411.00,2269.00,4095.00,4095.00,,,,,,,,,,,,0,0,0,,-504,16012,2656,-1192,224,-118
28.523,28.33,0.20,2.00,-2.17,3.61,-2.89,-0.29,0.17,0.00,0.00,2041.00,3440.00,1280.00,1245.00,1341.00,2458.00,4095.00,4095.00,,,,,,,,,,,,0,0,0,,-428,16160,2896,-956,315,-78
28.584,28.39,0.14,-2.25,0.49,-1.63,0.02,-0.92,1.70,0.00,0.00,1909.00,3789.00,1203.00,1417.00,1249.00,2419.00,4095.00,4095.00,,,,,,,,,,,,0,0,0,,-428,15864,2792,-949,392,-43
28.626,28.44,0.21,-1.87,1.23,-2.50,2.05,1.44,-0.23,0.00,0.00,1821.00,3659.00,1095.00,1389.00,1328.00,2320.00,4095.00,4095.00,,,,,,,,,,,,0,0,0,,-384,15968,2744,-891,302,-42
28.731,28.50,0.24,0.29,-0.84,0.76,-0.32,0.87,-0.28,0.00,0.00,1959.00,3551.00,1173.00,1301.00,1346.00,2377.00,4095.00,4095.00,,,,,,,,,,,,0,0,0,,-332,15924,2984,-817,262,6
28.752,28.55,0.21,-1.12,-0.12,0.61,-0.89,-0.34,0.68,0.00,0.00,1933.00,3683.00,1213.00,1329.00,1306.00,2430.00,4095.00,4095.00,,,,,,,,,,,,0,0,0,,-372,16044,3168,-836,388,3
28.813,28.61,0.17,-2.18,0.51,-2.11,0.72,-0.56,1.61,0.00,0.00,1904.00,3776.00,1168.00,1417.00,1247.00,2391.00,4095.00,4095.00,,,,,,,,,,,,0,0,0,,-320,15876,3244,-708,520,80
28.854,28.66,0.28,-2.23,0.83,-1.86,1.73,2.32,-1.26,0.00,0.00,1873.00,3751.00,1101.00,1366.00,1382.00,2304.00,4095.00,4095.00,,,,,,,,,,,,0,0,0,,-300,15724,3648,-617,540,62
28.917,28.72,0.22,-0.67,-1.10,2.36,-2.22,-0.94,0.81,0.00,0.00,2022.00,3715.00,1263.00,1285.00,1311.00,2479.00,4095.00,4095.00,,,,,,,,,,,,0,0,0,,-176,15848,3696,-381,494,127
28.979,28.77,0.14,-4.52,1.05,-3.02,0.82,-1.39,2.64,0.00,0.00,1930.00,4083.00,1181.00,1465.00,1197.00,2403.00,4095.00,4095.00,,,,,,,,,,,,0,0,0,,-188,15776,3664,-48,343,-86
29.019,28.83,0.29,-4.15,1.87,-2.94,2.59,3.13,-1.70,0.00,0.00,1834.00,3936.00,1072.00,1393.00,1395.00,2258.00,4095.00,4095.00,,,,,,,,,,,,0,0,0,,-192,15432,3604,319,123,-79
29.161,28.88,0.22,-0.21,-2.14,3.37,-3.01,-1.03,0.59,0.00,0.00,2121.00,3750.00,1294.00,1261.00,1329.00,2503.00,4095.00,4095.00,,,,,,,,,,,,0,0,0,,-236,15972,3612,-41,304,41
29.182,28.94,0.13,-4.36,0.70,-3.11,0.45,-1.64,2.69,0.00,0.00,1961.00,4095.00,1207.00,1485.00,1199.00,2423.00,4095.00,4095.00,,,,,,,,,,,,0,0,0,,-156,15776,3828,-555,481,-314
29.202,28.99,0.21,-3.34,1.91,-3.35,2.85,1.70,-0.70,0.00,0.00,1803.00,3808.00,1065.00,1406.00,1356.00,2326.00,4095.00,4095.00,,,,,,,,,,,,0,0,0,,-152,15756,3884,-610,403,-159
29.242,29.05,0.22,0.50,-1.03,1.08,-0.82,0.40,0.12,0.00,0.00,1971.00,3539.00,1198.00,1302.00,1328.00,2395.00,4095.00,4095.00,,,,,,,,,,,,0,0,0,,-128,16020,4036,-697,90,-230
29.304,29.10,0.16,-1.67,0.34,-0.71,-0.11,-0.96,1.80,0.00,0.00,1904.00,3717.00,1191.00,1371.00,1243.00,2416.00,4095.00,4095.00,,,,,,,,,,,,0,0,0,,-76,15640,3804,-778,-210,-768
29.365,29.16,0.14,-2.11,1.13,-2.23,1.46,-0.17,1.33,0.00,0.00,1839.00,3703.00,1125.00,1396.00,1257.00,2372.00,4095.00,4095.00,,,,,,,,,,,,0,0,0,,-84,15628,4476,-919,-148,-544
29.467,29.21,0.22,-1.38,0.46,-1.65,1.61,1.77,-0.63,0.00,0.00,1882.00,3663.00,1104.00,1359.00,1349.00,2315.00,4095.00,4095.00,,,,,,,,,,,,0,0,0,,-28,15516,4476,-706,301,-990
29.488,29.27,0.17,-0.41,-0.48,1.90,-1.34,-0.93,0.98,0.00,0.00,1945.00,3615.00,1214.00,1278.00,1299.00,2467.00,4095.00,4095.00,,,,,,,,,,,,0,0,0,,-344,15504,4300,-685,200,-1170
29.529,29.32,0.10,-3.15,0.84,-2.90,0.91,-1.15,2.42,0.00,0.00,1904.00,3889.00,1173.00,1455.00,1206.00,2394.00,4095.00,4095.00,,,,,,,,,,,,0,0,0,,-556,15168,4320,-667,-100,-1023
29.591,29.38,0.24,-2.63,1.45,-2.69,2.62,2.93,-1.62,0.00,0.00,1825.00,3749.00,1065.00,1378.00,1394.00,2271.00,4095.00,4095.00,,,,,,,,,,,,0,0,0,,-724,15340,4152,-641,-290,-725
29.652,29.43,0.19,0.61,-1.66,3.53,-2.65,-0.78,0.65,0.00,0.00,2035.00,3583.00,1265.00,1241.00,1319.00,2475.00,4095.00,4095.00,,,,,,,,,,,,0,0,0,,-936,15516,4188,-706,-308,-519
29.714,29.49,0.10,-4.69,1.19,-3.32,0.58,-1.62,2.91,0.00,0.00,1921.00,4095.00,1203.00,1492.00,1185.00,2408.00,4095.00,4095.00,,,,,,,,,,,,0,0,0,,-1188,15496,4584,-578,-24,38
29.734,29.54,0.24,-4.35,2.39,-3.69,3.45,2.91,-1.63,0.00,0.00,1789.00,3912.00,1037.00,1402.00,1395.00,2273.00,4095.00,4095.00,,,,,,,,,,,,0,0,0,,-780,15712,5016,-192,666,300
29.837,29.60,0.22,-0.62,-1.56,2.18,-1.81,-0.13,0.09,0.00,0.00,2071.00,3753.00,1239.00,1280.00,1343.00,2448.00,4095.00,4095.00,,,,,,,,,,,,0,0,0,,-712,15572,4352,376,976,503
29.857,29.65,0.16,-3.88,0.48,-1.30,-0.16,-0.96,1.80,0.00,0.00,1968.00,4043.00,1207.00,1405.00,1243.00,2416.00,4095.00,4095.00,,,,,,,,,,,,0,0,0,,-700,15740,3932,188,590,71
29.917,29.71,0.20,-2.36,1.26,-2.48,1.90,0.92,0.37,0.00,0.00,1835.00,3728.00,1103.00,1393.00,1298.00,2331.00,4095.00,4095.00,,,,,,,,,,,,0,0,0,,-556,15480,4048,-15,55,-176
29.959,29.76,0.26,0.16,-0.64,-0.01,0.24,1.37,-0.45,0.00,0.00,1942.00,3550.00,1154.00,1321.00,1346.00,2341.00,4095.00,4095.00,,,,,,,,,,,,0,0,0,,-756,15512,4176,70,-311,-291
30.023,29.82,0.24,0.06,-0.41,1.46,-1.20,-0.21,0.61,0.00,0.00,1922.00,3543.00,1215.00,1296.00,1308.00,2422.00,4095.00,4095.00,,,,,,,,,,,,1,1,0,,-576,15460,4364,188,-510,-472
30.083,29.87,0.18,-1.45,0.44,-1.96,0.69,-0.88,1.95,0.00,0.00,1886.00,3675.00,1167.00,1410.00,1231.00,2399.00,4095.00,4095.00,,,,,,,,,,,,1,1,0,,-708,15540,4456,278,-467,-609
30.124,29.93,0.31,-1.50,0.93,-2.02,2.16,2.70,-1.46,0.00,0.00,1839.00,3635.00,1079.00,1359.00,1387.00,2281.00,4095.00,4095.00,,,,,,,,,,,,1,1,0,,-724,15692,4184,886,-739,-819
30.207,29.98,0.25,1.18,-1.63,3.32,-2.52,-0.83,0.86,0.00,0.00,2011.00,3501.00,1261.00,1247.00,1305.00,2465.00,4095.00,4095.00,,,,,,,,,,,,1,1,0,,-832,15784,3964,1117,-1227,-1058
30.227,30.04,0.16,-3.17,0.98,-2.80,0.74,-1.53,2.86,0.00,0.00,1890.00,3878.00,1182.00,1456.00,1186.00,2402.00,4095.00,4095.00,,,,,,,,,,,,1,1,0,,-968,15672,3936,633,-1357,-1158
30.288,30.09,0.32,-2.96,2.13,-3.22,3.33,3.38,-2.04,0.00,0.00,1769.00,3728.00,1035.00,1381.00,1414.00,2256.00,4095.00,4095.00,,,,,,,,,,,,1,1,0,,-1140,15428,4004,-4,-631,-825
30.371,30.15,0.27,1.37,-2.30,3.71,-2.97,-0.67,0.40,0.00,0.00,2079.00,3539.00,1283.00,1243.00,1334.00,2480.00,4095.00,4095.00,,,,,,,,,,,,1,1,0,,-1280,15384,3868,-717,434,-304
30.411,30.20,0.19,-4.16,0.87,-1.85,0.14,-1.38,2.18,0.00,0.00,1936.00,4045.00,1200.00,1425.00,1227.00,2432.00,4095.00,4095.00,,,,,,,,,,,,1,1,0,,-1204,15384,3832,-1417,799,85
30.453,30.26,0.24,-4.01,1.57,-2.81,2.00,1.28,-0.26,0.00,0.00,1859.00,3946.00,1104.00,1408.00,1334.00,2337.00,4095.00,4095.00,,,,,,,,,,,,1,1,0,,-920,15568,4036,-1016,813,372
30.574,30.31,0.25,-1.58,-0.57,0.66,-0.57,0.43,0.01,0.00,0.00,1997.00,3796.00,1191.00,1315.00,1335.00,2399.00,4095.00,4095.00,,,,,,,,,,,,1,1,0,,-740,15724,4164,-670,773,454
30.595,30.37,0.20,-3.07,0.25,-0.13,-0.64,-0.75,1.26,0.00,0.00,1963.00,3939.00,1213.00,1359.00,1275.00,2431.00,4095.00,4095.00,,,,,,,,,,,,1,1,0,,-736,15844,4176,-578,543,65
30.637,30.42,0.17,-1.50,0.28,-2.04,0.70,-0.44,1.54,0.00,0.00,1904.00,3698.00,1168.00,1414.00,1249.00,2384.00,4095.00,4095.00,,,,,,,,,,,,1,1,0,,-720,15700,4436,-365,325,-13
30.698,30.48,0.27,-0.85,0.65,-1.72,1.82,2.11,-0.88,0.00,0.00,1845.00,3569.00,1093.00,1355.00,1359.00,2299.00,4095.00,4095.00,,,,,,,,,,,,1,1,0,,-636,15596,4196,-212,238,-46
30.759,30.53,0.22,1.21,-1.27,2.75,-2.03,-0.72,0.79,0.00,0.00,1971.00,3463.00,1241.00,1259.00,1307.00,2459.00,4095.00,4095.00,,,,,,,,,,,,1,1,0,,-712,15744,4092,-26,66,-121
30.779,30.59,0.15,-1.91,0.69,-2.50,0.93,-1.06,2.62,0.00,0.00,1876.00,3717.00,1163.00,1431.00,1191.00,2373.00,4095.00,4095.00,,,,,,,,,,,,1,1,0,,-660,15556,3936,154,-152,-39
30.841,30.64,0.30,-1.64,1.70,-2.63,3.02,3.04,-1.54,0.00,0.00,1768.00,3580.00,1041.00,1360.00,1385.00,2256.00,4095.00,4095.00,,,,,,,,,,,,1,1,0,,-648,15604,4132,13,54,-123
30.943,30.70,0.25,2.08,-1.83,4.00,-2.58,-0.73,0.50,0.00,0.00,2000.00,3397.00,1250.00,1216.00,1328.00,2479.00,4095.00,4095.00,,,,,,,,,,,,1,1,0,,-800,15612,4120,-143,230,-30
30.963,30.75,0.15,-3.28,1.00,-2.80,0.70,-1.62,3.02,0.00,0.00,1892.00,3892.00,1184.00,1457.00,1178.00,2401.00,4095.00,4095.00,,,,,,,,,,,,1,1,0,,-672,15712,3992,-289,293,-89
31.006,30.81,0.27,-2.70,2.30,-3.25,3.23,2.46,-1.21,0.00,0.00,1745.00,3674.00,1041.00,1386.00,1375.00,2288.00,4095.00,4095.00,,,,,,,,,,,,1,1,0,,-692,15556,4124,-242,263,-122
31.066,30.86,0.28,0.38,-1.22,1.58,-1.18,0.51,-0.14,0.00,0.00,1996.00,3574.00,1211.00,1289.00,1344.00,2401.00,4095.00,4095.00,,,,,,,,,,,,1,1,0,,-640,15476,3992,-281,207,-215
31.108,30.92,0.22,-2.66,0.49,-0.91,0.02,-0.93,1.81,0.00,0.00,1923.00,3850.00,1187.00,1377.00,1242.00,2413.00,4095.00,4095.00,,,,,,,,,,,,1,1,0,,-748,15544,4096,-469,67,-302
31.17,30.97,0.23,-3.14,1.47,-2.77,1.94,0.41,0.64,0.00,0.00,1840.00,3823.00,1107.00,1408.00,1291.00,2361.00,4095.00,4095.00,,,,,,,,,,,,1,1,0,,-824,15672,4344,-544,-44,-372
31.232,31.03,0.30,-2.41,0.40,-0.78,0.25,1.53,-0.63,0.00,0.00,1924.00,3822.00,1170.00,1362.00,1355.00,2337.00,4095.00,4095.00,,,,,,,,,,,,1,1,0,,-880,15544,4496,-489,-23,-246
31.334,31.08,0.25,-1.14,-0.54,1.51,-1.31,-0.52,0.87,0.00,0.00,1978.00,3728.00,1221.00,1297.00,1297.00,2435.00,4095.00,4095.00,,,,,,,,,,,,1,1,0,,-828,15472,4768,-421,151,-352
31.355,31.14,0.21,-2.22,0.73,-2.77,1.15,-0.68,2.16,0.00,0.00,1883.00,3760.00,1155.00,1438.00,1213.00,2367.00,4095.00,4095.00,,,,,,,,,,,,1,1,0,,-1024,15228,4704,-210,-30,-281
31.396,31.19,0.35,-1.05,1.36,-2.10,2.32,2.99,-1.55,0.00,0.00,1782.00,3530.00,1071.00,1357.00,1387.00,2261.00,4095.00,4095.00,,,,,,,,,,,,1,1,0,,-876,15364,4600,-207,-89,-127
31.437,31.25,0.30,2.34,-1.67,3.91,-2.48,-0.50,0.68,0.00,0.00,1973.00,3347.00,1245.00,1217.00,1310.00,2445.00,4095.00,4095.00,,,,,,,,,,,,1,1,0,,-788,15592,4624,-114,136,-121
31.498,31.30,0.21,-1.88,0.87,-2.28,0.76,-1.52,3.12,0.00,0.00,1857.00,3695.00,1169.00,1425.00,1169.00,2384.00,4095.00,4095.00,,,,,,,,,,,,1,1,0,,-672,15492,4524,82,64,-97
31.559,31.36,0.37,-1.71,2.26,-2.93,3.67,3.35,-1.83,0.00,0.00,1717.00,3536.00,1011.00,1353.00,1399.00,2246.00,4095.00,4095.00,,,,,,,,,,,,1,1,0,,-680,15572,4492,91,31,-158
31.622,31.41,0.35,2.64,-2.18,3.80,-2.44,-0.11,0.31,0.00,0.00,2018.00,3354.00,1245.00,1221.00,1327.00,2432.00,4095.00,4095.00,,,,,,,,,,,,1,1,0,,-756,15532,4540,96,164,-168
31.682,31.47,0.28,-1.79,0.39,-1.16,0.08,-0.98,1.97,0.00,0.00,1903.00,3730.00,1189.00,1389.00,1232.00,2407.00,4095.00,4095.00,,,,,,,,,,,,1,1,0,,-760,15496,4168,-64,76,-227
31.723,31.52,0.33,-1.64,1.35,-2.14,1.93,1.38,0.03,0.00,0.00,1802.00,3614.00,1095.00,1374.00,1311.00,2310.00,4095.00,4095.00,,,,,,,,,,,,1,1,0,,-620,15524,4216,-350,20,-355
31.808,31.58,0.36,0.25,-0.61,0.82,-0.18,0.94,-0.20,0.00,0.00,1936.00,3535.00,1163.00,1293.00,1338.00,2365.00,4095.00,4095.00,,,,,,,,,,,,1,1,0,,-776,15488,4336,-437,-24,-461
31.827,31.63,0.33,-1.04,-0.03,0.77,-0.79,-0.35,0.82,0.00,0.00,1921.00,3663.00,1203.00,1317.00,1296.00,2421.00,4095.00,4095.00,,,,,,,,,,,,1,1,0,,-784,15540,4612,-136,23,-295
31.889,31.69,0.29,-2.40,0.67,-1.94,0.75,-0.49,1.61,0.00,0.00,1895.00,3792.00,1163.00,1407.00,1245.00,2384.00,4095.00,4095.00,,,,,,,,,,,,1,1,0,,-884,15452,4748,448,207,7
31.929,31.74,0.39,-2.58,1.10,-1.99,1.99,2.42,-1.41,0.00,0.00,1858.00,3776.00,1088.00,1363.00,1391.00,2304.00,4095.00,4095.00,,,,,,,,,,,,1,1,0,,-680,15548,4316,497,394,204
31.991,31.80,0.35,-0.15,-1.25,2.50,-2.23,-0.57,0.45,0.00,0.00,2018.00,3652.00,1260.00,1278.00,1328.00,2467.00,4095.00,4095.00,,,,,,,,,,,,1,1,0,,-560,15692,4084,30,376,-144
32.052,31.85,0.26,-2.59,0.84,-2.91,0.90,-1.31,2.58,0.00,0.00,1884.00,3803.00,1174.00,1456.00,1199.00,2399.00,4095.00,4095.00,,,,,,,,,,,,1,1,0,,-712,15408,3980,-263,141,-257
32.112,31.91,0.41,-1.49,1.94,-2.79,3.26,3.10,-1.64,0.00,0.00,1740.00,3536.00,1031.00,1360.00,1391.00,2257.00,4095.00,4095.00,,,,,,,,,,,,1,1,0,,-828,15504,4236,-278,-2,-297
32.173,31.96,0.35,3.28,-2.51,4.38,-3.05,-0.71,0.58,0.00,0.00,2031.00,3300.00,1273.00,1213.00,1322.00,2472.00,4095.00,4095.00,,,,,,,,,,,,1,1,0,,-904,15552,4328,-333,131,-224
32.236,32.02,0.25,-1.97,0.73,-2.21,0.51,-1.61,2.87,0.00,0.00,1874.00,3722.00,1184.00,1431.00,1187.00,2409.00,4095.00,4095.00,,,,,,,,,,,,1,1,0,,-768,15572,4432,-555,160,-184
32.277,32.07,0.34,-1.53,1.71,-2.87,2.65,1.92,-0.76,0.00,0.00,1763.00,3563.00,1067.00,1387.00,1355.00,2309.00,4095.00,4095.00,,,,,,,,,,,,1,1,0,,-848,15512,4628,-598,236,-330
32.338,32.13,0.33,1.42,-1.09,1.47,-0.73,0.24,0.24,0.00,0.00,1945.00,3418.00,1184.00,1279.00,1323.00,2402.00,4095.00,4095.00,,,,,,,,,,,,1,1,0,,-756,15516,4584,-231,216,-196
32.421,32.18,0.27,-1.05,0.20,-0.30,-0.14,-0.92,1.70,0.00,0.00,1897.00,3641.00,1184.00,1350.00,1249.00,2419.00,4095.00,4095.00,,,,,,,,,,,,1,1,0,,-816,15500,4376,43,179,-189
32.44,32.24,0.24,-1.69,1.07,-2.22,1.55,-0.23,1.26,0.00,0.00,1831.00,3648.00,1119.00,1392.00,1263.00,2382.00,4095.00,4095.00,,,,,,,,,,,,1,1,0,,-992,15604,4304,-55,134,-190
32.5,32.29,0.31,-1.20,0.69,-1.56,1.58,1.65,-0.64,0.00,0.00,1853.00,3616.00,1104.00,1355.00,1353.00,2327.00,4095.00,4095.00,,,,,,,,,,,,1,1,0,,-932,15372,4276,-319,30,-197
32.541,32.35,0.27,0.05,-0.67,2.05,-1.58,-0.55,0.71,0.00,0.00,1949.00,3568.00,1227.00,1279.00,1309.00,2448.00,4095.00,4095.00,,,,,,,,,,,,1,1,0,,-936,15312,4616,-280,45,-98
32.602,32.40,0.19,-3.05,0.84,-2.78,0.77,-1.33,2.38,0.00,0.00,1901.00,3875.00,1179.00,1453.00,1213.00,2414.00,4095.00,4095.00,,,,,,,,,,,,1,1,0,,-852,15336,4728,-99,176,9
32.662,32.46,0.31,-2.48,1.43,-2.73,2.51,2.60,-1.49,0.00,0.00,1822.00,3728.00,1072.00,1384.00,1392.00,2292.00,4095.00,4095.00,,,,,,,,,,,,1,1,0,,-660,15748,4576,-93,268,82
32.724,32.51,0.26,1.45,-1.89,3.42,-2.61,-0.79,0.59,0.00,0.00,2030.00,3489.00,1265.00,1245.00,1323.00,2479.00,4095.00,4095.00,,,,,,,,,,,,1,1,0,,-732,15568,4476,-161,177,-239
32.785,32.57,0.15,-2.58,0.83,-2.87,0.68,-1.84,3.15,0.00,0.00,1885.00,3803.00,1187.00,1462.00,1174.00,2413.00,4095.00,4095.00,,,,,,,,,,,,1,1,0,,-752,15424,4604,-194,-111,-266
32.826,32.62,0.29,-1.46,2.23,-2.91,3.24,2.93,-1.67,0.00,0.00,1712.00,3504.00,1034.00,1367.00,1397.00,2273.00,4095.00,4095.00,,,,,,,,,,,,1,1,0,,-956,15432,4652,-339,-26,-304
32.888,32.68,0.26,2.72,-1.84,3.22,-2.01,-0.25,0.27,0.00,0.00,1978.00,3313.00,1229.00,1235.00,1333.00,2448.00,4095.00,4095.00,,,,,,,,,,,,1,1,0,,-868,15352,4472,-277,210,-207
32.929,32.73,0.21,-1.01,0.36,-0.70,-0.20,-0.89,1.78,0.00,0.00,1879.00,3619.00,1197.00,1374.00,1243.00,2411.00,4095.00,4095.00,,,,,,,,,,,,1,1,0,,-712,15496,4596,-176,272,-61
32.971,32.79,0.25,-1.06,1.32,-2.19,2.03,1.06,0.25,0.00,0.00,1786.00,3535.00,1090.00,1373.00,1303.00,2325.00,4095.00,4095.00,,,,,,,,,,,,1,1,0,,-836,15500,4724,-25,377,-39
33.051,32.84,0.30,0.66,-0.44,0.36,0.21,1.37,-0.35,0.00,0.00,1904.00,3462.00,1148.00,1303.00,1339.00,2335.00,4095.00,4095.00,,,,,,,,,,,,1,1,0,,-800,15456,4620,5,591,44
33.176,32.90,0.27,-0.15,-0.17,1.49,-0.81,-0.29,0.89,0.00,0.00,1904.00,3549.00,1189.00,1281.00,1290.00,2411.00,4095.00,4095.00,,,,,,,,,,,,1,1,0,,-712,15472,4764,-71,1232,-7
33.197,32.95,0.22,-2.05,0.47,-1.85,1.04,-0.75,2.29,0.00,0.00,1904.00,3761.00,1143.00,1391.00,1206.00,2365.00,4095.00,4095.00,,,,,,,,,,,,1,1,0,,-884,15864,4856,-131,1878,164
33.218,33.01,0.35,-2.45,0.96,-1.77,2.46,2.68,-1.21,0.00,0.00,1868.00,3771.00,1057.00,1335.00,1369.00,2268.00,4095.00,4095.00,,,,,,,,,,,,1,1,0,,-1040,15580,5152,1404,3364,139
33.259,33.06,0.28,-0.24,-1.62,3.27,-1.97,-1.07,1.07,0.00,0.00,2063.00,3703.00,1225.00,1231.00,1296.00,2475.00,4095.00,4095.00,,,,,,,,,,,,1,1,0,,-1052,15220,4848,165,3937,639
33.302,33.12,0.18,-4.39,0.75,-2.74,1.19,-1.69,2.88,0.00,0.00,1957.00,4095.00,1152.00,1435.00,1188.00,2416.00,4095.00,4095.00,,,,,,,,,,,,1,1,0,,-1204,15640,3944,-1068,3799,132
33.383,33.17,0.31,-4.42,2.00,-3.53,4.05,2.90,-1.88,0.00,0.00,1830.00,3965.00,1001.00,1371.00,1414.00,2289.00,4095.00,4095.00,,,,,,,,,,,,1,1,0,,-1712,15272,8156,1680,5673,1705
33.446,33.23,0.23,0.49,-2.59,4.17,-2.83,-1.44,0.66,0.00,0.00,2146.00,3693.00,1263.00,1216.00,1334.00,2539.00,4095.00,4095.00,,,,,,,,,,,,1,1,0,,-1300,15752,4908,2844,10644,1786
33.528,33.28,0.09,-4.18,0.43,-1.96,1.01,-2.40,2.01,0.00,0.00,1983.00,4095.00,1147.00,1398.00,1262.00,2544.00,4095.00,4095.00,,,,,,,,,,,,1,1,0,,-1004,15452,1904,1584,10380,1958
33.548,33.34,0.09,-2.82,1.04,-2.01,2.64,0.11,-0.94,0.00,0.00,1872.00,3818.00,1051.00,1341.00,1414.00,2493.00,4095.00,4095.00,,,,,,,,,,,,1,1,0,,-848,16456,2152,945,7245,872
33.589,33.39,0.04,0.22,-1.26,2.06,-0.12,-0.92,-0.87,0.00,0.00,2006.00,3601.00,1133.00,1229.00,1435.00,2591.00,4095.00,4095.00,,,,,,,,,,,,1,1,0,,-1104,16088,2276,432,4581,341
33.652,33.45,-0.07,-1.61,-0.20,0.98,0.13,-2.26,0.17,0.00,0.00,1958.00,3762.00,1140.00,1274.00,1390.00,2657.00,4095.00,4095.00,,,,,,,,,,,,1,1,0,,-1092,15876,1080,-264,960,142
33.692,33.50,-0.17,-1.29,0.16,-1.29,1.49,-2.02,0.59,0.00,0.00,1909.00,3679.00,1104.00,1344.00,1353.00,2603.00,4095.00,4095.00,,,,,,,,,,,,1,1,0,,-500,15384,1168,-2245,-4328,-87
33.774,33.56,-0.15,-0.23,0.48,-1.36,2.18,0.29,-1.46,0.00,0.00,1841.00,3499.00,1065.00,1323.00,1450.00,2510.00,4095.00,4095.00,,,,,,,,,,,,1,1,0,,-472,16752,2964,-40,-6768,-553
33.816,33.61,-0.27,1.78,-1.32,2.68,-1.90,-2.67,0.31,0.00,0.00,1956.00,3391.00,1234.00,1258.00,1390.00,2691.00,4095.00,4095.00,,,,,,,,,,,,1,1,0,,-856,16084,3888,-344,-6511,-1736
33.879,33.67,-0.40,-1.64,0.68,-2.79,1.03,-2.80,1.81,0.00,0.00,1868.00,3679.00,1163.00,1444.00,1285.00,2598.00,4095.00,4095.00,,,,,,,,,,,,1,1,0,,-1416,15232,3860,-1024,-5320,-1503
33.941,33.72,-0.35,-1.25,1.75,-2.92,3.21,0.57,-1.06,0.00,0.00,1751.00,3521.00,1036.00,1369.00,1411.00,2455.00,4095.00,4095.00,,,,,,,,,,,,1,1,0,,-1288,15612,4752,133,-4159,-728
33.981,33.78,-0.47,2.29,-1.89,3.43,-2.41,-2.70,0.31,0.00,0.00,1999.00,3374.00,1251.00,1238.00,1391.00,2694.00,4095.00,4095.00,,,,,,,,,,,,1,1,0,,-1020,15968,3620,1322,-2990,-498
34.042,33.83,-0.61,-3.07,1.04,-3.46,0.93,-3.37,2.40,0.00,0.00,1881.00,3856.00,1184.00,1487.00,1257.00,2615.00,4095.00,4095.00,,,,,,,,,,,,1,1,0,,-976,15652,3708,547,-3679,-659
34.103,33.89,-0.55,-2.32,2.11,-3.45,2.86,0.57,-1.60,0.00,0.00,1751.00,3638.00,1066.00,1411.00,1453.00,2491.00,4095.00,4095.00,,,,,,,,,,,,1,1,0,,-632,15732,3636,1312,-4064,-17
34.123,33.94,-0.59,1.32,-1.53,1.25,-1.39,-1.35,-0.49,0.00,0.00,1995.00,3472.00,1232.00,1313.00,1417.00,2609.00,4095.00,4095.00,,,,,,,,,,,,1,1,0,,-264,16452,2988,1677,-4906,-1293
34.248,34.00,-0.69,-0.63,0.18,-1.04,-0.14,-2.49,1.12,0.00,0.00,1885.00,3583.00,1200.00,1390.00,1326.00,2614.00,4095.00,4095.00,,,,,,,,,,,,1,1,0,,-480,15380,3232,1637,-4867,-2225
34.269,34.05,-0.70,-0.43,1.21,-2.78,1.91,-0.94,-0.04,0.00,0.00,1776.00,3458.00,1109.00,1410.00,1373.00,2537.00,4095.00,4095.00,,,,,,,,,,,,1,1,0,,-1456,15760,3068,382,-3280,-1863
34.353,34.11,-0.67,0.80,0.05,-1.16,1.00,-0.15,-1.01,0.00,0.00,1849.00,3398.00,1131.00,1355.00,1426.00,2523.00,4095.00,4095.00,,,,,,,,,,,,1,1,0,,-1672,15088,3384,-1727,-1881,-912
34.372,34.16,-0.74,1.62,-0.56,1.75,-1.47,-1.95,0.19,0.00,0.00,1883.00,3344.00,1226.00,1290.00,1381.00,2624.00,4095.00,4095.00,,,,,,,,,,,,1,1,0,,-1236,15548,4120,-2442,-300,742
34.412,34.22,-0.80,-0.78,0.56,-2.57,0.86,-2.06,1.36,0.00,0.00,1851.00,3567.00,1169.00,1438.00,1299.00,2554.00,4095.00,4095.00,,,,,,,,,,,,1,1,0,,-848,16188,4016,-1729,612,762
34.473,34.27,-0.70,-0.11,1.08,-2.08,2.35,1.33,-2.02,0.00,0.00,1778.00,3426.00,1069.00,1355.00,1466.00,2445.00,4095.00,4095.00,,,,,,,,,,,,1,1,0,,-704,15844,4000,-993,815,419
34.535,34.33,-0.76,2.78,-1.91,3.83,-2.82,-1.92,0.11,0.00,0.00,1984.00,3312.00,1270.00,1232.00,1386.00,2626.00,4095.00,4095.00,,,,,,,,,,,,1,1,0,,-700,16028,3624,-316,633,107
34.616,34.38,-0.86,-1.39,0.40,-2.59,0.65,-2.80,2.44,0.00,0.00,1888.00,3670.00,1183.00,1447.00,1242.00,2555.00,4095.00,4095.00,,,,,,,,,,,,1,1,0,,-728,15864,3608,-64,505,-121
34.637,34.44,-0.72,-1.64,2.12,-3.00,3.17,1.93,-2.36,0.00,0.00,1728.00,3540.00,1040.00,1375.00,1477.00,2409.00,4095.00,4095.00,,,,,,,,,,,,1,1,0,,-652,15864,3356,-149,356,-239
34.699,34.49,-0.76,2.75,-2.35,3.61,-2.70,-1.54,-0.19,0.00,0.00,2032.00,3354.00,1267.00,1239.00,1399.00,2608.00,4095.00,4095.00,,,,,,,,,,,,1,1,0,,-976,15956,3696,-272,16,-105
34.74,34.55,-0.83,-1.97,0.38,-1.45,-0.24,-2.09,1.32,0.00,0.00,1911.00,3759.00,1216.00,1417.00,1302.00,2559.00,4095.00,4095.00,,,,,,,,,,,,1,1,0,,-988,15492,4016,155,49,195
34.8,34.60,-0.79,-1.86,1.14,-2.46,1.71,0.01,-0.48,0.00,0.00,1830.00,3666.00,1114.00,1399.00,1382.00,2472.00,4095.00,4095.00,,,,,,,,,,,,1,1,0,,-672,15520,3984,-90,153,224
34.841,34.66,-0.76,0.70,-0.94,0.70,-0.49,-0.29,-0.71,0.00,0.00,1954.00,3502.00,1185.00,1310.00,1407.00,2517.00,4095.00,4095.00,,,,,,,,,,,,1,1,0,,-592,15808,3864,-499,167,-286
34.903,34.71,-0.79,0.62,-0.43,0.93,-0.89,-1.39,0.30,0.00,0.00,1904.00,3466.00,1206.00,1312.00,1359.00,2559.00,4095.00,4095.00,,,,,,,,,,,,1,1,0,,-716,15524,4000,-214,-54,-364
34.985,34.77,-0.83,0.05,0.36,-1.65,0.71,-1.58,1.31,0.00,0.00,1843.00,3471.00,1159.00,1392.00,1291.00,2509.00,4095.00,4095.00,,,,,,,,,,,,1,1,0,,-800,15584,4148,69,29,62
35.004,34.82,-0.72,0.03,0.95,-1.43,1.98,1.36,-1.62,0.00,0.00,1786.00,3419.00,1078.00,1334.00,1434.00,2416.00,4095.00,4095.00,,,,,,,,,,,,1,1,0,,-508,15764,3952,-114,59,190
35.067,34.88,-0.77,2.86,-1.49,3.43,-2.23,-1.65,0.33,0.00,0.00,1936.00,3264.00,1239.00,1232.00,1363.00,2583.00,4095.00,4095.00,,,,,,,,,,,,1,1,0,,-412,15744,3916,123,-169,157
35.128,34.93,-0.83,-0.68,0.64,-2.28,0.80,-2.06,2.17,0.00,0.00,1840.00,3546.00,1167.00,1424.00,1243.00,2499.00,4095.00,4095.00,,,,,,,,,,,,1,1,0,,-380,15892,3752,-26,-300,-257
35.188,34.99,-0.69,-0.33,1.75,-2.19,2.93,2.08,-1.91,0.00,0.00,1722.00,3395.00,1038.00,1340.00,1438.00,2367.00,4095.00,4095.00,,,,,,,,,,,,1,1,0,,-596,15508,3712,-218,-427,-280
35.25,35.04,-0.73,3.93,-2.59,4.68,-3.09,-1.56,0.14,0.00,0.00,2015.00,3222.00,1269.00,1200.00,1375.00,2587.00,4095.00,4095.00,,,,,,,,,,,,1,1,0,,-592,15712,4000,135,112,87
35.292,35.10,-0.81,-1.61,0.84,-2.08,0.64,-2.38,2.43,0.00,0.00,1851.00,3659.00,1173.00,1419.00,1233.00,2513.00,4095.00,4095.00,,,,,,,,,,,,1,1,0,,-444,15744,3644,-15,683,78
35.353,35.15,-0.73,-1.20,1.81,-2.00,2.10,0.81,-0.89,0.00,0.00,1744.00,3509.00,1082.00,1360.00,1392.00,2421.00,4095.00,4095.00,,,,,,,,,,,,1,1,0,,-420,15748,3652,-490,513,-64
35.416,35.21,-0.72,1.65,-1.25,2.07,-1.09,-0.43,-0.19,0.00,0.00,1953.00,3401.00,1194.00,1261.00,1371.00,2496.00,4095.00,4095.00,,,,,,,,,,,,1,1,0,,-444,15748,3744,-279,40,-88
35.477,35.26,-0.76,-0.75,0.19,0.31,-0.45,-1.56,1.24,0.00,0.00,1888.00,3599.00,1191.00,1329.00,1295.00,2511.00,4095.00,4095.00,,,,,,,,,,,,1,1,1,,-440,15832,3880,-77,-38,-26
35.517,35.32,-0.77,-1.15,0.64,-2.03,1.32,-1.05,0.96,0.00,0.00,1856.00,3613.00,1129.00,1390.00,1303.00,2480.00,4095.00,4095.00,,,,,,,,,,,,1,1,1,,-248,15800,3776,91,137,-210
35.558,35.37,-0.70,-1.14,0.50,-1.36,1.60,0.70,-0.87,0.00,0.00,1869.00,3624.00,1099.00,1344.00,1394.00,2431.00,4095.00,4095.00,,,,,,,,,,,,1,1,1,,-324,16040,3556,-99,116,-345
35.639,35.43,-0.74,1.21,-0.87,2.33,-1.56,-1.45,0.39,0.00,0.00,1929.00,3426.00,1219.00,1264.00,1354.00,2559.00,4095.00,4095.00,,,,,,,,,,,,1,1,1,,-456,15760,3472,-79,-86,-641
35.722,35.48,-0.78,-0.57,0.58,-2.27,1.06,-1.59,1.85,0.00,0.00,1842.00,3536.00,1150.00,1413.00,1254.00,2474.00,4095.00,4095.00,,,,,,,,,,,,1,1,1,,-588,15584,3808,-222,-193,-714
35.743,35.54,-0.63,0.30,1.37,-1.61,2.81,2.26,-1.81,0.00,0.00,1737.00,3345.00,1034.00,1314.00,1425.00,2343.00,4095.00,4095.00,,,,,,,,,,,,1,1,1,,-756,15400,4184,-714,-132,-522
35.804,35.59,-0.65,4.07,-1.96,4.94,-2.56,-1.06,0.30,0.00,0.00,1943.00,3151.00,1227.00,1171.00,1351.00,2526.00,4095.00,4095.00,,,,,,,,,,,,1,1,1,,-740,15568,4292,34,348,45
35.845,35.65,-0.72,-0.70,0.68,-1.92,0.71,-2.05,2.77,0.00,0.00,1837.00,3545.00,1165.00,1407.00,1203.00,2458.00,4095.00,4095.00,,,,,,,,,,,,1,1,1,,-516,15844,3988,251,661,281
35.906,35.70,-0.57,-0.24,2.03,-1.98,3.49,2.32,-1.54,0.00,0.00,1693.00,3357.00,1003.00,1309.00,1403.00,2321.00,4095.00,4095.00,,,,,,,,,,,,1,1,1,,-356,15832,3644,-142,216,-69
35.968,35.76,-0.55,3.23,-1.85,3.54,-1.78,-0.12,-0.16,0.00,0.00,1961.00,3248.00,1207.00,1212.00,1361.00,2463.00,4095.00,4095.00,,,,,,,,,,,,1,1,1,,-364,15812,4144,-49,-194,-111
36.01,35.81,-0.58,0.30,0.12,0.60,-0.28,-1.16,1.56,0.00,0.00,1859.00,3459.00,1174.00,1308.00,1264.00,2451.00,4095.00,4095.00,,,,,,,,,,,,1,1,1,,-520,15740,3852,-30,-59,-292
36.134,35.87,-0.52,-0.09,1.12,-1.30,2.04,0.55,0.14,0.00,0.00,1773.00,3419.00,1072.00,1325.00,1323.00,2380.00,4095.00,4095.00,,,,,,,,,,,,1,1,1,,-540,15708,3688,150,54,-283
36.155,35.92,-0.43,0.97,-0.17,0.49,0.97,1.30,-0.80,0.00,0.00,1865.00,3394.00,1099.00,1270.00,1373.00,2369.00,4095.00,4095.00,,,,,,,,,,,,1,1,1,,-636,15652,3532,-1,-22,-350
36.176,35.98,-0.44,0.96,-0.42,2.54,-0.98,-0.67,0.54,0.00,0.00,1891.00,3419.00,1177.00,1234.00,1324.00,2471.00,4095.00,4095.00,,,,,,,,,,,,1,1,1,,-720,15644,3632,-201,-162,-366
36.238,36.03,-0.48,-0.83,0.47,-1.32,0.95,-1.23,1.88,0.00,0.00,1862.00,3583.00,1137.00,1365.00,1244.00,2437.00,4095.00,4095.00,,,,,,,,,,,,1,1,2,,-612,15596,3860,-455,-154,-196
36.279,36.09,-0.33,-0.71,0.90,-0.95,2.28,2.46,-1.75,0.00,0.00,1815.00,3525.00,1051.00,1298.00,1416.00,2322.00,4095.00,4095.00,,,,,,,,,,,,1,1,2,,-580,15748,4000,-315,-7,-6
36.339,36.14,-0.37,2.36,-1.87,4.52,-2.33,-1.06,0.53,0.00,0.00,1994.00,3363.00,1221.00,1183.00,1334.00,2510.00,4095.00,4095.00,,,,,,,,,,,,1,1,2,,-444,15796,4132,-288,95,-173
36.401,36.20,-0.44,-0.52,0.59,-1.42,0.83,-1.72,2.71,0.00,0.00,1840.00,3529.00,1147.00,1375.00,1200.00,2430.00,4095.00,4095.00,,,,,,,,,,,,1,1,2,,-508,15700,3832,-158,-63,-314
36.463,36.25,-0.25,0.24,1.90,-1.83,3.93,3.27,-2.13,0.00,0.00,1690.00,3306.00,977.00,1286.00,1424.00,2271.00,4095.00,4095.00,,,,,,,,,,,,1,1,2,,-456,15752,3952,-68,-206,-359
36.525,36.31,-0.26,4.84,-2.48,5.90,-2.71,-0.36,0.13,0.00,0.00,1970.00,3099.00,1216.00,1132.00,1346.00,2468.00,4095.00,4095.00,,,,,,,,,,,,1,1,2,,-632,15628,4080,-101,-91,-310
36.545,36.36,-0.29,0.59,0.20,0.08,0.34,-0.97,1.82,0.00,0.00,1841.00,3412.00,1146.00,1313.00,1242.00,2416.00,4095.00,4095.00,,,,,,,,,,,,1,1,2,,-688,15532,3884,-230,139,-158
36.606,36.42,-0.20,0.84,1.08,-0.46,2.12,1.48,-0.28,0.00,0.00,1747.00,3299.00,1051.00,1279.00,1331.00,2320.00,4095.00,4095.00,,,,,,,,,,,,1,1,2,,-616,15672,4124,-329,251,-78
36.668,36.47,-0.14,2.93,-0.92,2.93,-0.13,1.15,-0.43,0.00,0.00,1875.00,3206.00,1116.00,1188.00,1350.00,2360.00,4095.00,4095.00,,,,,,,,,,,,1,1,2,,-528,15660,3980,-218,238,-79
36.729,36.53,-0.14,1.65,-0.33,2.96,-0.78,-0.19,0.70,0.00,0.00,1858.00,3318.00,1155.00,1207.00,1301.00,2414.00,4095.00,4095.00,,,,,,,,,,,,1,1,2,,-548,15632,3948,6,221,-116
36.811,36.58,-0.14,0.86,0.12,0.10,0.94,-0.24,1.48,0.00,0.00,1840.00,3383.00,1109.00,1291.00,1248.00,2368.00,4095.00,4095.00,,,,,,,,,,,,1,1,2,,-492,15696,4016,82,154,-166
36.833,36.64,-0.01,0.55,0.73,-0.02,2.20,2.58,-1.48,0.00,0.00,1790.00,3369.00,1038.00,1254.00,1392.00,2294.00,4095.00,4095.00,,,,,,,,,,,,1,1,2,,-580,15700,3880,86,91,-230
36.894,36.69,-0.04,2.41,-1.53,4.70,-2.11,-0.58,0.47,0.00,0.00,1956.00,3326.00,1203.00,1168.00,1327.00,2467.00,4095.00,4095.00,,,,,,,,,,,,1,1,2,,-404,15652,3700,-21,112,-220
36.935,36.75,-0.10,-1.37,0.72,-1.25,1.05,-1.34,2.50,0.00,0.00,1855.00,3636.00,1130.00,1358.00,1205.00,2407.00,4095.00,4095.00,,,,,,,,,,,,1,1,2,,-544,15704,3820,-253,184,-238
36.995,36.80,0.06,-1.25,1.81,-1.53,3.60,3.19,-1.77,0.00,0.00,1745.00,3515.00,989.00,1282.00,1398.00,2256.00,4095.00,4095.00,,,,,,,,,,,,1,1,2,,-640,15764,3736,-208,146,-137
37.076,36.86,0.03,3.25,-2.60,6.15,-3.25,-0.65,0.32,0.00,0.00,2042.00,3312.00,1246.00,1137.00,1339.00,2483.00,4095.00,4095.00,,,,,,,,,,,,1,1,2,,-620,15628,3880,-269,165,-291
37.2,36.91,-0.04,-0.78,0.44,-0.77,0.48,-1.34,2.62,0.00,0.00,1863.00,3579.00,1155.00,1353.00,1197.00,2399.00,4095.00,4095.00,,,,,,,,,,,,1,1,2,,-632,15572,3904,-381,214,-266
37.219,36.97,0.07,0.27,1.49,-1.00,2.80,2.13,-0.72,0.00,0.00,1727.00,3338.00,1023.00,1283.00,1347.00,2288.00,4095.00,4095.00,,,,,,,,,,,,1,1,2,,-564,15708,4164,-371,151,-210
37.239,37.02,0.11,3.39,-1.21,3.73,-0.68,0.88,0.08,0.00,0.00,1889.00,3173.00,1133.00,1168.00,1319.00,2352.00,4095.00,4095.00,,,,,,,,,,,,1,1,2,,-548,15632,3812,62,227,-177
37.282,37.08,0.09,1.37,0.09,2.18,-0.24,-0.36,1.55,0.00,0.00,1826.00,3318.00,1138.00,1227.00,1246.00,2375.00,4095.00,4095.00,,,,,,,,,,,,1,1,2,,-656,15604,3964,-333,-93,-130
37.342,37.13,0.09,0.97,0.52,0.31,1.27,0.15,1.34,0.00,0.00,1797.00,3333.00,1085.00,1269.00,1249.00,2341.00,4095.00,4095.00,,,,,,,,,,,,1,1,2,,-608,15748,4184,-258,-103,-342
37.405,37.19,0.17,1.35,0.26,0.89,1.61,1.64,-0.52,0.00,0.00,1810.00,3306.00,1054.00,1229.00,1344.00,2320.00,4095.00,4095.00,,,,,,,,,,,,1,1,2,,-712,15680,4196,-233,46,-315
37.425,37.24,0.14,2.77,-1.15,4.77,-1.67,-0.28,0.82,0.00,0.00,1904.00,3246.00,1173.00,1151.00,1295.00,2415.00,4095.00,4095.00,,,,,,,,,,,,1,1,2,,-660,15780,4216,-176,322,-334
37.486,37.30,0.11,-0.32,0.63,-0.64,1.09,-0.59,2.47,0.00,0.00,1829.00,3497.00,1115.00,1324.00,1191.00,2339.00,4095.00,4095.00,,,,,,,,,,,,1,1,2,,-800,15508,3896,-244,7,-352
37.567,37.35,0.28,0.04,1.39,-0.92,3.32,3.48,-1.66,0.00,0.00,1744.00,3378.00,993.00,1261.00,1383.00,2224.00,4095.00,4095.00,,,,,,,,,,,,1,1,3,,-812,15556,4224,-42,-64,-73
37.588,37.41,0.25,3.32,-1.98,6.52,-2.69,-0.26,0.54,0.00,0.00,1971.00,3247.00,1201.00,1104.00,1314.00,2431.00,4095.00,4095.00,,,,,,,,,,,,1,1,3,,-724,15468,4084,11,274,94
37.649,37.46,0.19,-1.90,0.90,-1.28,0.97,-0.91,2.64,0.00,0.00,1855.00,3696.00,1135.00,1362.00,1187.00,2358.00,4095.00,4095.00,,,,,,,,,,,,1,1,3,,-676,15628,3920,-330,390,76
37.711,37.52,0.34,-1.22,2.02,-1.66,3.68,3.12,-1.41,0.00,0.00,1724.00,3491.00,987.00,1286.00,1373.00,2241.00,4095.00,4095.00,,,,,,,,,,,,1,1,3,,-632,15476,3992,-384,229,8
37.773,37.57,0.37,1.94,-1.62,4.04,-1.58,0.89,-0.20,0.00,0.00,1983.00,3397.00,1183.00,1182.00,1339.00,2369.00,4095.00,4095.00,,,,,,,,,,,,1,1,3,,-500,15840,4076,-368,131,-111
37.816,37.63,0.33,0.07,0.16,1.33,-0.15,-0.28,1.71,0.00,0.00,1863.00,3487.00,1150.00,1266.00,1234.00,2358.00,4095.00,4095.00,,,,,,,,,,,,1,1,3,,-524,15672,4268,-323,75,-309
37.939,37.68,0.39,0.66,1.00,-0.42,2.14,1.48,0.34,0.00,0.00,1761.00,3331.00,1049.00,1276.00,1287.00,2282.00,4095.00,4095.00,,,,,,,,,,,,1,1,3,,-676,15552,4200,-143,-109,-340
37.959,37.74,0.50,1.92,0.04,1.26,1.36,2.54,-0.75,0.00,0.00,1813.00,3251.00,1061.00,1219.00,1339.00,2253.00,4095.00,4095.00,,,,,,,,,,,,1,1,3,,-732,15600,4224,-1,-30,-241
38.0,37.79,0.50,2.91,-0.67,4.39,-1.21,0.46,0.68,0.00,0.00,1850.00,3186.00,1152.00,1154.00,1287.00,2354.00,4095.00,4095.00,,,,,,,,,,,,1,1,3,,-748,15500,4192,-39,144,-117
38.042,37.85,0.47,0.77,0.45,-0.02,0.83,-0.00,2.11,0.00,0.00,1811.00,3366.00,1118.00,1301.00,1201.00,2307.00,4095.00,4095.00,,,,,,,,,,,,1,1,3,,-564,15676,4148,-10,265,63
38.103,37.90,0.64,1.05,1.05,0.11,2.70,3.79,-1.66,0.00,0.00,1744.00,3275.00,1008.00,1231.00,1375.00,2197.00,4095.00,4095.00,,,,,,,,,,,,1,1,3,,-540,15612,3960,-310,220,-11
38.165,37.96,0.61,3.96,-1.85,6.77,-2.76,0.16,0.64,0.00,0.00,1935.00,3155.00,1200.00,1095.00,1297.00,2385.00,4095.00,4095.00,,,,,,,,,,,,1,1,3,,-596,15776,4028,-146,191,-54
38.226,38.01,0.54,-0.28,0.67,-0.18,0.67,-0.85,3.02,0.00,0.00,1824.00,3488.00,1131.00,1315.00,1161.00,2328.00,4095.00,4095.00,,,,,,,,,,,,1,1,3,,-436,15548,4232,-288,133,-64
38.307,38.07,0.71,-0.39,2.08,-1.14,3.73,3.96,-1.82,0.00,0.00,1693.00,3373.00,975.00,1258.00,1383.00,2192.00,4095.00,4095.00,,,,,,,,,,,,1,1,3,,-600,15532,4220,-136,339,-175
38.327,38.12,0.70,3.89,-2.35,6.12,-2.54,0.56,0.10,0.00,0.00,1990.00,3206.00,1200.00,1117.00,1326.00,2382.00,4095.00,4095.00,,,,,,,,,,,,1,1,3,,-500,15692,3984,-141,357,-233
38.369,38.18,0.65,-0.18,0.00,0.95,-0.05,-0.26,1.72,0.00,0.00,1887.00,3536.00,1152.00,1282.00,1233.00,2356.00,4095.00,4095.00,,,,,,,,,,,,1,1,3,,-596,15484,4116,-160,-25,-176
38.451,38.23,0.71,-0.33,1.13,-0.11,1.90,1.83,0.08,0.00,0.00,1780.00,3451.00,1057.00,1269.00,1297.00,2266.00,4095.00,4095.00,,,,,,,,,,,,1,1,3,,-628,15624,4208,-156,30,-150
38.491,38.29,0.77,1.38,-0.74,2.56,0.16,1.78,-0.34,0.00,0.00,1910.00,3392.00,1106.00,1196.00,1328.00,2296.00,4095.00,4095.00,,,,,,,,,,,,1,1,3,,-512,15728,4188,-239,-24,-163
38.532,38.34,0.74,1.20,-0.41,3.68,-1.21,0.32,0.71,0.00,0.00,1882.00,3386.00,1167.00,1187.00,1288.00,2365.00,4095.00,4095.00,,,,,,,,,,,,1,1,3,,-660,15684,4272,-358,4,-443
38.593,38.40,0.71,0.77,0.30,0.33,0.66,0.08,1.83,0.00,0.00,1825.00,3379.00,1121.00,1289.00,1218.00,2317.00,4095.00,4095.00,,,,,,,,,,,,1,1,3,,-780,15460,4428,-233,74,-237
38.695,38.45,0.85,1.16,0.94,0.23,2.58,3.49,-1.52,0.00,0.00,1751.00,3271.00,1012.00,1229.00,1372.00,2215.00,4095.00,4095.00,,,,,,,,,,,,1,1,3,,-496,15648,4300,-272,289,-88
38.715,38.51,0.82,3.93,-1.70,6.45,-2.59,0.20,0.64,0.00,0.00,1920.00,3146.00,1196.00,1104.00,1296.00,2381.00,4095.00,4095.00,,,,,,,,,,,,1,1,3,,-436,15592,4096,-337,344,-109
38.756,38.56,0.75,0.43,0.41,-0.11,0.91,-0.48,2.79,0.00,0.00,1826.00,3415.00,1115.00,1303.00,1168.00,2309.00,4095.00,4095.00,,,,,,,,,,,,1,1,3,,-600,15624,4212,-93,48,-147
38.817,38.62,0.93,0.35,1.88,-0.44,3.48,4.32,-2.07,0.00,0.00,1689.00,3294.00,976.00,1232.00,1392.00,2175.00,4095.00,4095.00,,,,,,,,,,,,1,1,3,,-600,15640,4340,-142,-281,-424
38.877,38.67,0.90,4.67,-2.64,7.00,-3.10,0.36,0.36,0.00,0.00,1993.00,3133.00,1217.00,1095.00,1312.00,2384.00,4095.00,4095.00,,,,,,,,,,,,1,1,4,,-824,15444,4400,16,-41,-62
38.919,38.73,0.83,0.01,0.35,0.46,0.26,-0.59,2.30,0.00,0.00,1846.00,3478.00,1143.00,1296.00,1202.00,2350.00,4095.00,4095.00,,,,,,,,,,,,1,1,4,,-668,15608,4392,-52,260,155
39.043,38.78,0.90,0.34,1.00,-0.28,2.20,2.26,-0.28,0.00,0.00,1771.00,3373.00,1043.00,1267.00,1312.00,2249.00,4095.00,4095.00,,,,,,,,,,,,1,1,4,,-412,15604,4100,-326,379,-106
39.064,38.84,0.93,2.45,-1.08,3.55,-0.46,1.53,-0.22,0.00,0.00,1907.00,3280.00,1123.00,1169.00,1325.00,2311.00,4095.00,4095.00,,,,,,,,,,,,1,1,4,,-588,15760,4144,-158,-136,-334
39.105,38.89,0.89,0.59,-0.17,2.64,-0.63,0.08,1.06,0.00,0.00,1879.00,3447.00,1153.00,1218.00,1270.00,2366.00,4095.00,4095.00,,,,,,,,,,,,1,1,4,,-680,15444,4388,-133,-469,-503
39.147,38.95,0.85,0.01,0.08,0.30,0.48,0.04,1.63,0.00,0.00,1873.00,3503.00,1133.00,1297.00,1232.00,2333.00,4095.00,4095.00,,,,,,,,,,,,1,1,4,,-820,15264,4404,-87,-402,-293
39.208,39.00,0.94,-0.41,0.69,0.08,1.85,2.72,-1.10,0.00,0.00,1826.00,3504.00,1056.00,1261.00,1360.00,2258.00,4095.00,4095.00,,,,,,,,,,,,1,1,4,,-556,15636,4588,5,226,37
39.269,39.06,0.87,1.52,-1.47,4.76,-2.36,-0.36,0.83,0.00,0.00,1982.00,3440.00,1218.00,1173.00,1296.00,2422.00,4095.00,4095.00,,,,,,,,,,,,1,1,4,,-300,15880,4272,298,717,-129
