Time_Host,Time_Arduino,easingdata,CH1_Oxy,CH1_Deoxy,CH2_Oxy,CH2_Deoxy,CH3_Oxy,CH3_Deoxy,CH4_Oxy,CH4_Deoxy,CH1_PD730,CH1_PD850,CH2_PD730,CH2_PD850,CH3_PD730,CH3_PD850,CH4_PD730,CH4_PD850,Answers,airplane_playstate,trail_times,frameRate,Airplane X,Airplane Y,Correct,Wrong,Slow,AnswerRate,CorrectRate,VFTstates,VFTchoose,VFTCount,Culfstates,ax,ay,az,gx,gy,gz
1.136,0.04,0.00,0.00,0.00,0.00,0.00,0.00,0.00,0.00,0.00,195.00,432.00,177.00,163.00,448.00,945.00,429.00,779.00,,,,,,,,,,,,0,0,0,,-3504,15840,-100,1180,166,61
1.178,0.10,0.00,0.00,0.00,0.00,0.00,0.00,0.00,0.00,0.00,159.00,457.00,117.00,241.00,406.00,868.00,453.00,697.00,,,,,,,,,,,,0,0,0,,-3468,15696,-364,1386,287,142
1.199,0.15,0.00,0.00,0.00,0.00,0.00,0.00,0.00,0.00,0.00,173.00,421.00,80.00,188.00,485.00,817.00,496.00,715.00,,,,,,,,,,,,0,0,0,,-3316,15788,-948,1167,330,319
1.22,0.21,0.00,0.00,0.00,0.00,0.00,0.00,0.00,0.00,0.00,196.00,401.00,158.00,129.00,448.00,905.00,446.00,741.00,,,,,,,,,,,,0,0,0,,-3376,15748,-1088,582,366,265
1.24,0.26,0.00,0.00,0.00,0.00,0.00,0.00,0.00,0.00,0.00,176.00,429.00,140.00,182.00,390.00,912.00,445.00,710.00,,,,,,,,,,,,0,0,0,,-3272,15932,-992,-39,469,193
1.26,1.07,0.00,0.00,0.00,0.00,0.00,0.00,0.00,0.00,0.00,169.00,431.00,80.00,213.00,467.00,830.00,462.00,703.00,,,,,,,,,,,,0,0,0,,-2752,15980,-484,-184,273,-57
1.281,1.13,0.00,0.00,0.00,0.00,0.00,0.00,0.00,0.00,0.00,216.00,423.00,198.00,142.00,449.00,970.00,432.00,774.00,,,,,,,,,,,,0,0,0,,-2816,16004,-340,-158,162,-44
1.342,1.18,0.00,0.00,0.00,0.00,0.00,0.00,0.00,0.00,0.00,159.00,448.00,114.00,254.00,411.00,911.00,459.00,734.00,,,,,,,,,,,,0,0,0,,-2916,16116,-332,-190,222,-35
1.363,1.24,0.00,0.00,0.00,0.00,0.00,0.00,0.00,0.00,0.00,158.00,433.00,73.00,209.00,462.00,837.00,458.00,705.00,,,,,,,,,,,,0,0,0,,-2820,15976,-212,-182,199,-60
1.445,1.29,0.00,0.00,0.00,0.00,0.00,0.00,0.00,0.00,0.00,183.00,414.00,138.00,128.00,483.00,910.00,470.00,738.00,,,,,,,,,,,,0,0,0,,-2752,15956,-292,-126,112,12
1.466,1.35,-0.20,-1.40,1.80,-2.57,-0.60,-4.05,3.84,-2.44,2.48,166.00,432.00,138.00,208.00,389.00,943.00,416.00,752.00,,,,,,,,,,,,0,0,0,,-2676,16116,-372,-176,53,-18
1.527,1.40,-0.11,-7.72,9.02,-16.03,14.70,1.60,-1.27,1.82,-1.09,126.00,457.00,77.00,235.00,463.00,865.00,467.00,699.00,,,,,,,,,,,,0,0,0,,-2732,16072,-304,-218,-76,-114
1.588,1.46,-0.04,3.72,-2.61,9.08,-3.56,1.25,-2.98,-0.60,-0.44,192.00,397.00,131.00,142.00,511.00,918.00,471.00,756.00,,,,,,,,,,,,0,0,0,,-2736,16160,-292,-107,-209,-86
1.648,1.51,-0.21,-1.99,-0.00,5.74,-7.89,-3.44,1.70,-2.08,1.15,185.00,464.00,176.00,182.00,432.00,975.00,444.00,768.00,,,,,,,,,,,,0,0,0,,-2704,16108,-200,-229,-284,-104
1.689,1.57,-0.22,-5.21,4.83,-16.71,8.52,-0.34,0.15,1.61,-0.94,151.00,463.00,109.00,285.00,444.00,899.00,465.00,702.00,,,,,,,,,,,,0,0,0,,-2752,15984,-200,-289,-296,-79
1.75,1.62,-0.04,0.53,-0.45,-4.47,6.18,3.35,-4.50,1.51,-2.51,181.00,425.00,99.00,187.00,534.00,880.00,507.00,735.00,,,,,,,,,,,,0,0,0,,-2656,16092,-140,-210,-156,-35
1.791,1.68,-0.18,2.25,-3.59,17.17,-13.04,-2.80,0.94,-2.42,1.52,208.00,432.00,189.00,133.00,445.00,970.00,438.00,771.00,,,,,,,,,,,,0,0,0,,-2644,16124,-132,-181,13,-152
1.893,1.73,-0.27,-4.57,5.11,-7.27,1.95,-1.98,2.00,-0.61,0.82,147.00,448.00,131.00,234.00,414.00,913.00,440.00,731.00,,,,,,,,,,,,0,0,0,,-2672,16148,-236,-91,86,-193
1.914,1.79,-0.14,-2.47,4.16,-13.08,16.56,2.24,-1.53,0.76,0.15,149.00,423.00,66.00,199.00,464.00,849.00,445.00,705.00,,,,,,,,,,,,0,0,0,,-2668,16088,-240,-73,-1,-229
1.957,1.84,-0.15,2.98,-0.75,18.93,-14.21,-0.26,-1.35,-0.30,-0.14,176.00,389.00,195.00,128.00,481.00,933.00,461.00,741.00,,,,,,,,,,,,0,0,0,,-2680,16116,-160,-81,-105,-213
2.019,1.90,-0.33,0.05,-1.28,0.27,-3.70,-3.65,3.80,-1.46,1.88,191.00,443.00,155.00,202.00,387.00,929.00,422.00,735.00,,,,,,,,,,,,0,0,0,,-2808,16064,-144,-17,-110,-307
2.081,1.95,-0.24,-6.53,9.37,-14.96,15.08,1.30,-1.05,2.14,-1.08,121.00,432.00,74.00,223.00,460.00,870.00,464.00,690.00,,,,,,,,,,,,0,0,0,,-2772,16100,-236,-64,-135,-356
2.124,2.01,-0.16,2.87,-1.64,9.36,-4.74,1.47,-3.05,0.16,-1.12,185.00,400.00,139.00,145.00,511.00,912.00,482.00,747.00,,,,,,,,,,,,0,0,0,,-2744,16028,-312,-12,-177,-306
2.185,2.06,-0.32,-0.81,-0.10,4.78,-7.87,-3.42,1.02,-2.43,1.19,182.00,444.00,179.00,189.00,448.00,992.00,446.00,778.00,,,,,,,,,,,,0,0,0,,-2740,15976,-148,-65,-111,-322
2.267,2.12,-0.37,-4.21,3.20,-14.63,6.51,-1.38,0.46,-0.06,0.23,162.00,465.00,117.00,277.00,445.00,929.00,450.00,727.00,,,,,,,,,,,,0,0,0,,-2812,16036,-268,-108,-62,-366
2.287,2.17,-0.24,-0.54,1.40,-3.65,5.17,2.24,-3.95,1.47,-2.23,167.00,422.00,103.00,186.00,529.00,906.00,500.00,731.00,,,,,,,,,,,,0,0,0,,-2836,15976,-104,-60,-118,-338
2.369,2.23,-0.35,3.33,-4.04,8.61,-9.57,-2.45,-0.15,-1.28,-0.17,209.00,419.00,183.00,170.00,469.00,985.00,470.00,771.00,,,,,,,,,,,,0,0,0,,-2784,16244,-176,-95,-86,-342
2.41,2.28,-0.51,-3.01,1.26,-8.63,2.54,-3.44,2.99,0.19,0.26,176.00,467.00,130.00,243.00,403.00,942.00,447.00,719.00,,,,,,,,,,,,0,0,0,,-2916,15924,-140,-158,-116,-503
2.471,2.34,-0.39,-3.82,5.37,-13.81,13.72,1.94,-1.39,1.26,-0.59,143.00,432.00,78.00,221.00,463.00,856.00,459.00,705.00,,,,,,,,,,,,0,0,0,,-3052,15972,-276,55,-159,-446
2.512,2.39,-0.40,1.60,0.25,11.34,-3.60,-0.71,-1.09,-0.69,0.64,171.00,400.00,126.00,130.00,478.00,943.00,445.00,737.00,,,,,,,,,,,,0,0,0,,-2936,15964,-328,222,35,-447
2.574,2.45,-0.59,-0.97,0.06,-1.08,-1.88,-4.15,3.36,-2.02,1.85,181.00,445.00,144.00,203.00,400.00,959.00,427.00,752.00,,,,,,,,,,,,0,0,0,,-3048,15960,-140,-114,67,-390
2.636,2.50,-0.52,-6.80,7.99,-18.00,17.94,0.72,-0.37,2.01,-1.16,131.00,453.00,67.00,233.00,448.00,874.00,467.00,695.00,,,,,,,,,,,,0,0,0,,-3028,16084,-184,-133,107,-269
2.676,2.56,-0.40,3.07,-2.49,0.60,1.39,1.86,-3.18,0.91,-1.41,193.00,406.00,117.00,174.00,511.00,901.00,483.00,731.00,,,,,,,,,,,,0,0,0,,-3004,16012,-376,63,6,-282
2.739,2.61,-0.58,-0.32,-1.15,7.93,-9.64,-4.01,1.89,-2.54,1.31,191.00,448.00,186.00,175.00,432.00,992.00,444.00,779.00,,,,,,,,,,,,0,0,0,,-2956,16048,-340,27,46,-412
2.799,2.67,-0.64,-5.10,4.19,-13.48,5.50,-1.78,1.57,0.50,-0.81,156.00,469.00,121.00,272.00,422.00,916.00,471.00,731.00,,,,,,,,,,,,0,0,0,,-2944,16004,-268,-54,47,-548
2.861,2.72,-0.48,-0.26,0.55,-5.03,5.63,2.60,-3.40,1.52,-2.10,174.00,427.00,103.00,194.00,510.00,880.00,496.00,727.00,,,,,,,,,,,,0,0,0,,-3036,16216,-88,-75,-58,-704
2.903,2.78,-0.54,4.12,-4.48,13.73,-11.19,-1.67,-0.61,-1.91,1.05,211.00,411.00,182.00,145.00,474.00,967.00,445.00,765.00,,,,,,,,,,,,0,0,0,,-3092,16028,-352,403,-263,-1006
3.025,2.83,-0.65,-1.24,0.46,-3.79,-0.71,-2.79,2.18,-0.02,-0.20,178.00,445.00,142.00,219.00,416.00,938.00,460.00,734.00,,,,,,,,,,,,0,0,0,,-3220,15856,-456,588,-504,-861
3.045,2.89,-0.53,-4.38,5.43,-18.53,19.85,1.90,-1.41,1.29,-1.31,144.00,441.00,61.00,226.00,464.00,858.00,477.00,718.00,,,,,,,,,,,,0,0,0,,-3296,15796,-252,435,-578,-751
3.066,2.94,-0.51,4.38,-2.34,17.99,-6.83,-0.23,-1.48,-0.98,-0.03,187.00,384.00,133.00,109.00,484.00,935.00,464.00,759.00,,,,,,,,,,,,0,0,0,,-3400,15872,-472,297,-316,-640
3.127,3.00,-0.71,-0.77,-0.90,1.37,-6.41,-4.45,3.65,-3.16,1.98,190.00,453.00,176.00,208.00,396.00,963.00,433.00,784.00,,,,,,,,,,,,0,0,0,,-3440,16024,-412,243,-127,-561
3.168,3.05,-0.70,-6.10,6.79,-19.69,16.92,-0.45,-0.26,0.30,-0.82,138.00,455.00,73.00,256.00,455.00,913.00,473.00,737.00,,,,,,,,,,,,0,0,0,,-3708,15800,-648,99,-173,-761
3.23,3.11,-0.56,1.08,-0.63,-1.38,4.95,1.96,-3.82,-0.10,-1.22,181.00,418.00,100.00,171.00,528.00,913.00,487.00,757.00,,,,,,,,,,,,0,0,0,,-3680,15652,-248,-147,-147,-564
3.292,3.16,-0.71,1.33,-2.83,8.79,-9.83,-3.57,0.91,-2.14,0.48,203.00,439.00,185.00,170.00,452.00,1001.00,461.00,784.00,,,,,,,,,,,,0,0,0,,-3668,15868,-24,25,283,-458
3.355,3.22,-0.75,-4.21,3.20,-14.63,8.16,-1.45,1.38,0.42,-0.74,162.00,465.00,107.00,265.00,424.00,909.00,470.00,732.00,,,,,,,,,,,,0,0,0,,-3768,15812,-396,201,338,-426
3.394,3.27,-0.52,-0.83,0.95,-4.40,8.75,3.83,-4.49,0.26,-1.45,172.00,432.00,86.00,174.00,529.00,863.00,490.00,751.00,,,,,,,,,,,,0,0,0,,-3776,15884,-552,475,319,-408
3.456,3.33,-0.53,3.73,-3.55,12.08,-10.01,-0.78,-0.95,-1.85,0.91,202.00,407.00,176.00,150.00,475.00,942.00,448.00,766.00,,,,,,,,,,,,0,0,0,,-3832,15732,-696,641,370,-336
3.498,3.38,-0.63,-0.68,0.48,-3.79,1.20,-2.46,2.70,-0.72,0.08,176.00,435.00,128.00,208.00,402.00,913.00,459.00,749.00,,,,,,,,,,,,0,0,0,,-3932,15768,-1008,719,415,-222
3.558,3.44,-0.47,-3.40,3.98,-17.49,21.41,2.63,-1.66,1.11,-1.40,153.00,441.00,55.00,208.00,464.00,839.00,481.00,725.00,,,,,,,,,,,,0,0,0,,-3916,15620,-1056,571,440,-43
3.618,3.49,-0.39,4.39,-3.02,10.48,-3.45,0.99,-2.30,-0.73,-0.59,194.00,391.00,127.00,134.00,495.00,911.00,476.00,763.00,,,,,,,,,,,,0,0,0,,-3844,15716,-1200,114,408,81
3.741,3.55,-0.60,-1.30,-1.02,1.91,-4.60,-4.56,3.50,-3.35,2.17,193.00,464.00,158.00,194.00,400.00,971.00,430.00,786.00,,,,,,,,,,,,0,0,0,,-3752,15792,-848,-85,383,52
3.762,3.60,-0.57,-7.44,8.21,-20.55,19.07,0.08,-0.68,0.61,-0.76,131.00,462.00,66.00,250.00,461.00,904.00,469.00,727.00,,,,,,,,,,,,0,0,0,,-3684,15752,-1040,-200,180,-2
3.804,3.66,-0.44,2.03,-2.04,-0.70,1.82,1.93,-4.02,-0.27,-1.76,192.00,418.00,117.00,181.00,534.00,919.00,503.00,773.00,,,,,,,,,,,,0,0,0,,-3740,15872,-820,-229,61,30
3.844,3.71,-0.63,-0.63,-1.43,9.39,-10.72,-4.23,1.59,-2.44,0.03,195.00,457.00,192.00,170.00,441.00,1009.00,475.00,803.00,,,,,,,,,,,,0,0,0,,-3756,15728,-772,-103,228,84
3.886,3.77,-0.66,-6.22,3.76,-16.38,7.90,-1.26,0.92,0.17,-1.27,163.00,496.00,112.00,286.00,433.00,913.00,486.00,750.00,,,,,,,,,,,,0,0,0,,-3680,15928,-856,-119,456,77
3.946,3.82,-0.48,-1.77,1.49,-11.73,12.55,3.12,-3.61,1.20,-2.55,170.00,442.00,80.00,210.00,511.00,867.00,511.00,745.00,,,,,,,,,,,,0,0,0,,-3660,15696,-972,-170,405,178
4.007,3.88,-0.51,2.25,-3.59,16.51,-11.51,-1.20,0.07,-0.80,-0.09,208.00,432.00,176.00,131.00,453.00,932.00,464.00,755.00,,,,,,,,,,,,0,0,0,,-3660,15768,-684,7,435,244
4.131,3.93,-0.62,-1.55,0.67,-2.19,-1.51,-2.68,2.82,-0.31,-0.22,177.00,448.00,144.00,210.00,401.00,918.00,463.00,743.00,,,,,,,,,,,,0,0,0,,-3472,15928,-932,35,598,241
4.152,3.99,-0.41,-4.12,5.21,-21.49,24.89,3.53,-2.36,1.01,-0.74,145.00,439.00,49.00,222.00,474.00,825.00,465.00,715.00,,,,,,,,,,,,0,0,0,,-3360,15952,-928,169,568,268
4.172,4.04,-0.35,4.90,-2.62,16.66,-7.20,0.93,-2.51,0.41,-1.73,188.00,379.00,139.00,116.00,501.00,918.00,496.00,752.00,,,,,,,,,,,,0,0,0,,-3400,15972,-1048,227,450,183
4.212,4.10,-0.52,-1.81,-0.26,2.68,-5.55,-3.75,2.72,-2.73,1.88,187.00,464.00,164.00,193.00,411.00,960.00,432.00,773.00,,,,,,,,,,,,0,0,0,,-3372,15984,-1164,152,407,68
4.293,4.15,-0.49,-5.04,5.40,-13.55,9.80,0.08,-0.76,1.02,-1.52,146.00,453.00,96.00,243.00,463.00,906.00,485.00,730.00,,,,,,,,,,,,0,0,0,,-3352,15952,-1204,129,354,2
4.333,4.21,-0.35,1.89,-2.18,-0.60,1.48,2.15,-4.06,0.27,-2.02,194.00,422.00,119.00,182.00,533.00,912.00,505.00,762.00,,,,,,,,,,,,0,0,0,,-3308,15888,-1336,-13,160,-36
4.395,4.26,-0.53,0.81,-3.72,10.09,-13.04,-3.80,0.99,-3.81,1.44,215.00,459.00,215.00,176.00,452.00,1008.00,451.00,816.00,,,,,,,,,,,,0,0,0,,-3428,15864,-1292,-36,41,12
4.477,4.32,-0.61,-4.13,1.12,-13.07,6.14,-2.13,1.56,-0.23,-0.28,181.00,490.00,116.00,263.00,425.00,929.00,464.00,742.00,,,,,,,,,,,,0,0,0,,-3264,15868,-1208,-123,57,26
4.497,4.37,-0.44,-1.86,1.95,-6.22,9.15,2.77,-3.34,0.38,-1.98,166.00,438.00,87.00,185.00,507.00,873.00,503.00,758.00,,,,,,,,,,,,0,0,0,,-3292,15892,-1132,-194,84,33
4.539,4.43,-0.43,2.41,-3.64,12.43,-9.28,-0.31,-1.64,-1.86,0.83,208.00,430.00,168.00,145.00,489.00,942.00,450.00,768.00,,,,,,,,,,,,0,0,0,,-3208,15944,-1164,-125,124,-21
4.6,4.48,-0.63,-1.54,0.56,-5.85,-0.79,-4.50,4.18,-2.31,0.82,178.00,449.00,148.00,238.00,385.00,951.00,454.00,782.00,,,,,,,,,,,,0,0,0,,-3352,15996,-1220,-209,109,-39
4.662,4.54,-0.49,-6.43,7.45,-21.08,25.13,2.31,-2.37,1.58,-2.20,134.00,453.00,48.00,217.00,485.00,866.00,498.00,727.00,,,,,,,,,,,,0,0,0,,-3328,15944,-1092,-375,2,-84
4.724,4.59,-0.44,5.80,-4.34,8.25,-2.85,0.44,-2.27,-2.35,1.08,203.00,383.00,128.00,144.00,499.00,930.00,448.00,778.00,,,,,,,,,,,,0,0,0,,-3264,15904,-924,-301,-51,-127
4.764,4.65,-0.60,-0.02,-2.74,3.41,-7.20,-3.62,1.85,-1.80,0.65,207.00,462.00,177.00,196.00,430.00,978.00,454.00,770.00,,,,,,,,,,,,0,0,0,,-3224,15988,-964,-197,69,-162
4.826,4.70,-0.60,-5.39,5.01,-11.65,7.16,-0.70,0.15,0.53,-1.36,150.00,464.00,107.00,242.00,447.00,912.00,485.00,741.00,,,,,,,,,,,,0,0,0,,-3388,15980,-1084,-156,99,-107
4.889,4.76,-0.46,1.01,-1.50,-1.58,2.93,2.24,-3.95,-0.35,-1.88,190.00,429.00,112.00,182.00,529.00,906.00,507.00,778.00,,,,,,,,,,,,0,0,0,,-3312,15896,-1112,-74,157,-115
4.93,4.81,-0.62,1.61,-4.33,12.10,-14.72,-3.62,0.72,-3.31,1.40,219.00,452.00,227.00,170.00,457.00,1008.00,448.00,801.00,,,,,,,,,,,,0,0,0,,-3288,15952,-1192,-141,200,-132
4.992,4.87,-0.74,-4.11,1.63,-10.84,3.58,-2.99,2.47,0.51,-1.43,176.00,483.00,128.00,258.00,411.00,938.00,487.00,743.00,,,,,,,,,,,,0,0,0,,-3312,15944,-1032,-164,-2,-168
5.055,4.92,-0.56,-0.72,0.70,-10.82,12.48,2.76,-4.27,0.33,-2.25,174.00,433.00,79.00,203.00,533.00,895.00,511.00,765.00,,,,,,,,,,,,0,0,0,,-3196,15988,-984,-19,-136,-91
5.119,4.98,-0.60,1.78,-2.89,11.03,-8.47,-1.26,-0.75,-1.49,-0.49,202.00,432.00,165.00,150.00,474.00,955.00,480.00,784.00,,,,,,,,,,,,0,0,0,,-3292,15840,-1004,38,-164,-91
5.199,5.03,-0.76,-1.25,0.05,-2.96,-1.25,-3.89,3.37,-2.32,1.02,182.00,450.00,144.00,215.00,398.00,949.00,449.00,778.00,,,,,,,,,,,,0,0,0,,-3260,15960,-916,-42,-52,7
5.219,5.09,-0.62,-8.27,9.35,-23.53,24.84,2.19,-2.10,3.62,-2.55,125.00,463.00,51.00,241.00,479.00,864.00,489.00,677.00,,,,,,,,,,,,0,0,0,,-3124,16012,-1100,-182,80,-3
5.261,5.14,-0.61,3.81,-3.58,8.62,-3.40,-0.52,-1.79,-0.96,-1.27,202.00,406.00,131.00,144.00,495.00,954.00,496.00,784.00,,,,,,,,,,,,0,0,0,,-3172,16108,-1168,-205,47,-101
5.324,5.20,-0.76,-1.87,-0.73,1.85,-6.57,-3.50,1.26,-3.92,1.56,192.00,471.00,176.00,205.00,443.00,989.00,449.00,817.00,,,,,,,,,,,,0,0,0,,-3108,16052,-948,-212,22,-321
5.449,5.25,-0.74,-4.24,3.32,-12.16,5.52,-0.53,-0.60,-0.14,-1.66,161.00,464.00,118.00,258.00,464.00,924.00,499.00,767.00,,,,,,,,,,,,0,0,0,,-3332,15908,-876,-175,-10,-304
5.47,5.31,-0.58,1.15,-2.22,-2.46,2.41,2.62,-4.80,0.27,-2.84,197.00,435.00,117.00,191.00,550.00,913.00,528.00,779.00,,,,,,,,,,,,0,0,0,,-3360,15836,-1060,-34,6,-223
5.49,5.36,-0.74,1.32,-4.14,10.23,-12.39,-3.83,0.55,-4.02,0.99,218.00,455.00,207.00,172.00,463.00,1021.00,464.00,833.00,,,,,,,,,,,,0,0,0,,-3352,15920,-980,-137,125,-79
5.592,5.42,-0.85,-5.26,2.34,-14.19,6.68,-2.99,2.16,-0.85,-0.11,173.00,496.00,115.00,271.00,418.00,946.00,465.00,757.00,,,,,,,,,,,,0,0,0,,-3164,15964,-960,-226,215,46
5.612,5.47,-0.68,-2.50,1.73,-13.40,13.11,2.52,-3.41,-0.03,-1.77,170.00,452.00,80.00,221.00,511.00,883.00,501.00,766.00,,,,,,,,,,,,0,0,0,,-3148,15936,-1064,-309,186,-170
5.654,5.53,-0.70,0.07,-0.29,9.48,-5.69,-1.00,-1.45,-2.62,0.52,181.00,431.00,146.00,148.00,490.00,963.00,464.00,798.00,,,,,,,,,,,,0,0,0,,-3252,16008,-880,-314,-11,-234
5.717,5.58,-0.84,-2.52,0.79,-3.04,-0.97,-3.57,2.89,-3.21,1.91,179.00,464.00,142.00,214.00,406.00,949.00,435.00,787.00,,,,,,,,,,,,0,0,0,,-3348,15936,-752,-186,-2,-312
5.778,5.64,-0.71,-5.46,6.18,-23.85,25.31,1.78,-2.27,0.65,-1.28,141.00,451.00,50.00,241.00,487.00,882.00,482.00,736.00,,,,,,,,,,,,0,0,0,,-3348,15960,-788,-174,40,-307
5.819,5.69,-0.66,1.78,-1.66,9.37,-6.03,0.21,-2.52,-0.84,-1.53,189.00,418.00,149.00,150.00,508.00,945.00,502.00,786.00,,,,,,,,,,,,0,0,0,,-3460,15856,-812,-131,56,-226
5.879,5.75,-0.83,-0.96,-1.60,0.33,-4.87,-3.89,1.30,-3.60,1.05,198.00,465.00,165.00,208.00,445.00,1003.00,459.00,818.00,,,,,,,,,,,,0,0,0,,-3228,15864,-804,-194,182,-160
5.94,5.80,-0.84,-4.04,3.03,-13.88,7.06,-1.02,-0.39,-0.50,-1.28,163.00,464.00,112.00,265.00,463.00,937.00,492.00,770.00,,,,,,,,,,,,0,0,0,,-3412,15880,-896,-254,151,-89
6.003,5.86,-0.69,0.05,-1.28,-2.16,1.39,2.06,-4.78,-0.34,-2.98,191.00,443.00,123.00,194.00,555.00,933.00,538.00,801.00,,,,,,,,,,,,0,0,0,,-3296,15892,-700,-208,104,-103
6.043,5.91,-0.86,0.83,-4.32,7.74,-11.64,-4.05,0.15,-4.42,1.05,222.00,466.00,208.00,186.00,475.00,1041.00,466.00,845.00,,,,,,,,,,,,0,0,0,,-3252,16064,-888,-186,173,-174
6.103,5.97,-0.94,-6.12,3.39,-14.43,4.64,-2.51,1.60,-1.38,-0.01,166.00,499.00,129.00,289.00,427.00,942.00,467.00,771.00,,,,,,,,,,,,0,0,0,,-3448,15892,-760,-297,7,-210
6.165,6.02,-0.83,-1.95,1.33,-11.62,12.75,1.31,-2.38,-1.09,-1.08,172.00,447.00,79.00,208.00,494.00,901.00,492.00,784.00,,,,,,,,,,,,0,0,0,,-3304,15956,-848,-240,-53,-137
6.206,6.08,-0.85,1.12,-1.05,10.73,-5.98,-1.30,-1.35,-1.04,-0.52,185.00,422.00,145.00,142.00,490.00,972.00,477.00,771.00,,,,,,,,,,,,0,0,0,,-3300,16008,-824,-249,156,-113
6.328,6.13,-1.03,-2.13,0.45,-2.21,-3.22,-4.40,3.26,-2.61,1.16,181.00,461.00,158.00,220.00,404.00,971.00,448.00,784.00,,,,,,,,,,,,0,0,0,,-3336,15924,-828,-293,150,-81
6.349,6.19,-0.91,-8.21,9.18,-19.99,19.45,1.38,-1.63,0.33,-1.67,126.00,464.00,64.00,242.00,474.00,881.00,495.00,753.00,,,,,,,,,,,,0,0,0,,-3368,15940,-860,-156,97,-149
6.369,6.24,-0.85,3.47,-2.43,6.51,-2.55,0.34,-2.67,-0.39,-2.01,191.00,399.00,130.00,153.00,511.00,944.00,511.00,782.00,,,,,,,,,,,,0,0,0,,-3372,15896,-572,-265,132,-144
6.409,6.30,-0.99,-1.97,-0.50,1.06,-6.31,-3.80,1.36,-3.06,0.67,190.00,470.00,176.00,210.00,443.00,998.00,464.00,809.00,,,,,,,,,,,,0,0,0,,-3276,15988,-772,-269,84,-155
6.47,6.35,-1.02,-5.17,3.98,-16.01,9.51,-1.41,0.10,-0.43,-1.03,158.00,473.00,102.00,270.00,454.00,939.00,485.00,763.00,,,,,,,,,,,,0,0,0,,-3384,15928,-764,-197,115,-181
6.533,6.41,-0.86,0.10,-0.50,-4.84,4.02,2.03,-4.73,0.08,-3.09,183.00,433.00,112.00,201.00,554.00,933.00,537.00,790.00,,,,,,,,,,,,0,0,0,,-3308,15924,-564,-264,63,-142
6.593,6.46,-1.02,0.36,-3.31,12.06,-15.74,-4.07,0.39,-4.27,0.96,212.00,462.00,240.00,175.00,469.00,1035.00,467.00,842.00,,,,,,,,,,,,0,0,0,,-3312,15932,-624,-273,160,-108
6.695,6.52,-1.11,-6.32,3.46,-14.13,4.97,-2.79,1.74,-0.82,-0.94,166.00,502.00,126.00,283.00,426.00,949.00,486.00,773.00,,,,,,,,,,,,0,0,0,,-3320,15928,-744,-291,193,-97
6.737,6.57,-0.99,-2.86,1.85,-13.98,13.31,1.28,-2.73,-0.72,-1.75,170.00,457.00,80.00,225.00,504.00,911.00,507.00,787.00,,,,,,,,,,,,0,0,0,,-3324,15948,-680,-327,171,-58
6.756,6.63,-1.02,0.47,-0.53,10.69,-6.96,-1.64,-1.04,-1.94,-0.72,182.00,427.00,153.00,146.00,485.00,977.00,490.00,803.00,,,,,,,,,,,,0,0,0,,-3244,16004,-440,-312,298,-12
6.839,6.68,-1.20,-2.08,-0.27,-6.43,-0.08,-4.61,3.38,-2.97,0.76,188.00,469.00,144.00,239.00,403.00,976.00,461.00,804.00,,,,,,,,,,,,0,0,0,,-3256,16036,-768,-398,255,-225
6.859,6.74,-1.11,-6.86,7.18,-17.44,16.17,0.59,-0.97,0.31,-1.43,137.00,464.00,73.00,239.00,464.00,893.00,489.00,749.00,,,,,,,,,,,,0,0,0,,-3308,15880,-640,-349,146,-163
6.921,6.79,-1.03,4.30,-3.74,9.26,-5.10,0.49,-3.33,-1.09,-1.60,202.00,400.00,142.00,147.00,528.00,955.00,506.00,795.00,,,,,,,,,,,,0,0,0,,-3200,15916,-400,-195,83,-35
6.961,6.85,-1.18,-1.38,-0.89,3.92,-7.37,-3.98,1.63,-3.62,1.22,192.00,464.00,177.00,193.00,438.00,998.00,455.00,815.00,,,,,,,,,,,,0,0,0,,-3244,15972,-508,-248,196,-93
7.043,6.90,-1.18,-5.79,3.96,-10.97,3.19,-1.13,-0.08,0.34,-1.78,160.00,485.00,131.00,262.00,456.00,933.00,498.00,755.00,,,,,,,,,,,,0,0,0,,-3308,15868,-468,-141,167,-51
7.105,6.96,-1.00,-0.87,-0.18,-4.07,2.33,2.49,-4.72,0.13,-2.96,183.00,446.00,121.00,204.00,549.00,916.00,533.00,786.00,,,,,,,,,,,,0,0,0,,-3264,15968,-448,-116,83,-129
7.147,7.01,-1.12,0.42,-3.06,9.55,-12.25,-3.55,0.54,-3.35,0.76,209.00,458.00,208.00,176.00,461.00,1010.00,464.00,816.00,,,,,,,,,,,,0,0,0,,-3236,15932,-396,-158,40,-168
7.21,7.07,-1.18,-2.50,-0.90,-11.71,2.88,-2.35,1.29,-0.41,-0.62,196.00,485.00,135.00,272.00,433.00,944.00,474.00,754.00,,,,,,,,,,,,0,0,0,,-3292,15900,-540,-47,72,-229
7.273,7.12,-1.06,-4.17,3.30,-9.74,10.33,1.25,-2.69,-0.96,-1.27,161.00,463.00,87.00,206.00,503.00,911.00,496.00,784.00,,,,,,,,,,,,0,0,0,,-3404,15888,-484,-71,113,-184
7.315,7.18,-1.09,0.99,-1.20,11.52,-8.18,-1.64,-1.38,-2.54,0.45,187.00,426.00,161.00,146.00,494.00,986.00,465.00,797.00,,,,,,,,,,,,0,0,0,,-3312,15916,-464,-125,193,-136
7.419,7.23,-1.26,-2.79,1.19,-1.77,-3.01,-4.38,2.85,-2.50,0.72,176.00,464.00,155.00,215.00,413.00,981.00,458.00,790.00,,,,,,,,,,,,0,0,0,,-3416,15916,-484,-77,131,-77
7.439,7.29,-1.16,-7.76,8.03,-22.22,21.09,0.69,-1.90,0.40,-1.76,133.00,470.00,61.00,253.00,487.00,912.00,497.00,753.00,,,,,,,,,,,,0,0,0,,-3144,16056,-500,-163,81,-112
7.5,7.34,-1.15,3.33,-3.04,3.26,-1.45,-1.00,-1.60,-1.33,-1.51,198.00,408.00,130.00,169.00,494.00,967.00,506.00,801.00,,,,,,,,,,,,0,0,0,,-3248,15896,-356,-77,53,-120
7.521,7.40,-1.29,-1.96,-0.60,-0.95,-4.21,-3.92,0.95,-3.77,0.36,191.00,471.00,163.00,215.00,454.00,1014.00,478.00,839.00,,,,,,,,,,,,0,0,0,,-3212,15988,-436,-115,136,-88
7.582,7.45,-1.32,-5.59,3.89,-13.46,5.19,-1.92,-0.09,-2.77,1.26,160.00,482.00,123.00,274.00,463.00,963.00,447.00,787.00,,,,,,,,,,,,0,0,0,,-3160,15992,-428,-219,74,-255
7.622,7.51,-1.16,0.34,-2.04,-5.58,5.11,1.89,-4.88,-0.04,-2.91,198.00,447.00,107.00,201.00,560.00,942.00,533.00,790.00,,,,,,,,,,,,0,0,0,,-3228,15996,-396,-126,-90,-167
7.685,7.56,-1.32,2.26,-5.45,10.80,-13.45,-4.26,1.27,-3.14,0.18,230.00,454.00,217.00,173.00,449.00,1019.00,477.00,822.00,,,,,,,,,,,,0,0,0,,-3244,15820,-400,4,149,-107
7.786,7.62,-1.37,-5.45,2.61,-13.63,4.37,-2.40,0.97,-0.87,-1.11,171.00,496.00,129.00,282.00,441.00,954.00,491.00,778.00,,,,,,,,,,,,0,0,0,,-3268,15920,-440,-146,216,-142
7.807,7.67,-1.23,-2.45,2.15,-14.69,17.10,1.37,-2.13,-0.77,-1.26,166.00,446.00,66.00,209.00,487.00,893.00,494.00,778.00,,,,,,,,,,,,0,0,0,,-3212,16068,-480,26,102,-94
7.849,7.73,-1.22,0.83,-1.15,7.95,-4.66,-1.07,-1.61,-1.83,-0.45,187.00,428.00,142.00,153.00,495.00,970.00,482.00,794.00,,,,,,,,,,,,0,0,0,,-3120,15868,-464,-106,131,-211
7.911,7.78,-1.43,-2.09,0.23,-2.60,-3.32,-5.29,3.74,-2.97,1.04,183.00,463.00,160.00,224.00,400.00,993.00,454.00,798.00,,,,,,,,,,,,0,0,0,,-3212,15920,-488,-103,96,-181
7.952,7.84,-1.31,-8.55,9.45,-19.24,17.28,1.01,-1.55,0.29,-1.65,125.00,467.00,71.00,249.00,475.00,892.00,495.00,754.00,,,,,,,,,,,,0,0,0,,-3380,15956,-424,-24,44,-233
8.034,7.89,-1.22,3.32,-2.76,7.22,-2.36,0.50,-3.22,-1.82,-0.98,195.00,405.00,127.00,148.00,525.00,952.00,496.00,805.00,,,,,,,,,,,,0,0,0,,-3376,16004,-488,-108,21,-232
8.075,7.95,-1.35,-2.17,-0.53,2.23,-8.21,-3.93,1.07,-3.35,0.76,191.00,474.00,191.00,211.00,451.00,1011.00,464.00,816.00,,,,,,,,,,,,0,0,0,,-3404,15912,-456,-112,25,-116
8.178,8.00,-1.36,-4.48,2.18,-14.22,4.71,-1.58,-0.09,-0.58,-1.40,172.00,483.00,128.00,286.00,460.00,950.00,496.00,775.00,,,,,,,,,,,,0,0,0,,-3352,15860,-364,-124,66,-82
8.199,8.06,-1.20,-0.48,-1.00,-6.11,4.45,1.81,-4.69,-1.34,-2.47,190.00,449.00,112.00,209.00,555.00,940.00,533.00,822.00,,,,,,,,,,,,0,0,0,,-3336,15876,-496,-184,155,-40
8.241,8.11,-1.37,1.97,-5.11,10.53,-12.40,-4.55,0.67,-4.01,0.75,227.00,455.00,206.00,170.00,466.00,1047.00,470.00,838.00,,,,,,,,,,,,0,0,0,,-3208,15936,-576,-102,189,-102
8.302,8.17,-1.47,-5.23,2.22,-13.16,4.21,-3.39,1.43,-1.77,-0.74,174.00,497.00,129.00,278.00,438.00,980.00,489.00,798.00,,,,,,,,,,,,0,0,0,,-3260,16176,-476,-74,104,-49
8.343,8.22,-1.38,-3.74,2.59,-12.70,12.42,0.28,-1.92,-1.34,-1.18,166.00,464.00,82.00,219.00,491.00,927.00,497.00,794.00,,,,,,,,,,,,0,0,0,,-3280,15856,-408,-233,59,-176
8.406,8.28,-1.41,4.30,-2.51,13.09,-7.03,-1.91,-0.65,-2.13,-0.39,189.00,387.00,147.00,133.00,477.00,977.00,483.00,802.00,,,,,,,,,,,,0,0,0,,-3324,15820,-252,-131,40,-156
8.51,8.33,-1.59,-1.55,-0.64,-2.44,-4.05,-4.93,3.21,-3.57,1.28,190.00,464.00,166.00,227.00,409.00,993.00,453.00,812.00,,,,,,,,,,,,0,0,0,,-3204,15960,-332,-13,118,-128
8.53,8.39,-1.50,-7.84,7.92,-19.60,19.03,0.14,-1.10,0.92,-2.38,134.00,473.00,65.00,241.00,471.00,912.00,509.00,750.00,,,,,,,,,,,,0,0,0,,-3164,15972,-512,-60,158,-165
8.572,8.44,-1.41,2.59,-2.23,6.62,-4.60,0.39,-3.22,-1.93,-1.24,192.00,411.00,145.00,161.00,526.00,956.00,504.00,814.00,,,,,,,,,,,,0,0,0,,-3248,15964,-568,47,144,-176
8.634,8.50,-1.53,-2.97,0.03,2.27,-7.74,-3.86,0.52,-1.71,-0.06,188.00,482.00,186.00,208.00,464.00,1023.00,471.00,782.00,,,,,,,,,,,,0,0,0,,-3364,15940,-624,-129,66,-168
8.675,8.55,-1.53,-5.06,3.03,-13.87,4.59,-1.61,-0.16,-0.84,-1.35,166.00,483.00,128.00,283.00,462.00,953.00,497.00,782.00,,,,,,,,,,,,0,0,0,,-3236,15944,-352,-164,52,-202
8.736,8.61,-1.36,0.26,-2.01,-4.86,2.60,1.82,-4.66,-0.23,-3.32,198.00,448.00,121.00,209.00,554.00,939.00,547.00,805.00,,,,,,,,,,,,0,0,0,,-3292,15888,-420,-112,127,-245
8.778,8.66,-1.49,1.12,-4.58,9.58,-12.08,-3.95,0.08,-3.47,-0.09,224.00,464.00,206.00,175.00,476.00,1039.00,487.00,839.00,,,,,,,,,,,,0,0,0,,-3412,16020,-400,-110,51,-200
8.881,8.72,-1.64,-4.98,1.92,-10.46,3.30,-4.32,2.92,-2.78,-0.17,176.00,496.00,129.00,256.00,411.00,977.00,483.00,818.00,,,,,,,,,,,,0,0,0,,-3152,15872,-548,-73,78,-140
8.901,8.77,-1.52,-4.14,3.17,-11.44,11.77,0.71,-2.06,-1.83,-0.45,162.00,464.00,83.00,212.00,491.00,915.00,482.00,794.00,,,,,,,,,,,,0,0,0,,-3368,15816,-464,-129,136,-97
8.962,8.83,-1.54,-0.41,-0.43,13.73,-7.12,-1.90,-1.11,-2.39,-1.20,184.00,441.00,146.00,130.00,489.00,989.00,507.00,828.00,,,,,,,,,,,,0,0,0,,-3384,16084,-416,-166,117,-41
9.023,8.88,-1.73,-2.88,0.60,-5.06,-0.67,-5.43,3.02,-3.43,0.79,182.00,473.00,145.00,230.00,417.00,1018.00,464.00,818.00,,,,,,,,,,,,0,0,0,,-3348,15924,-436,-122,130,-21
9.064,8.94,-1.66,-9.00,9.16,-22.60,20.92,-0.39,-1.08,-1.07,-1.38,128.00,479.00,62.00,258.00,475.00,931.00,500.00,790.00,,,,,,,,,,,,0,0,0,,-3276,15968,-504,-168,183,-132
9.105,8.99,-1.56,2.19,-2.09,3.59,-3.45,0.41,-3.68,-1.74,-2.20,192.00,416.00,144.00,176.00,539.00,967.00,529.00,829.00,,,,,,,,,,,,0,0,0,,-3180,15920,-384,-219,26,-162
9.167,9.05,-1.68,-1.79,0.03,2.61,-7.14,-3.89,0.57,-4.02,0.33,184.00,460.00,179.00,202.00,463.00,1023.00,481.00,848.00,,,,,,,,,,,,0,0,0,,-3368,15880,-260,-73,58,-97
9.25,9.10,-1.69,-5.63,3.33,-15.31,7.38,-2.00,0.55,-0.62,-1.72,165.00,490.00,113.00,278.00,448.00,950.00,505.00,783.00,,,,,,,,,,,,0,0,0,,-3220,16036,-544,-140,218,-126
9.271,9.16,-1.50,-0.68,-0.54,-5.64,4.29,2.27,-5.56,-1.08,-2.35,186.00,447.00,112.00,206.00,577.00,945.00,527.00,811.00,,,,,,,,,,,,0,0,0,,-3244,15972,-364,-130,115,-134
9.353,9.21,-1.62,0.29,-3.20,9.83,-12.87,-3.93,0.19,-3.62,-0.26,211.00,462.00,214.00,177.00,473.00,1035.00,493.00,848.00,,,,,,,,,,,,0,0,0,,-3180,15932,-452,-88,52,-236
9.417,9.27,-1.71,-6.32,3.91,-10.13,1.81,-3.43,1.57,-0.64,-2.53,162.00,496.00,139.00,263.00,435.00,978.00,528.00,801.00,,,,,,,,,,,,0,0,0,,-3360,15948,-396,-205,27,-197
9.458,9.32,-1.56,-5.35,5.13,-13.34,12.87,1.29,-2.92,-0.75,-2.29,149.00,462.00,81.00,222.00,509.00,915.00,522.00,799.00,,,,,,,,,,,,0,0,0,,-3448,15968,-260,-107,113,-192
9.52,9.38,-1.54,1.55,-1.69,8.82,-7.39,-1.12,-2.00,-3.54,0.28,190.00,422.00,162.00,159.00,506.00,982.00,478.00,833.00,,,,,,,,,,,,0,0,0,,-3292,15860,-396,-113,87,-192
9.602,9.43,-1.73,-1.97,-0.11,-7.24,0.19,-5.34,3.26,-2.96,-0.03,186.00,465.00,144.00,245.00,411.00,1008.00,481.00,821.00,,,,,,,,,,,,0,0,0,,-3276,15900,-364,-154,54,-151
9.623,9.49,-1.73,-9.52,9.92,-17.95,14.65,-1.86,1.73,-0.68,-1.91,124.00,479.00,80.00,254.00,419.00,915.00,511.00,789.00,,,,,,,,,,,,0,0,0,,-3252,15932,-184,-148,145,-108
9.665,9.54,-1.65,0.96,-1.68,1.43,-0.70,-0.15,-3.39,-2.58,-2.19,192.00,432.00,129.00,178.00,536.00,981.00,537.00,857.00,,,,,,,,,,,,0,0,0,,-3284,15888,-308,-182,115,-118
9.727,9.60,-1.79,-3.30,-0.25,0.65,-5.53,-4.43,0.71,-4.34,0.05,192.00,492.00,170.00,209.00,464.00,1041.00,491.00,865.00,,,,,,,,,,,,0,0,0,,-3276,16076,-324,-122,72,-131
9.769,9.65,-1.83,-6.81,5.01,-16.84,8.06,-2.45,-0.03,-1.82,-1.53,154.00,491.00,112.00,290.00,466.00,982.00,511.00,817.00,,,,,,,,,,,,0,0,0,,-3308,15976,-324,-83,125,-35
9.83,9.71,-1.66,-0.18,-1.77,-5.48,1.77,1.42,-5.08,-3.52,-0.63,197.00,453.00,128.00,219.00,571.00,965.00,502.00,853.00,,,,,,,,,,,,0,0,0,,-3272,16008,-276,-193,114,-231
9.893,9.76,-1.78,0.97,-4.45,9.55,-12.25,-4.02,0.18,-5.71,1.44,223.00,465.00,208.00,176.00,474.00,1039.00,467.00,880.00,,,,,,,,,,,,0,0,0,,-3332,15892,-328,-175,-84,-122
9.975,9.82,-1.90,-5.70,2.17,-7.79,-3.85,-4.17,1.90,-1.66,-1.22,176.00,507.00,181.00,279.00,433.00,998.00,501.00,805.00,,,,,,,,,,,,0,0,0,,-3280,15904,-168,-140,175,-104
9.996,9.87,-1.78,-3.50,2.40,-15.81,18.04,0.45,-2.12,-1.24,-1.65,167.00,462.00,64.00,213.00,495.00,926.00,509.00,801.00,,,,,,,,,,,,0,0,0,,-3156,15884,-284,-185,245,-96
10.058,9.93,-1.77,-1.01,-0.13,7.91,-7.64,-1.51,-1.76,-2.86,-0.63,183.00,448.00,167.00,166.00,503.00,991.00,496.00,831.00,,,,,,,,,,,,0,0,0,,-3132,15928,-276,-17,29,-73
10.099,9.98,-1.97,-3.24,0.12,-4.24,-2.99,-5.86,3.84,-3.85,1.46,188.00,486.00,162.00,237.00,402.00,1013.00,451.00,817.00,,,,,,,,,,,,0,0,0,,-3256,15896,-328,-112,122,-218
10.159,10.04,-1.88,-10.33,11.74,-21.96,19.83,-0.07,-0.95,-0.16,-2.73,114.00,471.00,65.00,259.00,469.00,916.00,529.00,790.00,,,,,,,,,,,,0,0,0,,-3260,15864,-416,-161,54,-161
10.221,10.09,-1.78,2.36,-2.44,4.92,-3.90,0.02,-3.48,-2.51,-1.90,195.00,417.00,144.00,169.00,537.00,977.00,528.00,848.00,,,,,,,,,,,,0,0,0,,-3324,15944,-416,-67,103,-210
10.263,10.15,-1.91,-2.78,-0.32,2.27,-7.74,-4.29,0.55,-4.46,0.36,191.00,483.00,186.00,208.00,467.00,1040.00,484.00,862.00,,,,,,,,,,,,0,0,0,,-3232,15868,-320,-158,94,-155
10.346,10.20,-1.93,-4.98,2.46,-12.77,2.97,-2.35,0.06,-2.76,-0.77,171.00,489.00,137.00,283.00,463.00,976.00,499.00,831.00,,,,,,,,,,,,0,0,0,,-3424,15912,-280,-140,89,-106
10.387,10.26,-1.76,-0.24,-1.28,-7.34,4.86,1.53,-5.25,-1.73,-3.19,192.00,448.00,112.00,217.00,575.00,965.00,558.00,851.00,,,,,,,,,,,,0,0,0,,-3264,15868,-324,-78,139,-103
10.428,10.31,-1.89,0.77,-4.63,9.55,-12.25,-4.47,0.06,-4.98,0.23,226.00,471.00,208.00,176.00,481.00,1061.00,492.00,883.00,,,,,,,,,,,,0,0,0,,-3240,16000,-304,-136,131,-70
10.49,10.37,-2.01,-5.37,2.06,-12.68,3.91,-4.16,2.07,-2.11,-1.29,176.00,502.00,130.00,275.00,429.00,993.00,507.00,821.00,,,,,,,,,,,,0,0,0,,-3156,15816,-232,-80,100,-142
10.551,10.42,-1.92,-3.78,2.16,-12.77,11.35,-0.32,-1.90,-1.90,-2.18,170.00,470.00,87.00,226.00,496.00,949.00,530.00,834.00,,,,,,,,,,,,0,0,0,,-3220,15952,-188,-97,194,-58
10.612,10.48,-1.96,-0.30,-0.77,8.73,-6.78,-2.65,-1.67,-2.68,-1.17,187.00,443.00,157.00,157.00,511.00,1034.00,509.00,837.00,,,,,,,,,,,,0,0,0,,-3188,15960,-392,-243,173,-245
10.738,10.53,-2.11,-3.69,0.18,-4.36,-3.29,-4.99,2.52,-4.06,0.38,189.00,494.00,165.00,240.00,425.00,1014.00,480.00,848.00,,,,,,,,,,,,0,0,0,,-3208,15964,-396,-121,-70,-172
10.758,10.59,-2.07,-8.86,9.11,-27.62,27.33,-1.23,-0.64,-0.28,-2.69,128.00,477.00,48.00,265.00,471.00,951.00,529.00,793.00,,,,,,,,,,,,0,0,0,,-3228,15828,-140,-114,173,-72
10.778,10.64,-1.97,1.29,-1.20,5.03,-4.94,-0.15,-3.80,-1.96,-2.05,186.00,421.00,152.00,173.00,548.00,992.00,527.00,833.00,,,,,,,,,,,,0,0,0,,-3160,16056,-320,-185,241,-116
10.819,10.70,-2.13,-2.37,-0.46,2.87,-8.62,-5.24,1.55,-4.62,0.03,191.00,477.00,193.00,208.00,450.00,1051.00,494.00,875.00,,,,,,,,,,,,0,0,0,,-3120,15912,-228,8,104,-74
10.88,10.75,-2.17,-6.49,4.08,-16.52,7.46,-2.75,0.11,-2.30,-1.90,161.00,497.00,115.00,291.00,465.00,990.00,526.00,841.00,,,,,,,,,,,,0,0,0,,-3172,15908,-232,-126,137,-216
10.922,10.81,-2.02,-0.45,-1.20,-7.20,4.65,0.76,-4.54,-1.18,-3.96,192.00,451.00,113.00,217.00,561.00,976.00,576.00,850.00,,,,,,,,,,,,0,0,0,,-3264,15956,-344,-140,55,-181
10.983,10.86,-2.12,0.75,-4.12,10.50,-13.44,-4.02,-0.32,-5.08,0.34,220.00,465.00,218.00,175.00,487.00,1053.00,490.00,884.00,,,,,,,,,,,,0,0,0,,-3276,16036,-200,-78,77,-235
11.085,10.92,-2.23,-6.05,2.39,-15.84,4.83,-4.31,1.99,-3.01,-0.95,175.00,511.00,131.00,304.00,432.00,1001.00,506.00,843.00,,,,,,,,,,,,0,0,0,,-3208,15848,-292,-154,62,-143
11.106,10.97,-2.12,-4.98,3.23,-12.06,9.49,-0.02,-2.22,-1.71,-2.69,164.00,479.00,95.00,231.00,502.00,946.00,543.00,839.00,,,,,,,,,,,,0,0,0,,-3276,16000,-84,-94,120,-110
11.148,11.03,-2.13,-0.62,-0.95,8.11,-6.33,-2.42,-1.15,-3.49,-0.90,190.00,451.00,155.00,159.00,495.00,1011.00,509.00,858.00,,,,,,,,,,,,0,0,0,,-3224,15900,-212,-50,167,-80
11.209,11.08,-2.32,-2.58,0.40,-7.77,0.37,-5.93,2.71,-4.46,0.67,183.00,470.00,144.00,249.00,428.00,1047.00,476.00,855.00,,,,,,,,,,,,0,0,0,,-3204,15944,-288,-114,147,-98
11.27,11.14,-2.17,-8.34,7.95,-20.76,16.78,0.67,-2.56,-2.97,-0.07,135.00,482.00,75.00,268.00,505.00,929.00,482.00,822.00,,,,,,,,,,,,0,0,0,,-3316,15996,-300,-44,78,-112
11.33,11.19,-2.13,1.29,-2.17,2.67,-3.15,-1.31,-3.21,-2.67,-2.37,196.00,432.00,144.00,181.00,542.00,1022.00,543.00,864.00,,,,,,,,,,,,0,0,0,,-3192,15836,-156,-36,127,-84
11.393,11.25,-2.31,-3.73,-0.29,-0.92,-5.95,-5.71,1.51,-4.66,-0.02,194.00,501.00,179.00,225.00,455.00,1072.00,496.00,878.00,,,,,,,,,,,,0,0,0,,-3256,15916,-336,-184,75,-272
11.455,11.30,-2.29,-5.31,3.80,-14.52,5.55,-1.87,-1.19,-2.22,-1.40,160.00,478.00,123.00,283.00,491.00,990.00,511.00,827.00,,,,,,,,,,,,0,0,0,,-3268,15772,-268,-38,-103,-85
11.475,11.36,-2.16,-0.40,-2.34,-5.40,3.41,0.26,-3.80,-1.85,-3.31,204.00,464.00,117.00,209.00,544.00,976.00,563.00,858.00,,,,,,,,,,,,0,0,0,,-3168,16000,-256,-8,-8,-45
11.538,11.41,-2.26,0.08,-4.39,6.94,-11.63,-4.19,-0.64,-4.97,0.30,226.00,481.00,211.00,192.00,497.00,1069.00,490.00,881.00,,,,,,,,,,,,0,0,0,,-3052,15996,-356,-140,41,-98
11.579,11.47,-2.37,-6.22,3.53,-13.65,2.22,-4.50,2.01,-1.65,-2.19,165.00,499.00,145.00,299.00,433.00,1008.00,528.00,826.00,,,,,,,,,,,,0,0,0,,-3212,16104,-384,15,115,-93
11.641,11.52,-2.26,-4.77,2.60,-12.81,9.17,-0.15,-2.51,-2.15,-2.47,169.00,483.00,98.00,240.00,511.00,958.00,541.00,849.00,,,,,,,,,,,,0,0,0,,-3196,15968,-372,-110,73,-154
11.702,11.58,-2.30,-1.03,-0.52,8.21,-6.72,-3.02,-0.50,-3.53,-1.53,187.00,453.00,158.00,160.00,483.00,1017.00,527.00,874.00,,,,,,,,,,,,0,0,0,,-3164,16000,-288,-98,27,-188
11.743,11.63,-2.44,-3.47,1.31,5.21,-6.06,-5.05,2.46,-4.03,0.60,177.00,475.00,161.00,177.00,427.00,1018.00,474.00,842.00,,,,,,,,,,,,0,0,0,,-3160,15912,-100,-47,17,-259
11.825,11.69,-2.29,-7.59,7.70,-24.52,22.48,0.55,-2.71,-1.42,-2.30,135.00,471.00,59.00,267.00,510.00,937.00,529.00,821.00,,,,,,,,,,,,0,0,0,,-3248,15808,-352,-64,-25,-216
11.865,11.74,-2.23,1.47,-1.66,5.59,-4.00,-1.04,-3.12,-2.79,-2.02,190.00,423.00,143.00,165.00,537.00,1009.00,534.00,860.00,,,,,,,,,,,,0,0,0,,-3276,15836,-364,-60,35,-162
11.968,11.80,-2.39,-2.39,-1.21,-1.04,-7.40,-5.54,1.05,-4.80,0.13,199.00,487.00,194.00,235.00,465.00,1078.00,493.00,879.00,,,,,,,,,,,,0,0,0,,-3200,15836,-328,-141,92,-85
11.989,11.85,-2.42,-5.76,3.16,-15.58,5.31,-2.92,-0.38,-2.33,-2.17,167.00,495.00,127.00,297.00,479.00,1010.00,534.00,848.00,,,,,,,,,,,,0,0,0,,-3240,15992,-196,-107,192,31
12.05,11.91,-2.25,-1.81,-0.26,-7.19,2.64,0.99,-5.29,-2.53,-3.21,187.00,464.00,126.00,229.00,582.00,987.00,567.00,879.00,,,,,,,,,,,,0,0,0,,-3168,15920,-388,-68,252,0
12.113,11.96,-2.40,-0.73,-3.20,7.39,-11.52,-5.22,-0.14,-5.37,0.10,215.00,481.00,208.00,188.00,493.00,1099.00,499.00,900.00,,,,,,,,,,,,0,0,0,,-3048,16080,-284,-89,157,-150
12.175,12.02,-2.47,-5.42,1.76,-13.98,4.49,-3.90,0.66,-2.61,-1.26,179.00,507.00,129.00,285.00,461.00,1021.00,511.00,837.00,,,,,,,,,,,,0,0,0,,-3092,16024,-316,-34,48,-237
12.196,12.07,-2.31,-3.32,2.45,-11.27,8.65,0.77,-3.35,-3.39,-1.99,166.00,458.00,98.00,229.00,526.00,945.00,539.00,880.00,,,,,,,,,,,,0,0,0,,-3164,16024,-308,-65,47,-238
12.257,12.13,-2.35,-1.48,-0.66,8.91,-7.98,-3.05,-1.53,-4.07,-0.78,190.00,463.00,167.00,161.00,511.00,1047.00,511.00,875.00,,,,,,,,,,,,0,0,0,,-3156,15940,-328,-154,79,-178
12.298,12.18,-2.51,-3.00,-0.15,-8.18,-0.49,-5.67,2.58,-4.53,-0.22,190.00,485.00,152.00,259.00,429.00,1040.00,500.00,878.00,,,,,,,,,,,,0,0,0,,-3212,16008,-304,-140,123,-204
12.359,12.24,-2.37,-7.77,6.57,-22.00,22.27,0.34,-2.67,-2.12,-2.03,144.00,489.00,57.00,243.00,511.00,944.00,528.00,838.00,,,,,,,,,,,,0,0,0,,-3272,15804,-524,-179,30,-171
12.42,12.29,-2.34,0.70,-1.30,5.39,-4.81,-1.73,-2.61,-3.12,-2.69,189.00,432.00,150.00,170.00,529.00,1023.00,557.00,887.00,,,,,,,,,,,,0,0,0,,-3248,15908,-200,-174,82,-91
12.46,12.35,-2.54,-3.82,0.22,-2.26,-6.70,-6.46,1.96,-5.87,0.42,189.00,496.00,191.00,242.00,450.00,1091.00,495.00,910.00,,,,,,,,,,,,0,0,0,,-3220,15892,-232,-161,154,-110
12.544,12.40,-2.55,-6.77,4.87,-17.62,5.43,-2.75,-1.12,-3.46,-1.76,155.00,492.00,131.00,321.00,497.00,1023.00,533.00,877.00,,,,,,,,,,,,0,0,0,,-3184,15992,-188,-135,96,-87
12.604,12.46,-2.46,-1.76,-1.05,-7.67,4.17,-0.75,-4.00,-2.28,-3.75,195.00,473.00,117.00,224.00,560.00,1021.00,581.00,883.00,,,,,,,,,,,,0,0,0,,-3152,15972,-80,-87,104,-145
12.625,12.51,-2.63,-1.53,-3.60,2.71,-11.32,-5.75,-0.04,-6.30,0.12,223.00,502.00,224.00,225.00,495.00,1119.00,507.00,933.00,,,,,,,,,,,,0,0,0,,-3228,15956,-264,-64,80,-186
12.687,12.57,-2.67,-6.90,2.57,-18.10,6.02,-3.51,-0.83,-3.82,-1.95,176.00,526.00,128.00,322.00,496.00,1046.00,542.00,894.00,,,,,,,,,,,,0,0,0,,-3148,15848,-164,-125,55,-197
12.75,12.62,-2.55,-4.54,2.42,-12.20,8.59,-0.16,-4.19,-3.14,-2.94,170.00,481.00,100.00,238.00,560.00,1003.00,565.00,894.00,,,,,,,,,,,,0,0,0,,-3240,15920,-308,-91,97,-145
12.813,12.68,-2.59,-1.89,-2.55,4.87,-7.80,-3.51,-2.05,-5.11,-1.06,212.00,495.00,178.00,188.00,530.00,1081.00,529.00,919.00,,,,,,,,,,,,0,0,0,,-3156,16000,-196,-124,203,-90
12.855,12.73,-2.80,-3.95,-0.41,-9.65,0.12,-6.74,2.68,-4.39,-1.27,196.00,507.00,151.00,270.00,435.00,1082.00,528.00,898.00,,,,,,,,,,,,0,0,0,,-3180,15804,-216,-243,86,-215
12.917,12.79,-2.67,-7.63,6.52,-21.59,19.14,-0.12,-3.12,-2.07,-3.07,144.00,487.00,67.00,260.00,528.00,973.00,558.00,860.00,,,,,,,,,,,,0,0,0,,-3308,15932,-152,-112,-85,-103
12.979,12.84,-2.63,-0.53,-0.09,4.02,-2.13,-1.96,-2.74,-3.34,-2.64,181.00,439.00,133.00,167.00,535.00,1036.00,558.00,894.00,,,,,,,,,,,,0,0,0,,-3172,15968,-52,-154,222,-72
13.042,12.90,-2.82,-3.95,0.26,-2.90,-4.98,-6.32,1.96,-5.78,0.58,189.00,498.00,176.00,237.00,449.00,1085.00,490.00,903.00,,,,,,,,,,,,0,0,0,,-3204,16000,-392,-188,155,-90
13.083,12.95,-2.80,-9.03,7.38,-16.13,7.01,-2.42,-1.23,-4.09,-1.37,141.00,503.00,117.00,290.00,497.00,1013.00,528.00,890.00,,,,,,,,,,,,0,0,0,,-3116,16020,-252,-46,57,-144
13.145,13.01,-2.68,-0.74,-1.67,-6.73,1.62,-0.41,-4.57,-3.91,-2.19,198.00,462.00,132.00,231.00,574.00,1023.00,550.00,903.00,,,,,,,,,,,,0,0,0,,-3148,15956,-268,-135,101,-171
13.207,13.06,-2.86,-0.60,-4.08,5.14,-11.97,-6.40,0.79,-6.90,0.65,225.00,490.00,222.00,208.00,479.00,1123.00,498.00,942.00,,,,,,,,,,,,0,0,0,,-3220,15944,-128,-143,27,-135
13.31,13.12,-2.92,-8.07,4.16,-18.58,6.62,-4.03,0.34,-3.78,-1.40,165.00,528.00,125.00,323.00,470.00,1035.00,526.00,880.00,,,,,,,,,,,,0,0,0,,-3144,16008,-104,-66,117,-188
13.33,13.17,-2.77,-3.47,1.31,-12.81,9.17,0.21,-4.25,-3.32,-2.72,177.00,475.00,98.00,240.00,558.00,990.00,560.00,895.00,,,,,,,,,,,,0,0,0,,-3256,15872,-164,-129,54,-139
13.35,13.23,-2.80,0.15,-3.24,5.56,-10.00,-3.49,-1.31,-4.92,-1.06,212.00,465.00,198.00,194.00,509.00,1059.00,527.00,912.00,,,,,,,,,,,,0,0,0,,-3224,15944,-240,-79,106,-101
13.412,13.28,-2.98,-3.83,-0.07,-7.65,-0.55,-6.29,2.79,-4.22,-1.64,192.00,500.00,151.00,254.00,429.00,1060.00,537.00,901.00,,,,,,,,,,,,0,0,0,,-3180,15880,-112,-98,196,-68
13.474,13.34,-2.84,-7.68,5.91,-20.93,16.35,-0.18,-2.93,-2.39,-3.03,149.00,496.00,77.00,273.00,523.00,970.00,560.00,870.00,,,,,,,,,,,,0,0,0,,-3116,15988,-284,-143,116,-111
13.536,13.39,-2.85,1.71,-3.05,7.80,-6.11,-3.05,-2.38,-4.01,-2.65,204.00,435.00,154.00,160.00,535.00,1071.00,565.00,918.00,,,,,,,,,,,,0,0,0,,-3168,15800,-148,-87,97,-120
13.557,13.45,-3.05,-2.66,-1.49,-3.27,-5.97,-6.87,2.43,-6.44,0.61,203.00,496.00,187.00,247.00,442.00,1095.00,495.00,926.00,,,,,,,,,,,,0,0,0,,-3132,16024,-280,-145,168,-174
13.659,13.50,-3.01,-9.88,9.31,-19.56,11.82,-2.36,-1.21,-2.18,-3.27,129.00,494.00,96.00,292.00,496.00,1010.00,565.00,868.00,,,,,,,,,,,,0,0,0,,-3236,15864,-232,-184,1,-153
13.68,13.56,-2.91,-1.60,-1.29,-6.49,2.26,-0.92,-3.71,-3.14,-3.39,197.00,473.00,127.00,225.00,553.00,1020.00,579.00,905.00,,,,,,,,,,,,0,0,0,,-3152,15860,-12,-87,65,-80
13.742,13.61,-3.05,-1.88,-2.64,1.62,-10.36,-5.63,-0.04,-5.63,-0.78,213.00,496.00,217.00,229.00,494.00,1114.00,526.00,931.00,,,,,,,,,,,,0,0,0,,-3160,15964,-192,-173,300,-93
13.784,13.67,-3.10,-8.06,3.93,-19.41,7.50,-4.16,0.39,-2.77,-2.90,167.00,531.00,121.00,326.00,470.00,1039.00,560.00,880.00,,,,,,,,,,,,0,0,0,,-3084,16028,-248,-77,68,-62
13.844,13.72,-2.90,-3.84,1.54,-12.94,10.78,0.95,-4.86,-2.60,-3.58,176.00,479.00,90.00,231.00,569.00,977.00,579.00,890.00,,,,,,,,,,,,0,0,0,,-3100,15872,-192,-87,129,-208
13.906,13.78,-2.96,-1.03,-2.13,4.98,-10.08,-4.21,-0.70,-5.69,-0.08,204.00,473.00,201.00,199.00,499.00,1072.00,507.00,916.00,,,,,,,,,,,,0,0,0,,-3112,15896,-156,-150,108,-164
13.946,13.83,-3.13,-4.52,1.25,-8.16,-1.10,-6.31,2.88,-4.66,-0.58,181.00,496.00,157.00,263.00,427.00,1058.00,511.00,891.00,,,,,,,,,,,,0,0,0,,-3164,15940,-116,-99,64,-210
14.029,13.89,-3.02,-5.54,2.75,-18.08,14.69,-0.91,-1.96,-2.03,-2.62,170.00,496.00,80.00,255.00,503.00,973.00,544.00,848.00,,,,,,,,,,,,0,0,0,,-3116,15776,-244,-101,101,-221
14.071,13.94,-2.97,1.10,-2.67,7.31,-6.77,-1.93,-2.69,-4.68,-1.66,202.00,441.00,161.00,166.00,533.00,1033.00,542.00,918.00,,,,,,,,,,,,0,0,0,,-3372,15888,84,-131,66,-130
14.113,14.00,-3.17,-3.30,-1.37,-2.81,-5.11,-7.03,2.70,-6.21,0.24,204.00,507.00,177.00,237.00,437.00,1094.00,503.00,927.00,,,,,,,,,,,,0,0,0,,-3252,15968,-188,-80,175,-109
14.176,14.05,-3.12,-9.52,8.63,-18.29,10.45,-2.26,-0.91,-3.20,-1.88,133.00,496.00,101.00,288.00,487.00,998.00,534.00,871.00,,,,,,,,,,,,0,0,0,,-3112,15916,-224,-133,112,-61
14.237,14.11,-3.01,-0.64,-1.99,-5.51,-0.00,-0.86,-4.48,-4.33,-2.01,201.00,464.00,141.00,230.00,576.00,1039.00,549.00,914.00,,,,,,,,,,,,0,0,0,,-3120,15976,-8,-95,79,-105
14.279,14.16,-3.19,-3.24,-1.74,1.06,-9.22,-6.65,0.61,-7.04,0.66,208.00,511.00,206.00,227.00,486.00,1140.00,499.00,947.00,,,,,,,,,,,,0,0,0,,-3048,16060,-240,-39,176,-129
14.339,14.22,-3.18,-8.50,3.75,-19.84,7.34,-2.94,-0.83,-3.05,-2.74,170.00,543.00,123.00,333.00,491.00,1023.00,558.00,886.00,,,,,,,,,,,,0,0,0,,-3164,15940,-292,-140,85,-245
14.401,14.27,-2.96,-2.22,-0.22,-9.31,7.25,1.31,-5.99,-3.09,-3.76,188.00,471.00,102.00,220.00,601.00,993.00,590.00,912.00,,,,,,,,,,,,0,0,0,,-3180,15824,0,-30,-24,-127
14.442,14.33,-3.04,-0.26,-4.28,8.24,-11.36,-4.73,-0.53,-6.17,-0.07,226.00,486.00,203.00,181.00,499.00,1089.00,511.00,933.00,,,,,,,,,,,,0,0,0,,-3260,15912,-64,-41,248,-113
14.524,14.38,-3.16,-5.89,2.23,-11.95,3.24,-5.42,2.07,-3.51,-1.81,176.00,510.00,133.00,272.00,439.00,1044.00,535.00,880.00,,,,,,,,,,,,0,0,0,,-3160,15864,-424,-84,162,-108
14.565,14.44,-3.03,-6.26,4.35,-14.64,11.56,-0.55,-2.37,-3.62,-1.39,158.00,489.00,89.00,242.00,511.00,970.00,524.00,874.00,,,,,,,,,,,,0,0,0,,-3156,16028,-264,9,120,-156
14.627,14.49,-3.04,-1.16,-0.08,5.60,-6.42,-3.22,-1.15,-4.43,-1.71,183.00,450.00,163.00,176.00,502.00,1043.00,541.00,910.00,,,,,,,,,,,,0,0,0,,-3056,15996,-180,-115,114,-170
14.668,14.55,-3.25,-3.96,-0.02,-4.80,-3.26,-7.20,3.40,-5.87,0.35,192.00,502.00,166.00,244.00,422.00,1081.00,497.00,912.00,,,,,,,,,,,,0,0,0,,-3176,15912,-288,-70,71,-215
14.77,14.60,-3.17,-9.96,9.19,-21.62,16.83,-1.60,-1.28,-2.16,-2.81,130.00,497.00,76.00,277.00,491.00,982.00,551.00,857.00,,,,,,,,,,,,0,0,0,,-3132,15888,-208,-49,56,-257
14.811,14.66,-3.07,1.36,-3.29,-2.49,-0.89,-1.29,-3.82,-3.87,-2.40,208.00,444.00,140.00,209.00,560.00,1038.00,556.00,907.00,,,,,,,,,,,,0,0,0,,-3268,15956,-132,-102,16,-168
14.832,14.71,-3.22,-3.26,-1.65,-1.49,-7.06,-6.02,0.97,-5.75,-0.85,207.00,510.00,192.00,237.00,471.00,1101.00,529.00,937.00,,,,,,,,,,,,0,0,0,,-3164,15888,-68,-41,115,-117
14.894,14.77,-3.25,-7.65,3.46,-18.67,7.10,-3.79,-0.09,-4.25,-1.97,170.00,529.00,122.00,320.00,479.00,1037.00,547.00,910.00,,,,,,,,,,,,0,0,0,,-3180,15852,-136,-95,150,-74
14.934,14.82,-3.08,-1.25,-1.97,-11.79,7.20,0.22,-5.35,-3.68,-3.65,203.00,475.00,107.00,243.00,592.00,1019.00,593.00,931.00,,,,,,,,,,,,0,0,0,,-3104,15972,-132,-40,130,-49
14.996,14.88,-3.17,-0.92,-4.06,4.62,-11.20,-4.89,-0.73,-6.51,-0.63,226.00,496.00,215.00,208.00,506.00,1102.00,530.00,960.00,,,,,,,,,,,,0,0,0,,-3164,16056,-260,-86,160,-92
15.057,14.93,-3.26,-7.15,2.65,-12.28,-0.18,-5.12,1.84,-4.36,-1.76,176.00,530.00,161.00,302.00,442.00,1038.00,542.00,909.00,,,,,,,,,,,,0,0,0,,-3020,15860,-328,-182,65,-129
15.119,14.99,-3.13,-5.76,3.16,-16.09,12.05,-0.65,-2.27,-2.80,-2.86,167.00,495.00,89.00,253.00,509.00,971.00,559.00,880.00,,,,,,,,,,,,0,0,0,,-3156,15976,-208,-52,50,-118
15.16,15.04,-3.09,-0.98,-0.34,3.81,-3.78,-2.22,-2.76,-3.95,-1.42,185.00,450.00,146.00,176.00,538.00,1047.00,528.00,886.00,,,,,,,,,,,,0,0,0,,-3144,16064,-152,-90,193,-156
15.221,15.10,-3.27,-4.04,0.99,-8.68,0.67,-6.77,3.21,-5.60,0.51,182.00,490.00,144.00,256.00,423.00,1068.00,490.00,898.00,,,,,,,,,,,,0,0,0,,-3208,15872,-376,-100,97,-138
15.282,15.15,-3.17,-10.60,9.70,-24.36,19.80,-1.27,-1.21,-2.96,-2.23,128.00,503.00,68.00,285.00,486.00,967.00,542.00,871.00,,,,,,,,,,,,0,0,0,,-3016,15912,-88,-68,82,-204
15.344,15.21,-3.07,1.56,-2.91,3.96,-2.93,-1.13,-3.44,-3.96,-2.60,203.00,436.00,139.00,171.00,547.00,1021.00,563.00,915.00,,,,,,,,,,,,0,0,0,,-3260,15940,-364,-176,108,-149
15.427,15.26,-3.23,-3.82,0.22,-1.92,-7.20,-6.19,1.19,-5.67,-0.23,189.00,496.00,195.00,242.00,467.00,1102.00,511.00,919.00,,,,,,,,,,,,0,0,0,,-3120,16072,-160,-107,92,-178
15.447,15.32,-3.21,-7.28,3.34,-15.77,5.97,-2.99,-0.44,-3.69,-2.09,170.00,523.00,123.00,294.00,481.00,1014.00,545.00,893.00,,,,,,,,,,,,0,0,0,,-3196,15832,-204,-105,154,-263
15.488,15.37,-3.05,-2.77,-0.43,-7.97,4.11,0.05,-4.63,-3.28,-3.60,192.00,484.00,118.00,227.00,571.00,1006.00,587.00,915.00,,,,,,,,,,,,0,0,0,,-3068,15928,-248,-159,22,-214
15.549,15.43,-3.21,-0.81,-3.85,4.98,-10.08,-6.32,0.84,-5.97,-0.91,223.00,491.00,201.00,199.00,477.00,1118.00,533.00,947.00,,,,,,,,,,,,0,0,0,,-3236,15944,-156,-107,89,-135
15.611,15.48,-3.31,-7.21,2.89,-14.22,3.06,-5.21,1.30,-3.69,-1.75,174.00,528.00,140.00,299.00,456.00,1057.00,535.00,885.00,,,,,,,,,,,,0,0,0,,-3216,15916,-132,-157,169,-86
15.674,15.54,-3.19,-5.83,3.18,-14.29,10.44,-0.82,-2.28,-3.88,-2.43,167.00,496.00,94.00,246.00,511.00,978.00,557.00,908.00,,,,,,,,,,,,0,0,0,,-3072,15920,-80,-141,174,-54
15.714,15.59,-3.21,-1.90,-1.00,4.86,-6.17,-3.59,-0.98,-4.88,-1.00,195.00,475.00,163.00,180.00,501.00,1054.00,525.00,909.00,,,,,,,,,,,,0,0,0,,-3164,15916,-76,-159,166,-146
15.776,15.65,-3.39,-5.36,1.74,-7.70,-0.78,-6.74,3.55,-4.56,-1.14,179.00,506.00,153.00,256.00,415.00,1057.00,526.00,901.00,,,,,,,,,,,,0,0,0,,-3120,15880,-208,-200,0,-144
15.86,15.70,-3.26,-11.69,9.63,-20.78,17.80,-0.78,-2.15,-1.88,-3.13,131.00,526.00,71.00,261.00,507.00,973.00,558.00,855.00,,,,,,,,,,,,0,0,0,,-3248,15880,56,-134,95,-74
15.88,15.76,-3.21,-0.04,-1.82,2.69,-2.76,-2.41,-2.67,-3.34,-2.61,197.00,451.00,141.00,179.00,537.00,1052.00,557.00,893.00,,,,,,,,,,,,0,0,0,,-3000,16036,-116,-152,251,-142
15.941,15.81,-3.35,-5.98,2.37,-3.04,-4.93,-6.05,1.46,-5.52,0.19,175.00,510.00,176.00,238.00,459.00,1088.00,498.00,903.00,,,,,,,,,,,,0,0,0,,-3040,15968,-108,-121,65,-97
16.004,15.87,-3.34,-7.42,4.86,-16.30,6.76,-3.02,-0.50,-3.66,-2.30,157.00,505.00,119.00,294.00,483.00,1017.00,551.00,897.00,,,,,,,,,,,,0,0,0,,-3036,16072,-200,-40,129,-255
16.065,15.92,-3.18,-0.85,-2.55,-7.54,3.81,-0.10,-4.54,-2.97,-3.35,208.00,475.00,119.00,225.00,570.00,1010.00,576.00,898.00,,,,,,,,,,,,0,0,0,,-3160,15916,-116,-163,65,-184
16.126,15.98,-3.35,-1.12,-3.99,4.08,-10.59,-6.62,0.98,-5.72,-0.61,226.00,499.00,210.00,209.00,476.00,1127.00,522.00,930.00,,,,,,,,,,,,0,0,0,,-3140,15980,-164,-88,87,-196
16.147,16.03,-3.41,-9.15,4.30,-17.48,5.81,-4.62,1.76,-2.86,-2.77,167.00,549.00,128.00,316.00,440.00,1020.00,557.00,880.00,,,,,,,,,,,,0,0,0,,-3212,15836,-188,-130,107,-200
16.23,16.09,-3.26,-4.87,1.99,-12.09,9.70,-0.29,-3.48,-2.86,-3.07,175.00,493.00,94.00,230.00,540.00,989.00,566.00,887.00,,,,,,,,,,,,0,0,0,,-3224,15868,-20,-107,59,-121
16.292,16.14,-3.27,-1.68,-2.18,5.50,-6.27,-3.49,-1.38,-4.03,-2.58,207.00,486.00,162.00,176.00,511.00,1061.00,563.00,917.00,,,,,,,,,,,,0,0,0,,-3248,15884,-152,-79,167,-98
16.333,16.20,-3.36,-3.97,0.37,-7.97,-0.81,-5.19,1.62,-4.92,-1.06,188.00,497.00,154.00,259.00,448.00,1047.00,527.00,912.00,,,,,,,,,,,,0,0,0,,-3212,15988,-224,-142,129,-108
16.375,16.25,-3.20,-10.42,9.21,-21.29,16.47,-0.19,-3.06,-1.88,-3.53,131.00,506.00,77.00,276.00,527.00,974.00,570.00,864.00,,,,,,,,,,,,0,0,0,,-3148,15860,-180,-57,74,-124
16.459,16.31,-3.20,0.53,-1.82,1.72,-2.95,-3.11,-2.12,-3.79,-2.72,195.00,441.00,145.00,187.00,528.00,1066.00,565.00,912.00,,,,,,,,,,,,0,0,0,,-3132,16040,-12,-74,166,-48
16.479,16.36,-3.38,-5.32,0.24,-2.16,-6.54,-6.84,2.05,-5.92,-0.15,194.00,526.00,189.00,240.00,451.00,1105.00,511.00,926.00,,,,,,,,,,,,0,0,0,,-3052,15956,-192,-237,136,-254
16.542,16.42,-3.36,-8.17,6.70,-19.04,10.17,-2.85,-0.86,-3.41,-2.25,144.00,495.00,104.00,299.00,491.00,1020.00,547.00,887.00,,,,,,,,,,,,0,0,0,,-3192,15892,-28,-130,-57,-138
16.603,16.47,-3.21,-2.75,-0.53,-6.38,1.93,-0.52,-4.40,-3.94,-2.51,193.00,485.00,129.00,226.00,570.00,1023.00,560.00,912.00,,,,,,,,,,,,0,0,0,,-3244,15888,-28,-150,269,-96
16.644,16.53,-3.34,-2.28,-2.51,1.22,-9.45,-5.81,0.02,-6.60,-0.49,213.00,502.00,208.00,227.00,494.00,1120.00,527.00,960.00,,,,,,,,,,,,0,0,0,,-3104,15892,-116,-188,236,-125
16.724,16.58,-3.31,-7.99,3.69,-17.69,5.88,-2.68,-1.11,-3.21,-2.25,169.00,533.00,128.00,318.00,496.00,1020.00,545.00,880.00,,,,,,,,,,,,0,0,0,,-2984,15924,-184,4,50,-95
16.765,16.64,-3.12,-3.80,0.41,-11.57,7.65,0.53,-4.66,-3.20,-2.86,187.00,493.00,104.00,238.00,567.00,988.00,563.00,894.00,,,,,,,,,,,,0,0,0,,-3120,15868,-104,-125,118,-214
16.826,16.69,-3.21,1.61,-5.55,7.83,-9.70,-4.93,0.26,-6.11,-0.52,234.00,467.00,187.00,176.00,480.00,1075.00,523.00,942.00,,,,,,,,,,,,0,0,0,,-3164,15968,144,-117,43,-150
16.887,16.75,-3.30,-4.39,2.04,-9.81,1.05,-5.06,1.78,-3.99,-1.23,173.00,483.00,144.00,265.00,443.00,1037.00,523.00,883.00,,,,,,,,,,,,0,0,0,,-3156,15968,44,-85,140,-226
16.97,16.80,-3.16,-5.48,4.44,-18.21,14.73,-0.50,-1.92,-2.93,-2.28,155.00,473.00,80.00,256.00,498.00,956.00,543.00,871.00,,,,,,,,,,,,0,0,0,,-3288,15896,-164,-148,25,-161
16.99,16.86,-3.13,0.81,-2.66,1.13,-0.45,-2.53,-2.52,-3.79,-2.19,203.00,446.00,128.00,179.00,534.00,1053.00,549.00,899.00,,,,,,,,,,,,0,0,0,,-3268,15956,-164,-100,127,-102
17.031,16.91,-3.33,-5.32,1.32,-5.64,-4.67,-7.05,3.00,-6.27,0.41,183.00,511.00,182.00,262.00,430.00,1086.00,499.00,925.00,,,,,,,,,,,,0,0,0,,-3224,15904,-40,-87,184,-91
17.092,16.97,-3.28,-9.28,8.27,-21.49,15.84,-2.49,-1.50,-3.54,-1.77,135.00,496.00,80.00,283.00,505.00,1023.00,534.00,880.00,,,,,,,,,,,,0,0,0,,-3184,15928,16,-129,136,-39
17.156,17.02,-3.23,-1.90,-1.00,-3.79,1.20,-2.23,-3.10,-3.98,-2.69,195.00,475.00,128.00,208.00,548.00,1057.00,566.00,918.00,,,,,,,,,,,,0,0,0,,-3108,15984,-212,-57,127,-115
17.195,17.08,-3.39,-4.10,-1.28,-0.51,-7.39,-6.33,0.96,-7.07,0.23,206.00,522.00,192.00,230.00,474.00,1115.00,511.00,959.00,,,,,,,,,,,,0,0,0,,-3164,16012,32,-137,165,-165
17.258,17.13,-3.42,-8.73,4.16,-20.27,7.63,-4.11,0.61,-3.02,-2.48,167.00,542.00,122.00,336.00,464.00,1031.00,550.00,879.00,,,,,,,,,,,,0,0,0,,-3136,15812,-124,-162,-1,-210
17.339,17.19,-3.20,-1.57,-1.02,-10.57,8.60,1.04,-5.18,-3.90,-2.52,194.00,469.00,97.00,223.00,578.00,982.00,560.00,911.00,,,,,,,,,,,,0,0,0,,-3160,15848,68,-85,64,-86
17.359,17.24,-3.27,-1.43,-3.30,7.96,-11.36,-4.59,-0.94,-5.89,-0.16,219.00,496.00,204.00,183.00,509.00,1095.00,511.00,925.00,,,,,,,,,,,,0,0,0,,-3040,15928,-96,-189,286,-123
17.441,17.30,-3.39,-7.02,2.82,-11.64,1.04,-5.79,2.58,-3.20,-1.88,174.00,525.00,149.00,285.00,430.00,1045.00,534.00,871.00,,,,,,,,,,,,0,0,0,,-3092,15880,-28,-92,49,-41
17.481,17.35,-3.25,-6.02,3.92,-20.02,17.54,-0.52,-2.88,-2.46,-2.81,161.00,490.00,71.00,255.00,525.00,982.00,554.00,867.00,,,,,,,,,,,,0,0,0,,-3168,15992,-100,-15,129,-224
17.523,17.41,-3.25,-2.04,-0.08,3.96,-3.58,-3.19,-1.12,-3.70,-2.12,186.00,466.00,144.00,174.00,501.00,1041.00,546.00,894.00,,,,,,,,,,,,0,0,0,,-3220,15896,-236,-125,113,-182
17.584,17.46,-3.45,-4.31,0.19,-5.09,-2.36,-7.35,3.76,-5.74,0.56,191.00,506.00,159.00,241.00,415.00,1077.00,490.00,902.00,,,,,,,,,,,,0,0,0,,-3132,15972,-80,-80,52,-226
17.645,17.52,-3.39,-10.99,9.68,-21.72,17.10,-2.20,-1.19,-3.02,-1.77,129.00,511.00,75.00,276.00,494.00,1003.00,529.00,862.00,,,,,,,,,,,,0,0,0,,-3168,15824,-12,-77,70,-213
17.728,17.57,-3.31,-0.24,-1.28,-0.12,-1.42,-1.76,-3.26,-3.97,-2.47,192.00,448.00,138.00,193.00,548.00,1042.00,559.00,912.00,,,,,,,,,,,,0,0,0,,-3188,15976,-12,-109,43,-143
17.749,17.63,-3.46,-3.68,-0.21,-0.79,-7.77,-6.30,0.72,-6.45,0.43,193.00,499.00,197.00,235.00,480.00,1121.00,500.00,931.00,,,,,,,,,,,,0,0,0,,-3252,15940,-68,-27,168,-111
17.811,17.68,-3.47,-7.81,4.99,-17.15,5.55,-3.78,-0.21,-3.19,-2.99,157.00,511.00,129.00,314.00,482.00,1040.00,567.00,897.00,,,,,,,,,,,,0,0,0,,-3244,15876,-36,-93,172,-47
17.852,17.74,-3.30,-2.15,-0.63,-6.98,3.32,-0.04,-4.56,-3.12,-3.72,192.00,475.00,121.00,223.00,570.00,1008.00,589.00,912.00,,,,,,,,,,,,0,0,0,,-3192,15984,-80,-47,137,-32
17.913,17.79,-3.44,-0.20,-4.05,5.53,-10.90,-6.13,0.13,-6.59,-0.32,223.00,482.00,208.00,199.00,494.00,1131.00,522.00,955.00,,,,,,,,,,,,0,0,0,,-3080,15800,-136,-21,140,-74
17.975,17.85,-3.50,-7.21,2.89,-15.51,4.72,-4.48,2.18,-0.80,-2.30,174.00,528.00,131.00,301.00,429.00,1003.00,523.00,801.00,,,,,,,,,,,,0,0,0,,-3136,16032,-196,-157,122,-147
18.077,17.90,-3.35,-6.65,3.79,-19.41,18.14,-0.61,-2.75,-3.58,-2.47,164.00,504.00,68.00,245.00,522.00,982.00,555.00,898.00,,,,,,,,,,,,0,0,0,,-3120,15892,-180,-174,8,-137
18.097,17.96,-3.35,-2.41,0.54,2.26,-2.75,-3.21,-1.41,-4.57,-1.42,181.00,465.00,142.00,182.00,509.00,1050.00,534.00,908.00,,,,,,,,,,,,0,0,0,,-3024,15952,128,-37,122,-96
18.137,18.01,-3.50,-3.42,0.09,-7.97,-2.08,-6.46,2.93,-4.99,0.12,189.00,490.00,165.00,268.00,427.00,1063.00,495.00,886.00,,,,,,,,,,,,0,0,0,,-3136,15912,-144,-138,205,-111
18.198,18.07,-3.36,-9.39,8.58,-24.98,22.32,-0.72,-2.24,-2.18,-2.40,133.00,494.00,60.00,273.00,509.00,973.00,539.00,848.00,,,,,,,,,,,,0,0,0,,-3112,16104,-12,-32,83,-40
18.239,18.12,-3.30,-0.26,-1.08,1.31,-2.94,-2.18,-2.67,-3.72,-2.58,190.00,446.00,146.00,190.00,535.00,1043.00,560.00,906.00,,,,,,,,,,,,0,0,0,,-2964,15848,-32,-61,132,-179
18.3,18.18,-3.44,-4.46,0.05,-1.16,-6.58,-6.09,1.07,-4.89,-1.10,193.00,511.00,186.00,231.00,469.00,1101.00,528.00,912.00,,,,,,,,,,,,0,0,0,,-3200,15996,-260,-136,67,-139
18.361,18.23,-3.43,-9.93,7.04,-16.21,5.38,-3.26,-0.65,-2.46,-3.11,146.00,526.00,128.00,304.00,489.00,1031.00,563.00,874.00,,,,,,,,,,,,0,0,0,,-3156,15952,-104,-25,148,-241
18.423,18.29,-3.26,-1.37,-0.99,-6.94,2.26,0.11,-4.93,-2.50,-3.51,193.00,465.00,128.00,229.00,580.00,1012.00,576.00,885.00,,,,,,,,,,,,0,0,0,,-3192,15840,-360,-127,65,-239
18.463,18.34,-3.39,-1.23,-3.37,5.04,-12.18,-6.00,0.50,-7.13,0.40,219.00,493.00,225.00,210.00,483.00,1114.00,507.00,957.00,,,,,,,,,,,,0,0,0,,-3136,15928,-156,-146,34,-158
18.526,18.40,-3.49,-9.07,4.38,-18.16,6.92,-5.33,1.58,-4.09,-1.37,166.00,546.00,122.00,315.00,450.00,1054.00,528.00,890.00,,,,,,,,,,,,0,0,0,,-3184,15972,-184,-113,176,-98
18.609,18.45,-3.34,-5.59,3.66,-11.73,7.88,-0.45,-3.32,-3.83,-2.55,162.00,485.00,103.00,238.00,537.00,991.00,560.00,909.00,,,,,,,,,,,,0,0,0,,-3164,15852,-192,-161,161,-21
18.63,18.51,-3.37,-2.24,-0.51,2.31,-5.20,-3.96,-0.93,-5.60,-0.26,191.00,475.00,162.00,194.00,503.00,1068.00,511.00,917.00,,,,,,,,,,,,0,0,0,,-3160,15964,-24,-54,162,-76
18.692,18.56,-3.53,-4.15,0.33,-8.37,-0.79,-6.61,2.39,-4.35,-1.28,189.00,501.00,155.00,263.00,441.00,1085.00,528.00,897.00,,,,,,,,,,,,0,0,0,,-2992,15996,-264,-87,154,-89
18.756,18.62,-3.42,-8.82,6.92,-23.33,20.57,-1.29,-2.12,-3.52,-1.67,144.00,505.00,64.00,268.00,511.00,992.00,531.00,877.00,,,,,,,,,,,,0,0,0,,-3112,15908,-148,-235,66,-199
18.818,18.67,-3.41,0.13,-1.40,1.83,-4.10,-3.33,-2.04,-3.69,-2.29,192.00,443.00,154.00,192.00,528.00,1073.00,551.00,898.00,,,,,,,,,,,,0,0,0,,-3092,15972,72,-156,27,-166
18.84,18.73,-3.60,-4.33,0.00,-2.77,-5.64,-7.20,2.71,-6.07,0.19,193.00,509.00,182.00,240.00,438.00,1101.00,503.00,923.00,,,,,,,,,,,,0,0,0,,-3084,15908,-100,-104,181,-124
18.899,18.78,-3.59,-8.05,5.79,-16.95,8.10,-3.28,-0.34,-2.35,-2.88,151.00,505.00,112.00,291.00,481.00,1023.00,555.00,865.00,,,,,,,,,,,,0,0,0,,-3084,15964,-164,-166,138,-161
18.962,18.84,-3.44,-2.33,-0.77,-7.38,4.07,-0.64,-4.23,-4.20,-2.65,194.00,480.00,117.00,222.00,566.00,1023.00,567.00,925.00,,,,,,,,,,,,0,0,0,,-3076,16128,-32,-41,120,-137
19.024,18.89,-3.60,-1.06,-4.89,2.40,-9.84,-6.63,0.87,-6.70,0.48,237.00,510.00,208.00,219.00,479.00,1131.00,501.00,939.00,,,,,,,,,,,,0,0,0,,-3116,15884,-172,-211,113,-189
19.065,18.95,-3.64,-8.72,3.93,-17.94,6.25,-4.48,0.57,-3.64,-1.66,169.00,545.00,126.00,318.00,468.00,1047.00,532.00,881.00,,,,,,,,,,,,0,0,0,,-3156,15936,48,-182,-7,-170
19.168,19.00,-3.51,-4.01,0.88,-14.53,12.81,-0.96,-3.42,-3.52,-3.20,183.00,491.00,83.00,233.00,545.00,1014.00,577.00,914.00,,,,,,,,,,,,0,0,0,,-3164,15896,-76,-129,133,-229
19.188,19.06,-3.61,-3.00,-0.91,4.46,-8.38,-5.48,0.44,-5.06,-0.97,198.00,495.00,185.00,194.00,480.00,1093.00,526.00,915.00,,,,,,,,,,,,0,0,0,,-3248,15980,-88,-115,70,-185
19.228,19.11,-3.74,-5.46,2.19,-4.93,-3.21,-6.27,2.44,-4.77,-1.07,175.00,502.00,166.00,245.00,437.00,1069.00,526.00,907.00,,,,,,,,,,,,0,0,0,,-3300,15928,-36,-84,143,-95
19.31,19.17,-3.63,-8.63,6.86,-18.79,15.16,-1.48,-1.88,-3.08,-2.37,144.00,502.00,79.00,259.00,506.00,993.00,547.00,878.00,,,,,,,,,,,,0,0,0,,-3200,15984,-116,-85,207,-78
19.351,19.22,-3.58,-1.46,-0.38,6.25,-4.98,-2.62,-2.28,-4.86,-2.20,187.00,459.00,149.00,165.00,528.00,1050.00,560.00,938.00,,,,,,,,,,,,0,0,0,,-3124,15928,52,-139,89,-83
19.392,19.28,-3.77,-4.63,0.30,-4.65,-4.39,-7.36,2.81,-6.62,0.52,191.00,511.00,176.00,250.00,437.00,1105.00,499.00,935.00,,,,,,,,,,,,0,0,0,,-3080,15984,76,-53,132,-83
19.455,19.33,-3.74,-11.57,9.31,-19.52,12.79,-3.19,-0.97,-3.44,-2.21,133.00,528.00,91.00,284.00,497.00,1037.00,546.00,887.00,,,,,,,,,,,,0,0,0,,-3040,15960,-192,-92,217,-132
19.535,19.39,-3.61,-2.42,-1.02,-3.96,-0.13,-1.23,-3.90,-3.29,-2.73,197.00,485.00,138.00,217.00,562.00,1038.00,560.00,894.00,,,,,,,,,,,,0,0,0,,-2992,15952,-128,-206,18,-160
19.557,19.44,-3.76,-3.04,-1.45,0.50,-8.39,-6.47,0.97,-6.02,-0.72,204.00,503.00,199.00,227.00,475.00,1121.00,528.00,944.00,,,,,,,,,,,,0,0,0,,-3128,15900,164,-134,1,-111
19.64,19.50,-3.79,-8.55,3.34,-25.75,15.72,-4.47,0.85,-3.58,-2.33,174.00,550.00,87.00,336.00,461.00,1039.00,551.00,895.00,,,,,,,,,,,,0,0,0,,-3148,15880,76,-205,285,-87
19.68,19.55,-3.62,-2.16,-0.14,-12.59,9.48,-0.33,-4.14,-3.10,-3.22,187.00,469.00,96.00,236.00,560.00,1008.00,573.00,899.00,,,,,,,,,,,,0,0,0,,-3092,15904,-16,-162,124,-93
19.721,19.61,-3.70,-0.82,-3.68,5.53,-10.90,-5.21,-0.25,-5.67,-0.81,221.00,489.00,208.00,199.00,496.00,1102.00,527.00,933.00,,,,,,,,,,,,0,0,0,,-3096,16060,-124,-21,115,-107
19.783,19.66,-3.81,-5.50,1.58,-12.99,1.49,-5.89,1.98,-4.49,-0.99,181.00,511.00,149.00,297.00,445.00,1066.00,521.00,895.00,,,,,,,,,,,,0,0,0,,-3172,15956,48,-164,140,-168
19.845,19.72,-3.69,-6.32,3.91,-16.71,13.55,-1.45,-2.07,-3.20,-2.56,162.00,496.00,83.00,249.00,511.00,997.00,554.00,887.00,,,,,,,,,,,,0,0,0,,-3116,15984,-16,-109,80,-186
19.907,19.77,-3.66,0.80,-1.53,3.86,-4.91,-3.05,-2.14,-4.96,-1.53,191.00,433.00,155.00,181.00,528.00,1064.00,541.00,925.00,,,,,,,,,,,,0,0,0,,-3152,15824,-80,-68,124,-223
19.967,19.83,-3.80,-3.70,-0.11,-5.17,-4.21,-6.55,2.20,-6.80,0.62,192.00,498.00,176.00,254.00,445.00,1088.00,498.00,939.00,,,,,,,,,,,,0,0,0,,-3276,15912,16,-93,38,-128
20.008,19.88,-3.67,-10.36,9.05,-21.60,17.06,-1.12,-2.04,-2.83,-2.85,132.00,507.00,75.00,275.00,507.00,983.00,559.00,881.00,,,,,,,,,,,,0,0,0,,-3120,15900,-24,-73,179,-92
20.089,19.94,-3.61,0.79,-2.28,-2.19,-1.51,-2.50,-2.74,-4.09,-2.98,199.00,442.00,144.00,210.00,540.00,1058.00,576.00,929.00,,,,,,,,,,,,0,0,0,,-3012,15940,-136,-103,171,-92
20.151,19.99,-3.75,-4.37,-0.08,-2.09,-6.17,-6.50,0.98,-6.64,-0.55,194.00,511.00,185.00,237.00,475.00,1122.00,529.00,963.00,,,,,,,,,,,,0,0,0,,-3216,15880,24,-150,91,-107
20.172,20.05,-3.80,-6.42,2.94,-17.38,5.77,-4.67,-0.06,-3.98,-1.62,171.00,511.00,128.00,315.00,486.00,1073.00,534.00,892.00,,,,,,,,,,,,0,0,0,,-3068,15928,-20,-93,91,-86
20.253,20.10,-3.65,-2.90,0.01,-11.58,6.29,-0.72,-4.72,-4.30,-2.91,188.00,481.00,112.00,247.00,582.00,1040.00,576.00,935.00,,,,,,,,,,,,0,0,0,,-3148,16012,-108,-121,154,-158
20.294,20.16,-3.78,-2.29,-2.93,4.00,-10.30,-6.35,0.13,-6.05,-1.23,218.00,508.00,207.00,208.00,496.00,1141.00,543.00,958.00,,,,,,,,,,,,0,0,0,,-3012,15956,-136,-197,36,-236
20.355,20.21,-3.88,-7.18,2.35,-13.51,4.33,-5.68,1.78,-4.50,-1.68,179.00,535.00,129.00,281.00,448.00,1063.00,541.00,912.00,,,,,,,,,,,,0,0,0,,-3228,15804,240,-99,2,-104
20.417,20.27,-3.76,-5.76,3.16,-16.97,13.63,-1.64,-1.68,-3.83,-1.81,167.00,495.00,83.00,251.00,502.00,994.00,538.00,891.00,,,,,,,,,,,,0,0,0,,-3024,15888,268,-197,263,-63
20.457,20.32,-3.77,-1.56,-1.59,3.09,-5.58,-3.89,-1.18,-4.84,-1.67,200.00,476.00,163.00,190.00,509.00,1072.00,544.00,924.00,,,,,,,,,,,,0,0,0,,-3036,16056,-172,-118,106,-82
20.517,20.38,-3.96,-4.94,1.50,-5.88,-1.51,-7.52,3.72,-5.61,-0.04,180.00,501.00,154.00,243.00,417.00,1085.00,505.00,912.00,,,,,,,,,,,,0,0,0,,-3072,16064,-80,38,129,-128
20.578,20.43,-3.85,-11.51,10.89,-25.96,24.60,-1.74,-1.24,-2.08,-3.10,122.00,505.00,54.00,267.00,491.00,986.00,559.00,861.00,,,,,,,,,,,,0,0,0,,-3016,15948,-96,-64,119,-171
20.661,20.49,-3.78,1.02,-2.55,2.00,-3.18,-2.43,-2.59,-3.87,-2.86,201.00,441.00,146.00,186.00,535.00,1051.00,570.00,918.00,,,,,,,,,,,,0,0,0,,-3024,16036,76,-101,34,-175
20.682,20.54,-3.88,-3.40,-0.40,-3.71,-6.21,-5.88,0.46,-6.03,-0.12,194.00,496.00,191.00,253.00,483.00,1110.00,511.00,929.00,,,,,,,,,,,,0,0,0,,-3212,15924,-64,-52,93,-245
20.723,20.60,-3.85,-6.12,3.39,-17.50,7.16,-3.32,-0.89,-7.20,-0.94,166.00,499.00,119.00,305.00,496.00,1040.00,546.00,995.00,,,,,,,,,,,,0,0,0,,-3192,15884,-56,-71,52,-150
20.765,20.65,-3.68,-3.58,0.24,-7.81,2.27,-0.47,-5.05,-3.37,-3.79,188.00,491.00,130.00,237.00,590.00,1039.00,594.00,923.00,,,,,,,,,,,,0,0,0,,-3160,15884,48,-15,167,-85
20.828,20.71,-3.85,-1.38,-3.24,4.39,-11.04,-6.98,1.22,-7.41,0.35,218.00,494.00,214.00,209.00,473.00,1136.00,511.00,969.00,,,,,,,,,,,,0,0,0,,-3028,15792,80,-22,167,-35
20.889,20.76,-3.97,-8.30,3.04,-17.63,6.75,-6.36,2.43,-3.84,-2.24,176.00,549.00,122.00,310.00,438.00,1073.00,551.00,902.00,,,,,,,,,,,,0,0,0,,-3120,15992,-52,-44,154,2
20.93,20.82,-3.81,-5.73,3.26,-14.83,10.04,-0.68,-3.62,-3.33,-3.33,166.00,493.00,97.00,254.00,548.00,1008.00,579.00,910.00,,,,,,,,,,,,0,0,0,,-3040,15952,40,5,159,-74
21.014,20.87,-3.83,-2.17,-1.84,3.34,-5.55,-4.28,-1.12,-5.85,-1.36,205.00,491.00,162.00,188.00,511.00,1087.00,545.00,954.00,,,,,,,,,,,,0,0,0,,-3064,16016,-136,-71,146,-92
21.056,20.93,-4.01,-4.57,1.17,-6.84,-1.89,-7.28,3.04,-6.42,0.31,182.00,498.00,160.00,255.00,431.00,1095.00,503.00,933.00,,,,,,,,,,,,0,0,0,,-3112,15956,-28,-163,80,-114
21.116,20.98,-3.85,-9.89,8.20,-24.17,20.86,-0.91,-2.71,-3.25,-2.58,137.00,509.00,64.00,275.00,524.00,993.00,555.00,889.00,,,,,,,,,,,,0,0,0,,-3036,15996,128,-33,95,-89
21.198,21.04,-3.79,0.51,-2.37,3.85,-4.05,-2.65,-2.62,-4.36,-2.33,201.00,448.00,148.00,177.00,538.00,1061.00,559.00,923.00,,,,,,,,,,,,0,0,0,,-3008,16032,-72,-72,248,-66
21.219,21.09,-3.97,-5.30,0.43,-2.99,-4.84,-7.45,2.38,-7.50,1.34,192.00,523.00,175.00,237.00,448.00,1122.00,485.00,947.00,,,,,,,,,,,,0,0,0,,-2968,15928,-56,-70,134,-57
21.26,21.15,-3.99,-9.36,7.49,-18.38,8.58,-4.28,0.74,-3.32,-2.22,141.00,508.00,112.00,304.00,462.00,1034.00,545.00,883.00,,,,,,,,,,,,0,0,0,,-3064,16036,-132,8,153,-184
21.362,21.20,-3.88,-1.80,-0.75,-6.26,1.75,-1.73,-3.76,-4.26,-2.92,192.00,470.00,130.00,226.00,563.00,1055.00,576.00,934.00,,,,,,,,,,,,0,0,0,,-3020,15944,-152,-182,72,-150
21.383,21.26,-4.05,-1.32,-3.84,2.49,-11.33,-7.40,1.52,-7.28,-0.30,225.00,501.00,225.00,227.00,469.00,1146.00,528.00,981.00,,,,,,,,,,,,0,0,0,,-3004,15952,-184,-51,131,-170
21.445,21.31,-4.10,-9.80,4.85,-17.05,4.82,-5.03,0.64,-4.46,-1.66,164.00,555.00,134.00,319.00,471.00,1068.00,540.00,910.00,,,,,,,,,,,,0,0,0,,-3040,15908,-168,-72,137,-229
21.507,21.37,-3.92,-5.00,2.04,-17.31,12.25,-0.51,-4.24,-4.16,-2.66,175.00,495.00,90.00,264.00,565.00,1018.00,567.00,924.00,,,,,,,,,,,,0,0,0,,-3032,15988,-80,-129,16,-199
21.568,21.42,-3.94,-1.84,-1.95,3.25,-8.46,-4.27,-0.79,-6.02,-0.72,205.00,486.00,190.00,204.00,502.00,1077.00,528.00,944.00,,,,,,,,,,,,0,0,0,,-3148,16008,-76,-165,101,-193
21.589,21.48,-4.07,-3.95,0.26,-10.06,1.14,-6.54,2.07,-6.24,-0.04,189.00,498.00,144.00,267.00,448.00,1091.00,511.00,935.00,,,,,,,,,,,,0,0,0,,-3024,15836,16,-270,99,-52
21.649,21.53,-3.91,-8.50,6.81,-23.58,22.80,-0.98,-2.80,-3.81,-2.12,144.00,500.00,57.00,255.00,527.00,998.00,547.00,898.00,,,,,,,,,,,,0,0,0,,-3024,16040,108,-84,279,-71
21.752,21.59,-3.92,-1.47,-0.27,3.59,-3.45,-3.94,-1.66,-4.43,-2.31,186.00,458.00,144.00,176.00,523.00,1088.00,559.00,925.00,,,,,,,,,,,,0,0,0,,-3008,15904,-156,-46,234,-118
21.772,21.64,-4.07,-4.66,-0.45,-4.80,-4.02,-6.99,2.10,-5.96,-0.14,199.00,522.00,173.00,249.00,451.00,1110.00,511.00,927.00,,,,,,,,,,,,0,0,0,,-3032,15952,-76,-142,51,-180
21.812,21.70,-3.98,-10.99,9.83,-20.39,11.91,-2.29,-1.79,-3.41,-2.59,128.00,509.00,97.00,301.00,511.00,1023.00,557.00,895.00,,,,,,,,,,,,0,0,0,,-3004,15984,-20,-28,137,-243
21.892,21.75,-3.89,-2.43,-0.54,-5.20,-0.63,-2.19,-3.51,-4.49,-2.75,192.00,479.00,145.00,231.00,560.00,1067.00,573.00,938.00,,,,,,,,,,,,0,0,0,,-3048,15972,-312,-112,110,-224
21.954,21.81,-4.08,-4.08,-1.37,3.76,-11.17,-7.65,1.36,-6.97,-0.65,207.00,523.00,218.00,215.00,475.00,1162.00,535.00,978.00,,,,,,,,,,,,0,0,0,,-3028,15940,-80,-166,79,-191
21.995,21.86,-4.14,-9.80,4.52,-18.49,4.89,-5.32,0.93,-3.73,-2.61,167.00,560.00,137.00,337.00,466.00,1072.00,561.00,907.00,,,,,,,,,,,,0,0,0,,-3160,16040,-8,-133,128,-223
22.057,21.92,-3.98,-3.62,0.45,-12.75,6.68,-0.85,-4.70,-3.85,-3.84,186.00,489.00,112.00,256.00,583.00,1045.00,601.00,942.00,,,,,,,,,,,,0,0,0,,-3176,15916,-84,-183,38,-179
22.098,21.97,-4.08,-2.94,-3.13,3.46,-10.20,-6.03,0.25,-7.02,-0.46,223.00,524.00,208.00,212.00,490.00,1123.00,530.00,975.00,,,,,,,,,,,,0,0,0,,-3112,15932,92,-140,70,-104
22.158,22.03,-4.22,-5.22,0.30,-10.24,0.44,-6.96,2.42,-5.40,-1.72,193.00,523.00,150.00,274.00,443.00,1099.00,551.00,946.00,,,,,,,,,,,,0,0,0,,-3016,15968,-64,-148,237,-115
22.199,22.08,-4.12,-6.02,3.47,-20.27,14.97,-2.18,-2.36,-4.68,-2.26,165.00,496.00,82.00,276.00,526.00,1034.00,560.00,933.00,,,,,,,,,,,,0,0,0,,-2936,16008,-80,-102,184,-75
22.262,22.14,-4.14,0.89,-1.75,5.60,-6.42,-4.55,-1.63,-5.10,-2.48,193.00,434.00,163.00,176.00,528.00,1114.00,571.00,954.00,,,,,,,,,,,,0,0,0,,-3024,16012,-152,-60,136,-132
22.323,22.19,-4.35,-5.57,0.33,-7.01,-3.91,-8.25,2.77,-7.53,-0.39,194.00,530.00,179.00,271.00,445.00,1146.00,533.00,993.00,,,,,,,,,,,,0,0,0,,-3108,15940,-104,-71,107,-175
22.384,22.25,-4.28,-12.50,10.33,-20.72,13.40,-2.99,-1.95,-4.26,-2.57,128.00,533.00,90.00,293.00,522.00,1056.00,565.00,925.00,,,,,,,,,,,,0,0,0,,-2980,15980,-68,-113,72,-124
22.465,22.30,-4.23,-1.81,-1.69,-4.95,-0.84,-3.33,-3.09,-5.37,-2.93,202.00,482.00,146.00,230.00,559.00,1104.00,588.00,976.00,,,,,,,,,,,,0,0,0,,-3052,15852,-72,-43,203,-66
22.506,22.36,-4.38,-4.47,-1.15,-1.33,-8.68,-7.22,0.31,-6.55,-1.60,206.00,528.00,209.00,246.00,499.00,1175.00,559.00,987.00,,,,,,,,,,,,0,0,0,,-3124,16072,-84,-244,209,-254
22.527,22.41,-4.38,-9.18,3.87,-17.58,3.67,-4.42,-0.63,-5.21,-2.67,171.00,556.00,144.00,336.00,499.00,1079.00,578.00,963.00,,,,,,,,,,,,0,0,0,,-3028,16040,-88,-170,-50,-164
22.589,22.47,-4.20,-4.32,0.88,-11.85,6.38,-0.70,-4.76,-4.82,-3.24,184.00,497.00,112.00,249.00,583.00,1040.00,592.00,963.00,,,,,,,,,,,,0,0,0,,-3036,15984,116,-67,79,-87
22.652,22.52,-4.31,-2.04,-2.41,5.47,-11.91,-6.31,0.23,-7.16,-0.89,211.00,496.00,220.00,205.00,493.00,1136.00,544.00,992.00,,,,,,,,,,,,0,0,0,,-3016,15888,-4,-173,271,-115
22.693,22.58,-4.41,-8.63,3.26,-10.85,-2.41,-6.42,1.82,-5.69,-1.22,175.00,553.00,177.00,303.00,453.00,1093.00,539.00,944.00,,,,,,,,,,,,0,0,0,,-3080,16008,-148,-106,65,-127
22.775,22.63,-4.30,-5.23,2.22,-20.40,15.70,-2.27,-2.26,-4.99,-2.68,174.00,497.00,79.00,272.00,524.00,1035.00,576.00,955.00,,,,,,,,,,,,0,0,0,,-3004,15872,-20,-55,111,-212
22.878,22.69,-4.32,-2.34,0.12,1.22,-5.83,-4.61,-1.01,-5.99,-1.79,185.00,469.00,171.00,206.00,511.00,1098.00,559.00,970.00,,,,,,,,,,,,0,0,0,,-3052,15948,96,-163,68,-169
22.899,22.74,-4.50,-5.32,1.32,-6.30,-3.41,-7.90,3.07,-6.80,-0.32,183.00,511.00,172.00,260.00,435.00,1121.00,524.00,963.00,,,,,,,,,,,,0,0,0,,-3032,15972,32,-45,89,-163
22.941,22.80,-4.43,-12.44,10.46,-26.91,21.78,-3.10,-0.97,-4.31,-2.28,127.00,530.00,64.00,299.00,496.00,1033.00,557.00,920.00,,,,,,,,,,,,0,0,0,,-3052,15916,-8,-99,88,-187
22.983,22.85,-4.34,-0.56,-2.11,-0.64,-2.54,-2.74,-3.43,-5.57,-2.51,202.00,464.00,148.00,203.00,563.00,1088.00,577.00,973.00,,,,,,,,,,,,0,0,0,,-3108,15844,52,-113,66,-102
23.045,22.91,-4.48,-6.70,1.09,-4.13,-7.47,-7.01,0.57,-7.35,-0.69,190.00,543.00,206.00,266.00,490.00,1157.00,540.00,994.00,,,,,,,,,,,,0,0,0,,-3088,15880,-68,-79,205,-85
23.107,22.96,-4.50,-8.62,3.79,-18.10,4.76,-5.03,0.02,-5.17,-2.06,170.00,545.00,137.00,333.00,487.00,1086.00,559.00,946.00,,,,,,,,,,,,0,0,0,,-3024,15964,-64,-164,132,-72
23.149,23.02,-4.37,-2.75,-0.91,-12.50,6.60,-1.92,-4.12,-4.90,-3.74,197.00,490.00,112.00,254.00,576.00,1073.00,609.00,979.00,,,,,,,,,,,,0,0,0,,-2988,16028,-52,-75,107,-114
23.233,23.07,-4.49,-2.96,-3.45,2.78,-10.58,-6.69,-0.27,-7.43,-1.23,227.00,529.00,215.00,220.00,510.00,1169.00,557.00,1012.00,,,,,,,,,,,,0,0,0,,-3020,15960,52,-114,143,-218
23.254,23.13,-4.58,-8.03,2.23,-17.48,3.63,-6.32,1.35,-5.27,-2.06,183.00,555.00,144.00,335.00,464.00,1103.00,560.00,950.00,,,,,,,,,,,,0,0,0,,-3080,15876,-20,-165,-35,-169
23.316,23.18,-4.41,-8.28,4.68,-17.32,14.90,-1.13,-3.50,-5.19,-2.22,161.00,525.00,78.00,246.00,549.00,1023.00,564.00,951.00,,,,,,,,,,,,0,0,0,,-3140,15900,316,-103,63,-110
23.356,23.24,-4.39,-4.40,1.52,3.81,-6.04,-4.05,-1.80,-5.17,-2.06,178.00,490.00,165.00,187.00,528.00,1097.00,559.00,946.00,,,,,,,,,,,,0,0,0,,-3092,16048,76,-123,295,-119
23.417,23.29,-4.57,-6.29,1.75,-6.65,-3.18,-8.01,3.80,-5.96,-0.53,182.00,525.00,171.00,262.00,419.00,1104.00,522.00,937.00,,,,,,,,,,,,0,0,0,,-3104,16048,4,-14,105,-56
23.5,23.35,-4.42,-12.18,9.80,-21.72,15.91,-1.53,-2.47,-3.40,-2.69,131.00,534.00,80.00,285.00,523.00,1011.00,560.00,897.00,,,,,,,,,,,,0,0,0,,-2988,16004,164,16,111,-228
23.52,23.40,-4.38,-0.55,-2.20,1.44,-4.68,-3.69,-2.03,-4.79,-2.94,203.00,465.00,160.00,198.00,531.00,1088.00,582.00,954.00,,,,,,,,,,,,0,0,0,,-3040,15948,16,-122,83,-159
23.582,23.46,-4.50,-6.13,0.80,-5.85,-5.20,-6.76,1.42,-7.03,0.22,191.00,535.00,188.00,268.00,466.00,1120.00,511.00,958.00,,,,,,,,,,,,0,0,0,,-3048,16036,160,-65,54,-211
23.624,23.51,-4.49,-8.05,3.71,-17.24,7.39,-4.25,-0.58,-5.22,-2.15,169.00,534.00,117.00,300.00,496.00,1070.00,562.00,950.00,,,,,,,,,,,,0,0,0,,-3048,15852,0,-65,112,-189
23.684,23.57,-4.37,-2.27,-1.16,-12.29,5.56,-2.14,-3.76,-4.63,-3.52,198.00,484.00,118.00,259.00,567.00,1072.00,599.00,963.00,,,,,,,,,,,,0,0,0,,-3228,15936,112,-65,46,-90
23.744,23.62,-4.49,-3.11,-3.16,1.43,-10.89,-6.79,-0.17,-8.03,0.06,224.00,528.00,224.00,234.00,508.00,1170.00,525.00,1001.00,,,,,,,,,,,,0,0,0,,-3152,15792,-16,-30,157,-66
23.806,23.68,-4.54,-9.41,4.61,-15.78,3.06,-5.41,0.97,-5.51,-1.51,165.00,550.00,144.00,318.00,466.00,1075.00,546.00,945.00,,,,,,,,,,,,0,0,0,,-3108,15896,0,-71,167,4
23.887,23.73,-4.40,-7.18,2.56,-15.25,10.37,-1.72,-3.57,-3.91,-3.64,177.00,532.00,96.00,256.00,557.00,1049.00,595.00,939.00,,,,,,,,,,,,0,0,0,,-2916,15944,80,-48,171,-9
23.95,23.79,-4.42,-2.92,-1.85,-0.53,-6.69,-4.85,-0.93,-5.60,-1.62,208.00,506.00,185.00,226.00,511.00,1106.00,550.00,951.00,,,,,,,,,,,,0,0,0,,-3056,15944,-84,-66,193,-89
23.969,23.84,-4.57,-6.38,1.88,-8.81,0.72,-7.34,2.38,-6.34,-0.96,181.00,525.00,144.00,257.00,447.00,1117.00,538.00,962.00,,,,,,,,,,,,0,0,0,,-3000,15864,180,-103,87,-60
24.011,23.90,-4.44,-8.36,6.77,-22.83,19.29,-1.97,-1.89,-3.57,-2.43,144.00,498.00,68.00,272.00,511.00,1013.00,554.00,897.00,,,,,,,,,,,,0,0,0,,-3008,15904,100,120,271,13
24.137,23.95,-4.37,-0.96,-1.03,2.69,-4.39,-3.18,-2.75,-5.07,-2.36,192.00,458.00,154.00,187.00,547.00,1087.00,567.00,950.00,,,,,,,,,,,,0,0,0,,-2860,15976,-108,76,472,10
24.157,24.01,-4.56,-4.60,-0.75,-4.88,-4.93,-8.19,3.00,-7.54,0.39,202.00,525.00,182.00,256.00,439.00,1136.00,511.00,973.00,,,,,,,,,,,,0,0,0,,-2908,15788,-236,120,278,90
24.198,24.06,-4.56,-10.85,8.26,-18.38,8.58,-4.49,-0.50,-4.34,-2.60,139.00,528.00,112.00,304.00,496.00,1078.00,567.00,929.00,,,,,,,,,,,,0,0,0,,-2908,15988,-20,148,277,-85
24.259,24.12,-4.43,-3.49,0.11,-1.18,-7.82,-1.97,-4.04,-3.98,-3.02,189.00,491.00,199.00,239.00,574.00,1073.00,576.00,926.00,,,,,,,,,,,,0,0,0,,-2988,16028,-100,45,258,-3
24.321,24.17,-4.56,-2.26,-3.19,1.93,-11.62,-7.05,0.70,-7.38,-0.23,221.00,511.00,231.00,234.00,487.00,1155.00,527.00,983.00,,,,,,,,,,,,0,0,0,,-2884,15956,-172,141,299,-64
24.342,24.23,-4.67,-8.72,3.18,-18.64,6.93,-6.68,3.00,-4.34,-2.41,176.00,556.00,123.00,321.00,427.00,1070.00,561.00,924.00,,,,,,,,,,,,0,0,0,,-2852,15996,-272,174,301,-50
24.404,24.28,-4.52,-5.24,1.50,-12.04,8.35,-1.63,-3.20,-3.73,-3.26,181.00,507.00,101.00,238.00,545.00,1035.00,581.00,923.00,,,,,,,,,,,,0,0,0,,-2860,15932,-276,107,198,-56
24.468,24.34,-4.58,-2.20,-2.62,1.81,-6.87,-5.77,-0.07,-6.24,-1.60,214.00,502.00,179.00,207.00,496.00,1121.00,556.00,975.00,,,,,,,,,,,,0,0,0,,-2804,15892,-364,75,324,-6
24.508,24.39,-4.74,-5.30,0.43,-9.87,0.44,-7.85,3.10,-5.83,-0.93,192.00,523.00,149.00,270.00,434.00,1118.00,532.00,942.00,,,,,,,,,,,,0,0,0,,-2848,15960,-396,49,402,52
24.569,24.45,-4.58,-8.73,5.06,-20.08,16.07,-1.40,-3.04,-4.00,-2.42,159.00,529.00,77.00,266.00,538.00,1021.00,558.00,912.00,,,,,,,,,,,,0,0,0,,-2896,16144,-372,-21,414,7
24.63,24.50,-4.54,-3.11,0.78,0.62,-2.71,-3.90,-1.78,-5.14,-2.30,181.00,475.00,146.00,194.00,526.00,1090.00,566.00,951.00,,,,,,,,,,,,0,0,0,,-2872,15972,-400,-55,305,24
24.671,24.56,-4.71,-5.64,0.64,-5.33,-4.26,-7.97,2.68,-6.38,-0.42,191.00,527.00,177.00,256.00,445.00,1136.00,523.00,950.00,,,,,,,,,,,,0,0,0,,-2808,16012,-332,-17,194,39
24.732,24.61,-4.66,-10.98,8.30,-23.13,15.71,-3.72,-0.75,-3.43,-3.14,139.00,530.00,83.00,303.00,496.00,1053.00,574.00,909.00,,,,,,,,,,,,0,0,0,,-2840,16084,-476,30,217,-68
24.793,24.67,-4.55,-3.17,-0.29,-4.94,-0.20,-2.34,-3.40,-4.89,-2.35,192.00,490.00,141.00,226.00,558.00,1070.00,565.00,943.00,,,,,,,,,,,,0,0,0,,-2688,15980,-456,-33,141,-82
24.854,24.72,-4.69,-4.72,-0.43,0.96,-8.73,-7.42,1.44,-6.86,-0.26,199.00,523.00,201.00,225.00,471.00,1149.00,523.00,964.00,,,,,,,,,,,,0,0,0,,-2740,16016,-432,30,170,-157
24.895,24.78,-4.73,-8.86,3.87,-18.62,5.77,-5.50,1.19,-3.47,-2.99,170.00,549.00,131.00,331.00,461.00,1072.00,570.00,907.00,,,,,,,,,,,,0,0,0,,-2716,15968,-328,-39,140,-86
24.958,24.83,-4.56,-3.74,0.09,-15.56,11.26,-1.21,-4.01,-3.88,-3.52,190.00,496.00,92.00,253.00,565.00,1040.00,591.00,935.00,,,,,,,,,,,,0,0,0,,-2792,16068,-440,-50,127,-79
25.06,24.89,-4.63,-1.14,-3.74,4.63,-10.86,-6.15,0.06,-7.06,-0.55,223.00,496.00,211.00,206.00,496.00,1134.00,533.00,979.00,,,,,,,,,,,,0,0,0,,-2796,16032,-380,0,44,-170
25.081,24.94,-4.73,-7.64,2.82,-10.90,-1.20,-6.45,2.04,-5.54,-0.92,176.00,538.00,166.00,294.00,448.00,1088.00,529.00,931.00,,,,,,,,,,,,0,0,0,,-2840,15960,-572,-45,54,-236
25.121,25.00,-4.60,-9.14,6.15,-18.99,14.32,-2.16,-1.46,-3.85,-2.64,151.00,522.00,83.00,267.00,501.00,1009.00,563.00,912.00,,,,,,,,,,,,0,0,0,,-2832,15944,-544,-93,16,-164
25.203,25.05,-4.56,-1.55,-1.12,7.13,-7.60,-3.93,-1.84,-5.40,-1.92,195.00,470.00,169.00,171.00,528.00,1093.00,557.00,951.00,,,,,,,,,,,,0,0,0,,-2884,16088,-376,-180,78,-40
25.224,25.11,-4.73,-6.22,1.42,-4.97,-4.80,-7.91,3.42,-7.96,0.94,185.00,528.00,181.00,256.00,427.00,1111.00,500.00,975.00,,,,,,,,,,,,0,0,0,,-2784,16028,-316,-33,145,-83
25.286,25.16,-4.65,-10.50,8.95,-21.35,13.21,-3.01,-0.73,-2.91,-2.82,133.00,511.00,92.00,302.00,489.00,1023.00,559.00,883.00,,,,,,,,,,,,0,0,0,,-2804,16016,-256,-28,132,-139
25.347,25.22,-4.56,-1.64,-0.51,-4.60,1.33,-2.91,-2.84,-5.62,-1.94,189.00,464.00,129.00,214.00,547.00,1078.00,560.00,960.00,,,,,,,,,,,,0,0,0,,-2720,16044,-448,-32,76,-177
25.451,25.27,-4.69,-4.98,-0.62,-1.48,-7.53,-7.22,1.38,-6.13,-1.03,202.00,531.00,197.00,240.00,471.00,1142.00,538.00,956.00,,,,,,,,,,,,0,0,0,,-2768,16084,-580,61,100,-222
25.491,25.33,-4.73,-8.62,3.05,-16.89,3.44,-5.51,1.32,-5.07,-2.13,177.00,556.00,144.00,329.00,458.00,1069.00,560.00,944.00,,,,,,,,,,,,0,0,0,,-2792,16036,-412,-77,71,-213
25.512,25.38,-4.54,-4.00,0.18,-11.05,6.11,-0.95,-4.42,-4.18,-3.64,190.00,500.00,112.00,243.00,575.00,1041.00,598.00,949.00,,,,,,,,,,,,0,0,0,,-2768,15984,-428,-17,127,-194
25.553,25.44,-4.64,-2.04,-2.41,3.08,-10.86,-6.47,-0.01,-6.20,-1.58,211.00,496.00,217.00,219.00,501.00,1151.00,555.00,973.00,,,,,,,,,,,,0,0,0,,-2852,16028,-548,-62,127,-218
25.615,25.49,-4.72,-7.79,2.98,-14.95,2.91,-6.35,1.52,-5.39,-1.42,175.00,539.00,143.00,309.00,460.00,1099.00,542.00,938.00,,,,,,,,,,,,0,0,0,,-2804,16000,-576,-124,-30,-163
25.676,25.55,-4.61,-6.62,3.89,-16.48,12.18,-2.37,-2.30,-4.98,-2.06,163.00,502.00,89.00,256.00,526.00,1040.00,557.00,939.00,,,,,,,,,,,,0,0,0,,-2812,15992,-340,-126,105,-93
25.717,25.60,-4.62,-2.14,-1.11,5.89,-6.86,-4.82,-0.94,-5.83,-1.71,197.00,481.00,166.00,176.00,511.00,1105.00,555.00,962.00,,,,,,,,,,,,0,0,0,,-2728,16096,-480,-184,217,-104
25.82,25.66,-4.79,-6.04,1.16,-8.33,-1.96,-8.08,3.01,-6.79,-0.29,187.00,528.00,165.00,271.00,438.00,1131.00,523.00,962.00,,,,,,,,,,,,0,0,0,,-2776,16112,-364,-86,136,-142
25.841,25.71,-4.71,-10.98,8.30,-25.49,20.18,-3.13,-1.07,-3.12,-3.30,139.00,530.00,68.00,295.00,499.00,1037.00,576.00,902.00,,,,,,,,,,,,0,0,0,,-2784,16056,-432,-60,55,-148
25.882,25.77,-4.62,-0.16,-2.69,-2.96,-1.25,-2.92,-3.27,-5.15,-3.10,207.00,464.00,144.00,215.00,560.00,1091.00,591.00,972.00,,,,,,,,,,,,0,0,0,,-2808,15992,-508,-63,57,-202
25.943,25.82,-4.73,-5.89,1.01,-6.83,-3.76,-6.92,0.32,-7.58,-0.20,188.00,527.00,177.00,268.00,496.00,1161.00,528.00,990.00,,,,,,,,,,,,0,0,0,,-2776,16164,-492,-153,102,-319
26.004,25.88,-4.73,-12.25,8.73,-17.47,6.39,-4.61,-0.12,-4.74,-2.53,139.00,551.00,124.00,311.00,487.00,1072.00,569.00,942.00,,,,,,,,,,,,0,0,0,,-2820,16056,-564,-238,-9,-293
26.046,25.93,-4.59,-2.43,-1.39,-9.81,5.69,-2.00,-3.97,-3.97,-3.99,201.00,490.00,112.00,234.00,572.00,1072.00,607.00,950.00,,,,,,,,,,,,0,0,0,,-2780,15952,-212,-101,-25,-158
26.148,25.99,-4.73,-2.71,-2.53,4.72,-12.24,-7.43,1.33,-7.46,-0.82,215.00,511.00,227.00,213.00,474.00,1153.00,545.00,1002.00,,,,,,,,,,,,0,0,0,,-2740,15972,-476,-101,202,-171
26.169,26.04,-4.80,-8.68,2.86,-15.26,2.89,-5.99,1.68,-5.46,-0.91,179.00,560.00,144.00,313.00,453.00,1079.00,528.00,928.00,,,,,,,,,,,,0,0,0,,-2880,15972,-568,-110,82,-158
26.21,26.10,-4.72,-5.74,2.61,-20.27,17.63,-3.29,-0.67,-4.55,-2.53,172.00,502.00,71.00,257.00,490.00,1033.00,567.00,935.00,,,,,,,,,,,,0,0,0,,-2892,16016,-240,-4,39,-244
26.27,26.15,-4.68,-1.63,-1.56,5.61,-6.65,-3.90,-2.06,-5.69,-1.75,200.00,477.00,165.00,177.00,534.00,1098.00,555.00,958.00,,,,,,,,,,,,0,0,0,,-2916,15968,-520,-138,80,-203
26.333,26.21,-4.83,-5.32,1.32,-6.79,-1.68,-7.70,3.35,-7.10,0.80,183.00,511.00,158.00,253.00,427.00,1104.00,496.00,946.00,,,,,,,,,,,,0,0,0,,-2908,16096,-320,-86,106,-264
26.375,26.26,-4.72,-11.50,10.44,-24.11,18.41,-2.68,-1.62,-3.75,-2.37,125.00,511.00,73.00,293.00,510.00,1034.00,554.00,902.00,,,,,,,,,,,,0,0,0,,-2776,16108,-520,-49,69,-264
26.457,26.32,-4.65,-0.67,-1.70,0.07,-2.65,-3.27,-2.58,-5.30,-2.21,198.00,461.00,147.00,198.00,543.00,1086.00,565.00,955.00,,,,,,,,,,,,0,0,0,,-2956,15984,-384,-46,55,-232
26.518,26.37,-4.79,-6.17,1.20,-3.88,-5.96,-7.49,1.39,-7.94,0.53,187.00,530.00,189.00,253.00,473.00,1154.00,511.00,985.00,,,,,,,,,,,,0,0,0,,-2936,15972,-468,-72,115,-128
26.539,26.43,-4.80,-8.21,4.43,-17.24,6.16,-5.03,0.06,-4.82,-2.38,163.00,527.00,125.00,310.00,486.00,1085.00,565.00,941.00,,,,,,,,,,,,0,0,0,,-2796,15940,-468,-99,125,-93
26.601,26.48,-4.66,-2.92,-1.85,-9.66,4.52,-1.85,-4.15,-5.10,-3.36,208.00,506.00,119.00,240.00,576.00,1071.00,599.00,977.00,,,,,,,,,,,,0,0,0,,-2912,16040,-476,-121,162,-129
26.685,26.54,-4.76,-3.70,-1.94,2.93,-11.47,-6.67,0.23,-7.81,-0.19,212.00,523.00,225.00,224.00,496.00,1152.00,530.00,999.00,,,,,,,,,,,,0,0,0,,-2812,15880,-576,-149,75,-210
26.705,26.59,-4.80,-9.24,3.89,-16.48,4.22,-5.67,1.41,-5.56,-1.33,171.00,557.00,137.00,317.00,457.00,1073.00,541.00,942.00,,,,,,,,,,,,0,0,0,,-2892,15988,-440,-129,-49,-154
26.766,26.65,-4.63,-5.37,2.06,-16.03,13.77,-1.37,-3.08,-5.22,-2.18,176.00,502.00,81.00,241.00,539.00,1021.00,563.00,951.00,,,,,,,,,,,,0,0,0,,-2844,15944,-268,-160,202,-126
26.828,26.70,-4.64,-2.28,-0.20,1.76,-4.20,-4.79,-0.51,-5.60,-1.35,188.00,472.00,155.00,193.00,499.00,1091.00,542.00,944.00,,,,,,,,,,,,0,0,0,,-2724,16096,-460,-194,161,-99
26.89,26.76,-4.76,-6.63,2.17,-10.66,1.47,-6.97,2.89,-5.80,-0.72,179.00,526.00,143.00,271.00,432.00,1086.00,526.00,936.00,,,,,,,,,,,,0,0,0,,-2920,16068,-464,-55,128,-43
26.95,26.81,-4.63,-11.24,10.20,-29.19,27.86,-2.16,-1.54,-3.40,-2.69,126.00,509.00,48.00,278.00,503.00,1011.00,560.00,897.00,,,,,,,,,,,,0,0,0,,-2836,15996,-412,-201,111,-150
27.01,26.87,-4.58,0.53,-2.65,-0.10,-2.21,-3.63,-1.94,-5.07,-2.13,204.00,451.00,144.00,197.00,528.00,1083.00,560.00,944.00,,,,,,,,,,,,0,0,0,,-2796,16020,-352,-185,52,-151
27.052,26.92,-4.68,-5.78,0.78,-5.52,-3.99,-6.70,1.84,-7.52,0.86,190.00,528.00,175.00,256.00,455.00,1105.00,498.00,960.00,,,,,,,,,,,,0,0,0,,-2908,15944,-316,-103,61,-191
27.115,26.98,-4.65,-7.21,2.68,-14.90,4.94,-3.97,-0.18,-4.05,-2.34,176.00,531.00,128.00,292.00,483.00,1047.00,556.00,912.00,,,,,,,,,,,,0,0,0,,-2836,15964,-228,-186,36,-170
27.177,27.03,-4.49,-4.21,0.65,-8.60,2.97,-1.59,-3.94,-5.09,-2.61,186.00,498.00,127.00,240.00,567.00,1054.00,575.00,957.00,,,,,,,,,,,,0,0,0,,-2976,15928,-364,-108,126,-133
27.26,27.09,-4.62,-3.28,-2.77,3.01,-10.57,-7.01,1.03,-7.08,-0.43,220.00,526.00,214.00,218.00,478.00,1143.00,530.00,977.00,,,,,,,,,,,,0,0,0,,-2884,15984,-360,-114,141,-130
27.282,27.14,-4.67,-7.64,2.61,-16.67,4.15,-5.72,1.35,-5.45,-1.12,178.00,541.00,138.00,320.00,459.00,1077.00,534.00,933.00,,,,,,,,,,,,0,0,0,,-2824,15936,-316,-111,87,-67
27.322,27.20,-4.53,-6.64,3.57,-14.74,10.20,-1.76,-3.26,-5.38,-2.03,166.00,507.00,96.00,252.00,548.00,1042.00,560.00,953.00,,,,,,,,,,,,0,0,0,,-2820,16036,-364,-98,198,-85
27.384,27.25,-4.54,-2.35,-1.96,3.64,-6.97,-4.79,-0.95,-5.72,-1.17,207.00,496.00,174.00,193.00,511.00,1104.00,538.00,944.00,,,,,,,,,,,,0,0,0,,-2812,15912,-536,-210,95,-219
27.445,27.31,-4.67,-4.71,0.42,-5.52,-3.99,-7.07,2.97,-6.58,0.18,190.00,511.00,175.00,256.00,431.00,1088.00,508.00,942.00,,,,,,,,,,,,0,0,0,,-2924,16044,-136,-154,-66,-142
27.507,27.36,-4.51,-9.07,7.66,-25.51,21.89,-1.44,-1.67,-3.55,-2.34,139.00,500.00,62.00,282.00,500.00,986.00,551.00,894.00,,,,,,,,,,,,0,0,0,,-2880,16024,-196,-137,193,-122
27.548,27.42,-4.42,0.13,-1.40,3.44,-4.28,-2.74,-2.38,-5.01,-2.21,192.00,443.00,151.00,181.00,532.00,1058.00,562.00,944.00,,,,,,,,,,,,0,0,0,,-2780,15948,-284,-160,175,-110
27.631,27.47,-4.54,-3.98,0.08,-4.32,-3.97,-6.74,1.94,-6.97,0.64,191.00,501.00,171.00,244.00,453.00,1104.00,499.00,945.00,,,,,,,,,,,,0,0,0,,-2800,16028,-228,9,98,-61
27.652,27.53,-4.49,-10.14,7.50,-19.62,12.43,-3.57,-0.73,-4.61,-1.65,143.00,524.00,93.00,288.00,494.00,1046.00,541.00,915.00,,,,,,,,,,,,0,0,0,,-2856,16048,-296,-159,135,-177
27.694,27.58,-4.33,-2.48,-0.23,-8.48,2.78,-1.40,-3.98,-4.21,-2.84,189.00,476.00,128.00,240.00,566.00,1047.00,573.00,930.00,,,,,,,,,,,,0,0,0,,-2852,16064,-348,-164,40,-137
27.776,27.64,-4.47,-2.45,-2.62,3.38,-10.44,-7.02,0.92,-7.08,-0.37,215.00,507.00,211.00,214.00,481.00,1147.00,528.00,975.00,,,,,,,,,,,,0,0,0,,-2820,16100,-232,-72,112,-230
27.839,27.69,-4.50,-8.27,2.93,-19.98,7.53,-5.20,1.21,-4.03,-2.38,177.00,550.00,122.00,333.00,458.00,1059.00,557.00,912.00,,,,,,,,,,,,0,0,0,,-2960,15960,-328,-151,40,-154
27.882,27.75,-4.33,-6.16,2.86,-13.48,10.16,-0.96,-4.16,-3.02,-3.91,171.00,507.00,94.00,240.00,567.00,1034.00,594.00,913.00,,,,,,,,,,,,0,0,0,,-2816,15988,-244,-113,119,-125
28.003,27.80,-4.38,-1.72,-2.43,4.97,-8.34,-5.31,-0.15,-5.93,-0.82,210.00,490.00,183.00,190.00,494.00,1103.00,530.00,943.00,,,,,,,,,,,,0,0,0,,-2788,15896,-460,-97,159,-115
28.024,27.86,-4.48,-4.63,0.59,-17.15,4.85,-6.53,2.61,-5.00,-1.07,188.00,507.00,134.00,320.00,435.00,1075.00,528.00,915.00,,,,,,,,,,,,0,0,0,,-2912,16040,-304,-133,79,-97
28.045,27.91,-4.37,-9.29,7.47,-24.76,21.06,-2.16,-1.35,-3.86,-1.97,141.00,507.00,64.00,280.00,498.00,1006.00,543.00,896.00,,,,,,,,,,,,0,0,0,,-2852,15932,-172,-123,128,-75
28.106,27.97,-4.33,-1.08,-0.60,-8.90,1.01,-3.72,-1.91,-5.33,-1.74,188.00,455.00,142.00,256.00,528.00,1086.00,551.00,944.00,,,,,,,,,,,,0,0,0,,-2740,16004,-268,-177,133,-210
28.166,28.02,-4.50,-5.43,0.47,-6.15,-3.35,-7.67,3.17,-6.69,0.11,192.00,525.00,171.00,258.00,431.00,1108.00,511.00,948.00,,,,,,,,,,,,0,0,0,,-2924,15984,-364,-201,4,-212
28.206,28.08,-4.45,-11.50,9.43,-23.29,16.44,-3.51,-0.71,-3.85,-1.90,132.00,525.00,80.00,299.00,493.00,1043.00,541.00,894.00,,,,,,,,,,,,0,0,0,,-2888,15928,-52,-151,9,-110
28.269,28.13,-4.33,-2.39,-0.74,-4.45,-0.75,-1.93,-3.30,-4.72,-2.61,194.00,481.00,144.00,225.00,551.00,1050.00,571.00,943.00,,,,,,,,,,,,0,0,0,,-2912,15956,-376,-210,206,-119
28.351,28.19,-4.43,-3.50,-2.44,3.54,-12.87,-6.37,0.82,-8.04,0.74,217.00,526.00,240.00,227.00,478.00,1121.00,506.00,983.00,,,,,,,,,,,,0,0,0,,-2824,16024,-164,-153,77,-122
28.372,28.24,-4.46,-9.55,5.22,-16.73,5.41,-5.05,0.92,-4.17,-1.96,160.00,544.00,129.00,310.00,464.00,1061.00,546.00,907.00,,,,,,,,,,,,0,0,0,,-2860,16108,-312,-55,141,-167
28.413,28.30,-4.25,-4.26,0.86,-15.79,12.80,-0.26,-3.83,-4.68,-2.26,184.00,496.00,85.00,245.00,550.00,997.00,560.00,933.00,,,,,,,,,,,,0,0,0,,-2864,15956,-248,-172,105,-189
28.475,28.35,-4.29,-2.11,-2.30,5.68,-6.33,-5.03,-0.43,-6.07,-0.81,210.00,496.00,162.00,175.00,499.00,1099.00,531.00,948.00,,,,,,,,,,,,0,0,0,,-2892,16084,-136,-120,40,-200
28.536,28.41,-4.39,-5.18,1.99,-9.19,0.84,-6.32,2.37,-4.80,-1.20,176.00,499.00,144.00,260.00,439.00,1073.00,530.00,911.00,,,,,,,,,,,,0,0,0,,-2872,15952,-292,-110,74,-212
28.618,28.46,-4.25,-7.45,5.34,-18.59,14.86,-1.64,-1.49,-4.60,-1.38,153.00,499.00,80.00,259.00,497.00,989.00,533.00,908.00,,,,,,,,,,,,0,0,0,,-2992,15984,-68,-136,51,-146
28.639,28.52,-4.23,-1.31,-0.91,5.69,-5.04,-3.83,-1.27,-4.83,-2.04,192.00,463.00,151.00,169.00,511.00,1072.00,555.00,933.00,,,,,,,,,,,,0,0,0,,-2932,15848,-232,-112,164,-85
28.721,28.57,-4.39,-5.07,-0.12,-5.42,-4.13,-7.51,3.07,-7.09,0.42,197.00,526.00,176.00,256.00,432.00,1104.00,506.00,955.00,,,,,,,,,,,,0,0,0,,-2788,15972,-392,-160,145,-72
28.742,28.63,-4.37,-11.12,9.87,-23.15,16.86,-3.94,-0.19,-4.15,-1.66,128.00,511.00,78.00,294.00,483.00,1046.00,537.00,899.00,,,,,,,,,,,,0,0,0,,-2840,16012,-268,-195,132,-89
28.805,28.68,-4.27,-3.35,-0.33,-9.11,4.34,-2.33,-3.10,-4.75,-2.56,193.00,494.00,119.00,236.00,549.00,1061.00,570.00,943.00,,,,,,,,,,,,0,0,0,,-2744,15988,-152,-141,139,-100
28.866,28.74,-4.43,-5.11,-0.20,1.66,-9.59,-7.40,1.13,-7.45,-0.34,198.00,528.00,208.00,224.00,479.00,1158.00,531.00,989.00,,,,,,,,,,,,0,0,0,,-2724,16176,-188,-174,186,-163
28.907,28.79,-4.47,-9.51,4.09,-20.91,7.70,-5.40,1.08,-4.47,-1.96,170.00,560.00,123.00,344.00,463.00,1071.00,549.00,918.00,,,,,,,,,,,,0,0,0,,-2868,16040,-328,-231,54,-251
28.969,28.85,-4.26,-5.11,1.97,-14.82,10.61,-0.13,-4.44,-4.26,-2.92,176.00,498.00,94.00,250.00,567.00,1008.00,576.00,934.00,,,,,,,,,,,,0,0,0,,-2848,15960,-72,-128,-37,-153
29.031,28.90,-4.32,-0.81,-3.76,4.62,-8.02,-5.48,-0.16,-5.51,-1.27,222.00,490.00,181.00,191.00,496.00,1111.00,539.00,939.00,,,,,,,,,,,,0,0,0,,-2916,16016,-184,-162,231,-92
29.093,28.96,-4.42,-4.97,0.80,-7.87,-0.96,-6.29,2.36,-5.74,-0.14,187.00,511.00,155.00,259.00,439.00,1072.00,509.00,919.00,,,,,,,,,,,,0,0,0,,-2756,15860,-288,-189,195,-78
29.133,29.01,-4.27,-8.82,6.92,-20.15,14.93,-1.47,-1.51,-4.28,-1.31,144.00,505.00,82.00,275.00,496.00,983.00,528.00,895.00,,,,,,,,,,,,0,0,0,,-2820,16152,-220,-115,204,-97
29.196,29.07,-4.26,-0.93,-0.26,7.25,-5.07,-3.98,-1.07,-4.98,-1.39,184.00,448.00,147.00,159.00,507.00,1073.00,537.00,922.00,,,,,,,,,,,,0,0,0,,-2884,15940,-356,-283,202,-126
29.256,29.12,-4.41,-4.71,0.42,-3.01,-3.86,-7.39,2.82,-6.94,0.52,190.00,511.00,166.00,231.00,437.00,1106.00,502.00,947.00,,,,,,,,,,,,0,0,0,,-2848,16128,-212,-266,140,-203
29.298,29.18,-4.35,-12.20,10.52,-20.49,13.33,-3.27,0.21,-3.37,-2.60,126.00,524.00,90.00,291.00,467.00,1008.00,557.00,894.00,,,,,,,,,,,,0,0,0,,-2952,16056,-244,-203,133,-246
29.359,29.23,-4.25,-1.71,-1.90,-2.66,-1.35,-2.23,-3.13,-5.44,-1.97,204.00,483.00,144.00,213.00,549.00,1058.00,559.00,954.00,,,,,,,,,,,,0,0,0,,-2904,15972,-148,-273,122,-218
29.464,29.29,-4.39,-4.85,-0.39,-2.17,-6.83,-7.05,1.32,-7.21,-0.22,199.00,525.00,192.00,242.00,471.00,1136.00,525.00,976.00,,,,,,,,,,,,0,0,0,,-2896,15948,-188,-222,147,-101
29.484,29.34,-4.41,-10.30,5.24,-18.02,6.13,-4.84,0.27,-4.84,-1.91,162.00,560.00,127.00,320.00,479.00,1071.00,551.00,930.00,,,,,,,,,,,,0,0,0,,-2880,16016,-152,-246,185,-79
29.526,29.40,-4.26,-4.00,0.47,-10.63,5.64,-1.35,-3.76,-4.35,-3.58,187.00,496.00,114.00,242.00,559.00,1039.00,598.00,954.00,,,,,,,,,,,,0,0,0,,-2820,16036,-16,-243,247,-71
29.588,29.45,-4.33,-0.94,-3.89,3.30,-10.15,-5.69,-0.43,-6.65,-0.99,224.00,494.00,208.00,213.00,505.00,1128.00,542.00,975.00,,,,,,,,,,,,0,0,0,,-2912,16060,56,-117,327,-116
29.651,29.51,-4.50,-5.73,1.06,-12.31,3.36,-7.79,3.68,-5.61,-1.17,187.00,523.00,133.00,275.00,420.00,1098.00,537.00,940.00,,,,,,,,,,,,0,0,0,,-2756,16052,-36,-169,361,-125
29.692,29.56,-4.37,-6.66,4.25,-15.92,12.84,-1.81,-1.95,-4.54,-2.28,160.00,498.00,85.00,246.00,511.00,1008.00,559.00,928.00,,,,,,,,,,,,0,0,0,,-2848,16108,8,-276,564,-301
29.734,29.62,-4.31,-1.22,-1.14,3.81,-3.78,-3.17,-2.23,-6.08,-1.19,194.00,464.00,146.00,176.00,532.00,1072.00,542.00,958.00,,,,,,,,,,,,0,0,0,,-2884,16048,44,-268,512,-250
29.836,29.67,-4.50,-4.71,0.72,-6.73,-2.50,-8.05,3.86,-7.52,0.97,187.00,507.00,165.00,258.00,418.00,1104.00,495.00,957.00,,,,,,,,,,,,0,0,0,,-2880,16068,-8,-188,570,-200
29.857,29.73,-4.39,-10.18,7.77,-24.79,19.15,-2.45,-1.37,-4.38,-1.86,141.00,521.00,71.00,295.00,501.00,1018.00,545.00,912.00,,,,,,,,,,,,0,0,0,,-2968,16000,-12,-224,709,-298
29.897,29.78,-4.32,-1.48,-0.66,-1.08,-1.88,-2.93,-2.45,-4.66,-2.69,190.00,463.00,144.00,203.00,536.00,1068.00,573.00,943.00,,,,,,,,,,,,0,0,0,,-2932,16016,-172,-121,885,-226
29.96,29.84,-4.44,-4.71,0.42,-2.07,-6.67,-6.74,0.87,-6.78,-0.85,190.00,511.00,190.00,240.00,480.00,1136.00,539.00,976.00,,,,,,,,,,,,0,0,0,,-2912,16032,-256,-230,796,-199
30.021,29.89,-4.51,-9.49,4.52,-19.79,5.20,-5.87,1.40,-4.99,-1.89,166.00,553.00,138.00,352.00,459.00,1082.00,552.00,935.00,,,,,,,,,,,,1,1,0,,-3056,15944,96,-247,1317,-401
30.083,29.95,-4.39,-4.50,0.84,-14.27,9.66,-1.97,-3.49,-5.16,-2.81,185.00,501.00,98.00,251.00,557.00,1057.00,582.00,965.00,,,,,,,,,,,,1,1,0,,-3016,15848,-328,-352,1306,-328
30.125,30.00,-4.47,-3.49,-0.94,2.83,-9.45,-6.06,0.03,-6.69,-1.01,200.00,505.00,202.00,213.00,496.00,1131.00,543.00,977.00,,,,,,,,,,,,1,1,0,,-3100,16000,-252,-511,801,-194
30.186,30.06,-4.56,-6.10,1.18,-13.79,3.18,-6.28,1.41,-5.81,-1.04,187.00,529.00,138.00,293.00,462.00,1099.00,535.00,944.00,,,,,,,,,,,,1,1,0,,-3020,15888,-76,-402,503,-146
30.247,30.11,-4.47,-7.49,3.30,-15.97,10.42,-2.78,-1.00,-4.58,-2.32,171.00,528.00,97.00,263.00,494.00,1021.00,561.00,931.00,,,,,,,,,,,,1,1,0,,-3100,15856,-236,-577,413,-122
30.308,30.17,-4.46,-2.53,0.08,3.66,-3.35,-4.20,-1.71,-5.99,-1.35,186.00,473.00,143.00,175.00,527.00,1101.00,546.00,959.00,,,,,,,,,,,,1,1,0,,-2952,15960,-276,-869,81,2
30.349,30.22,-4.62,-6.02,1.55,-5.90,-2.09,-7.76,3.07,-7.87,0.65,183.00,522.00,159.00,247.00,434.00,1115.00,507.00,979.00,,,,,,,,,,,,1,1,0,,-2868,16048,-12,-640,-368,-9
30.432,30.28,-4.59,-11.57,9.45,-20.34,12.08,-3.92,-0.01,-4.75,-1.80,132.00,526.00,96.00,299.00,478.00,1040.00,547.00,924.00,,,,,,,,,,,,1,1,0,,-2872,16024,312,-565,-552,-264
30.453,30.33,-4.52,-3.05,1.17,-2.38,-1.06,-3.23,-2.14,-4.83,-3.14,177.00,469.00,141.00,209.00,530.00,1072.00,589.00,961.00,,,,,,,,,,,,1,1,0,,-2900,15992,468,-569,-624,-360
30.576,30.39,-4.59,-4.29,-0.20,-1.92,-6.43,-6.02,0.13,-6.90,-0.64,195.00,511.00,187.00,237.00,493.00,1126.00,534.00,975.00,,,,,,,,,,,,1,1,0,,-2988,15876,676,-480,-319,-322
30.596,30.44,-4.60,-9.25,5.83,-18.69,9.52,-4.67,-0.06,-4.62,-1.95,154.00,529.00,107.00,300.00,486.00,1073.00,550.00,923.00,,,,,,,,,,,,1,1,0,,-3064,15892,540,-536,11,-253
30.636,30.50,-4.45,-5.76,2.19,-12.50,6.60,-1.64,-3.76,-4.79,-3.12,176.00,508.00,112.00,254.00,562.00,1051.00,588.00,959.00,,,,,,,,,,,,1,1,0,,-3052,15964,636,-551,197,-153
30.696,30.55,-4.54,-1.27,-3.02,1.18,-8.05,-6.17,-0.34,-7.19,-0.88,215.00,489.00,193.00,219.00,507.00,1147.00,544.00,993.00,,,,,,,,,,,,1,1,0,,-3108,15980,740,-593,593,-304
30.779,30.61,-4.60,-8.06,2.96,-12.19,1.85,-5.85,1.47,-5.07,-2.13,176.00,545.00,144.00,285.00,457.00,1079.00,560.00,944.00,,,,,,,,,,,,1,1,0,,-3092,15844,812,-739,970,-343
30.799,30.66,-4.52,-7.24,2.79,-20.67,15.56,-2.93,-1.39,-4.75,-2.59,175.00,530.00,80.00,276.00,506.00,1038.00,571.00,944.00,,,,,,,,,,,,1,1,0,,-3260,16032,924,-727,1484,-517
30.861,30.72,-4.51,-3.63,1.47,3.63,-3.72,-4.28,-1.08,-6.15,-1.70,176.00,476.00,146.00,177.00,510.00,1086.00,558.00,974.00,,,,,,,,,,,,1,1,0,,-3108,15828,684,-787,1565,-489
30.944,30.77,-4.66,-5.68,1.85,-4.93,-3.21,-7.61,2.47,-7.53,0.68,179.00,511.00,166.00,245.00,447.00,1126.00,503.00,965.00,,,,,,,,,,,,1,1,0,,-3276,15716,524,-795,1338,-435
30.964,30.83,-4.59,-10.24,7.15,-21.70,15.23,-3.31,-1.34,-4.52,-2.38,146.00,531.00,83.00,290.00,508.00,1052.00,562.00,930.00,,,,,,,,,,,,1,1,0,,-3212,15848,420,-546,957,-324
31.027,30.88,-4.54,-2.46,-0.34,-4.74,-0.65,-3.54,-2.59,-5.58,-2.35,190.00,477.00,144.00,227.00,546.00,1098.00,572.00,969.00,,,,,,,,,,,,1,1,0,,-3280,15692,496,-407,338,-200
31.068,30.94,-4.63,-6.90,1.45,-3.22,-4.97,-6.29,0.03,-8.23,0.09,187.00,542.00,177.00,240.00,498.00,1141.00,526.00,1008.00,,,,,,,,,,,,1,1,0,,-3228,15796,660,-354,-300,-30
31.129,30.99,-4.70,-8.77,4.28,-16.41,5.30,-6.14,1.01,-5.73,-2.39,166.00,541.00,129.00,307.00,471.00,1105.00,575.00,976.00,,,,,,,,,,,,1,1,0,,-3216,15884,900,-264,-210,-9
31.17,31.05,-4.57,-4.11,0.12,-11.42,5.75,-2.11,-3.77,-5.62,-2.97,191.00,503.00,115.00,249.00,567.00,1071.00,592.00,987.00,,,,,,,,,,,,1,1,0,,-3224,15852,852,-345,2,-244
31.231,31.10,-4.70,-2.82,-2.15,0.78,-8.29,-7.14,1.00,-7.75,-0.21,211.00,508.00,197.00,224.00,480.00,1150.00,530.00,997.00,,,,,,,,,,,,1,1,0,,-3276,15676,872,-455,-91,-161
31.292,31.16,-4.80,-7.46,2.76,-15.59,3.26,-6.71,1.88,-5.55,-1.53,176.00,535.00,142.00,314.00,454.00,1104.00,547.00,947.00,,,,,,,,,,,,1,1,0,,-3244,15824,972,-333,-181,-125
31.354,31.21,-4.69,-6.87,2.67,-16.09,7.48,-2.59,-2.29,-5.19,-2.61,175.00,524.00,114.00,286.00,528.00,1049.00,576.00,961.00,,,,,,,,,,,,1,1,0,,-3112,15788,608,-384,-573,-118
31.396,31.27,-4.65,-4.57,1.48,-1.08,-1.88,-3.78,-1.82,-6.27,-1.29,179.00,494.00,144.00,203.00,526.00,1086.00,547.00,968.00,,,,,,,,,,,,1,1,0,,-3052,15664,508,-169,-1659,120
31.456,31.32,-4.81,-4.98,1.92,-6.12,-2.36,-7.96,3.09,-7.74,0.46,176.00,496.00,162.00,251.00,435.00,1123.00,511.00,979.00,,,,,,,,,,,,1,1,0,,-2948,16040,1284,390,-1836,-34
31.517,31.38,-4.77,-9.77,8.03,-23.11,15.93,-4.04,-0.57,-5.11,-1.75,138.00,509.00,82.00,301.00,494.00,1061.00,549.00,936.00,,,,,,,,,,,,1,1,0,,-3232,15984,1700,69,-941,-400
31.578,31.43,-4.69,-3.33,1.27,-2.73,-1.07,-3.17,-2.44,-5.70,-2.44,177.00,473.00,142.00,212.00,538.00,1078.00,576.00,976.00,,,,,,,,,,,,1,1,0,,-3176,15708,1536,-230,223,-534
31.6,31.49,-4.80,-4.71,0.42,-1.25,-5.64,-6.87,0.57,-7.53,-0.87,190.00,511.00,177.00,226.00,489.00,1151.00,547.00,1006.00,,,,,,,,,,,,1,1,0,,-3304,15700,1128,-81,228,-232
31.661,31.54,-4.82,-8.33,4.47,-18.10,4.10,-5.24,-0.24,-5.64,-1.87,163.00,529.00,142.00,339.00,496.00,1103.00,558.00,959.00,,,,,,,,,,,,1,1,0,,-3216,15768,1200,7,89,-149
31.723,31.60,-4.67,-2.82,-0.51,-13.95,7.59,-1.70,-4.52,-5.48,-2.95,193.00,486.00,109.00,262.00,586.00,1075.00,590.00,981.00,,,,,,,,,,,,1,1,0,,-3308,15816,1220,-62,185,-135
31.804,31.65,-4.75,-2.02,-2.60,-0.34,-7.64,-6.23,-0.24,-7.44,-1.00,213.00,498.00,194.00,230.00,505.00,1147.00,550.00,1006.00,,,,,,,,,,,,1,1,0,,-3308,15928,1136,101,126,-110
31.824,31.71,-4.86,-7.91,2.60,-13.56,3.10,-7.07,2.04,-5.86,-1.86,179.00,547.00,138.00,291.00,453.00,1115.00,560.00,967.00,,,,,,,,,,,,1,1,0,,-3184,15688,1148,188,106,-80
31.885,31.76,-4.77,-8.01,5.29,-17.13,11.99,-2.99,-2.09,-6.04,-2.35,155.00,511.00,91.00,264.00,526.00,1060.00,577.00,987.00,,,,,,,,,,,,1,1,0,,-3252,15804,1108,-71,225,-116
31.936,31.82,-4.77,-4.35,0.99,0.54,-3.91,-4.79,-0.91,-6.68,-1.22,183.00,496.00,156.00,201.00,510.00,1103.00,549.00,982.00,,,,,,,,,,,,1,1,0,,-3328,15864,1004,-32,115,-92
32.034,31.87,-4.92,-4.80,0.55,-7.61,-1.05,-7.86,2.52,-6.90,-0.67,189.00,511.00,155.00,257.00,448.00,1136.00,535.00,976.00,,,,,,,,,,,,1,1,0,,-3136,15808,1060,113,147,-59
32.054,31.93,-4.85,-10.66,8.33,-21.27,14.21,-3.50,-1.09,-5.22,-2.15,138.00,523.00,87.00,293.00,503.00,1053.00,562.00,950.00,,,,,,,,,,,,1,1,0,,-3176,15852,1016,-58,217,-114
32.116,31.98,-4.77,-2.25,-0.41,-1.22,-2.59,-3.24,-2.66,-5.26,-3.09,190.00,474.00,150.00,208.00,545.00,1087.00,592.00,976.00,,,,,,,,,,,,1,1,0,,-3156,15808,868,-102,124,-24
32.177,32.04,-4.87,-4.37,-0.08,-2.81,-5.42,-6.70,0.32,-7.21,-1.41,194.00,511.00,180.00,239.00,494.00,1151.00,560.00,1008.00,,,,,,,,,,,,1,1,0,,-3184,15852,936,-31,193,-180
32.239,32.09,-4.87,-8.14,4.41,-16.90,5.18,-4.95,0.15,-5.99,-1.82,163.00,526.00,131.00,314.00,483.00,1079.00,560.00,971.00,,,,,,,,,,,,1,1,0,,-3172,15904,948,-31,71,-197
32.259,32.15,-4.73,-4.17,0.73,-11.57,6.12,-2.09,-3.87,-4.82,-3.73,185.00,496.00,113.00,248.00,570.00,1073.00,608.00,976.00,,,,,,,,,,,,1,1,0,,-3208,15796,1008,103,117,-274
32.32,32.20,-4.82,-1.94,-2.71,9.40,-11.38,-6.51,-0.19,-6.46,-2.18,214.00,498.00,199.00,173.00,506.00,1158.00,576.00,999.00,,,,,,,,,,,,1,1,0,,-3184,15844,804,-93,76,-266
32.404,32.26,-4.92,-8.00,2.94,-13.22,2.72,-6.81,2.04,-5.22,-2.18,176.00,544.00,140.00,290.00,451.00,1104.00,563.00,951.00,,,,,,,,,,,,1,1,0,,-3208,15800,956,-215,7,-245
32.445,32.31,-4.78,-7.49,3.30,-16.17,9.74,-2.16,-2.78,-6.04,-1.90,171.00,528.00,101.00,270.00,538.00,1045.00,563.00,975.00,,,,,,,,,,,,1,1,0,,-3268,15800,1068,-96,80,-215
32.507,32.37,-4.78,-2.85,0.09,0.79,-2.77,-4.64,-1.60,-6.31,-1.81,187.00,479.00,146.00,193.00,528.00,1117.00,563.00,983.00,,,,,,,,,,,,1,1,0,,-3244,15696,1128,-61,67,-166
32.569,32.42,-4.93,-5.50,1.58,-4.40,-4.16,-7.84,2.55,-7.72,-0.32,181.00,511.00,173.00,246.00,447.00,1134.00,533.00,999.00,,,,,,,,,,,,1,1,0,,-3372,15908,1032,-51,184,-145
32.61,32.48,-4.89,-11.94,9.86,-23.77,18.55,-4.11,-0.29,-5.56,-1.83,130.00,528.00,72.00,288.00,487.00,1056.00,556.00,955.00,,,,,,,,,,,,1,1,0,,-3144,15776,800,-122,169,-229
32.671,32.53,-4.79,-1.51,-0.46,-6.57,0.75,-2.96,-2.72,-5.47,-2.55,188.00,461.00,138.00,235.00,544.00,1077.00,577.00,970.00,,,,,,,,,,,,1,1,0,,-3280,15836,940,-101,13,-130
32.773,32.59,-4.88,-4.63,0.30,-2.01,-5.17,-6.64,0.72,-7.03,-0.97,191.00,511.00,175.00,230.00,483.00,1136.00,545.00,989.00,,,,,,,,,,,,1,1,0,,-3296,15804,1024,-132,132,-87
32.794,32.64,-4.90,-8.63,4.91,-15.31,4.79,-5.12,-0.28,-5.77,-1.32,160.00,529.00,130.00,298.00,496.00,1099.00,543.00,950.00,,,,,,,,,,,,1,1,0,,-3188,15780,904,-120,135,-92
32.834,32.70,-4.73,-3.32,-0.53,-6.45,0.57,-1.61,-3.81,-5.08,-3.12,195.00,496.00,139.00,235.00,563.00,1051.00,591.00,970.00,,,,,,,,,,,,1,1,0,,-3208,15840,944,-8,151,-45
32.895,32.75,-4.79,-2.66,-3.47,2.32,-8.34,-5.88,-0.10,-7.65,-0.76,226.00,523.00,192.00,211.00,498.00,1127.00,545.00,1008.00,,,,,,,,,,,,1,1,0,,-3108,15820,1016,-80,157,-134
32.936,32.81,-4.87,-8.03,2.64,-14.52,2.64,-6.42,1.66,-5.07,-2.13,179.00,549.00,144.00,306.00,457.00,1098.00,560.00,944.00,,,,,,,,,,,,1,1,0,,-3140,15728,932,-157,66,-109
32.998,32.86,-4.77,-6.39,3.04,-17.29,13.09,-2.83,-1.60,-4.72,-2.80,170.00,509.00,86.00,258.00,511.00,1040.00,577.00,948.00,,,,,,,,,,,,1,1,0,,-3204,15860,900,-121,50,-137
33.142,32.92,-4.73,-3.33,0.96,0.07,-2.65,-3.99,-1.68,-5.71,-1.88,180.00,477.00,147.00,198.00,524.00,1091.00,559.00,962.00,,,,,,,,,,,,1,1,0,,-3264,15824,1000,-200,65,-152
33.162,32.97,-4.87,-5.35,1.43,-3.62,-6.05,-7.56,2.05,-6.67,-0.50,182.00,510.00,189.00,251.00,457.00,1137.00,528.00,963.00,,,,,,,,,,,,1,1,0,,-3268,15808,956,-178,60,-131
33.182,33.03,-4.82,-10.81,7.98,-20.19,15.40,-3.82,-0.57,-5.08,-1.76,141.00,531.00,80.00,272.00,492.00,1052.00,549.00,935.00,,,,,,,,,,,,1,1,0,,-3212,15760,992,-155,118,-111
33.202,33.08,-4.74,-1.38,-0.89,-3.42,-1.10,-3.21,-2.97,-6.13,-1.81,192.00,464.00,144.00,218.00,554.00,1095.00,561.00,976.00,,,,,,,,,,,,1,1,0,,-3092,15828,1032,-126,81,-74
33.263,33.14,-4.88,-4.85,-0.39,-4.78,-4.35,-7.50,1.47,-7.67,-0.55,199.00,525.00,176.00,251.00,471.00,1152.00,539.00,1003.00,,,,,,,,,,,,1,1,0,,-3104,15720,1032,-149,126,-42
33.325,33.19,-4.94,-7.95,3.35,-17.52,5.39,-6.20,1.03,-5.99,-2.24,172.00,537.00,131.00,320.00,471.00,1107.00,573.00,982.00,,,,,,,,,,,,1,1,0,,-3128,15860,1008,-192,174,-180
33.366,33.25,-4.81,-3.48,-0.28,-10.90,5.90,-2.27,-3.81,-4.88,-3.65,193.00,496.00,113.00,243.00,570.00,1079.00,606.00,976.00,,,,,,,,,,,,1,1,0,,-3160,15788,1124,-149,63,-98
33.448,33.30,-4.87,-2.58,-1.61,2.40,-8.46,-5.95,-0.26,-8.08,-0.20,204.00,496.00,193.00,211.00,503.00,1135.00,533.00,1010.00,,,,,,,,,,,,1,1,0,,-3172,15856,1184,-107,172,-22
33.511,33.36,-4.94,-7.82,2.88,-13.90,3.21,-6.30,2.03,-4.97,-2.23,176.00,541.00,138.00,294.00,447.00,1082.00,562.00,943.00,,,,,,,,,,,,1,1,0,,-3184,15924,996,-127,202,-47
33.531,33.41,-4.83,-8.44,6.29,-19.38,16.32,-2.78,-1.07,-4.60,-2.58,148.00,506.00,75.00,257.00,496.00,1023.00,569.00,938.00,,,,,,,,,,,,1,1,0,,-3076,15756,1088,-16,247,11
33.593,33.47,-4.78,-3.22,1.02,0.23,-2.33,-3.89,-1.25,-6.00,-1.91,179.00,474.00,144.00,195.00,511.00,1074.00,563.00,974.00,,,,,,,,,,,,1,1,0,,-3180,15888,1036,-56,279,-44
33.634,33.52,-4.91,-5.73,1.06,-6.02,-3.40,-7.31,2.71,-7.74,0.46,187.00,523.00,171.00,257.00,439.00,1106.00,511.00,979.00,,,,,,,,,,,,1,1,0,,-3064,15848,896,-144,158,-65
33.718,33.58,-4.81,-10.38,7.71,-20.19,12.62,-2.99,-1.37,-4.90,-2.02,142.00,526.00,93.00,293.00,506.00,1040.00,555.00,935.00,,,,,,,,,,,,1,1,0,,-3084,15752,1008,-106,164,-135
33.76,33.63,-4.71,-1.75,0.22,-7.39,3.92,-2.75,-2.96,-6.01,-2.37,182.00,457.00,118.00,223.00,549.00,1075.00,577.00,986.00,,,,,,,,,,,,1,1,0,,-3152,15780,1044,-169,143,-90
33.82,33.69,-4.81,-4.29,0.08,-2.48,-6.53,-6.66,0.20,-7.77,-0.48,192.00,507.00,190.00,243.00,497.00,1153.00,538.00,1005.00,,,,,,,,,,,,1,1,0,,-3188,15832,1008,-194,96,-65
33.862,33.74,-4.82,-9.63,5.48,-14.95,2.91,-5.09,0.35,-5.45,-2.00,158.00,542.00,143.00,309.00,479.00,1079.00,560.00,955.00,,,,,,,,,,,,1,1,0,,-3164,15848,1116,-200,163,-29
33.922,33.80,-4.67,-4.24,1.06,-12.72,7.51,-1.79,-3.62,-5.11,-3.24,182.00,493.00,107.00,250.00,559.00,1053.00,595.00,974.00,,,,,,,,,,,,1,1,0,,-3088,15928,972,-155,176,3
33.982,33.85,-4.78,-2.34,-2.49,-0.19,-7.21,-6.77,0.68,-7.55,-0.21,213.00,503.00,189.00,226.00,485.00,1143.00,528.00,989.00,,,,,,,,,,,,1,1,0,,-3160,15728,1020,-139,247,-21
34.024,33.91,-4.85,-7.82,2.88,-12.87,1.83,-6.21,1.11,-6.30,-1.55,176.00,541.00,146.00,293.00,469.00,1105.00,555.00,976.00,,,,,,,,,,,,1,1,0,,-3080,15852,1020,-249,266,-51
34.085,33.96,-4.76,-8.98,6.72,-19.22,15.07,-3.09,-1.23,-5.78,-1.82,146.00,511.00,80.00,264.00,503.00,1040.00,558.00,963.00,,,,,,,,,,,,1,1,0,,-3108,15808,1036,-250,106,-43
34.147,34.02,-4.69,-3.86,1.65,-0.43,-2.10,-3.30,-2.05,-5.73,-1.74,175.00,478.00,144.00,199.00,528.00,1072.00,555.00,959.00,,,,,,,,,,,,1,1,0,,-3080,15776,1236,-68,148,41
34.249,34.07,-4.84,-4.11,0.12,-6.38,-2.28,-7.70,3.00,-7.36,0.55,191.00,503.00,162.00,253.00,435.00,1114.00,505.00,962.00,,,,,,,,,,,,1,1,0,,-3032,15832,1020,-82,266,42
34.269,34.13,-4.73,-11.33,8.96,-22.91,15.64,-2.78,-1.07,-5.39,-1.65,135.00,528.00,83.00,301.00,496.00,1023.00,549.00,944.00,,,,,,,,,,,,1,1,0,,-3000,15924,1056,-16,182,100
34.311,34.18,-4.65,-2.65,1.14,-3.01,0.23,-3.00,-2.74,-5.10,-2.31,176.00,462.00,133.00,207.00,545.00,1079.00,566.00,950.00,,,,,,,,,,,,1,1,0,,-2976,15844,1240,0,176,26
34.371,34.24,-4.72,-4.54,0.17,-2.99,-5.15,-6.05,-0.38,-7.28,-0.71,192.00,511.00,178.00,239.00,507.00,1143.00,540.00,992.00,,,,,,,,,,,,1,1,0,,-3004,15952,1212,-132,200,-28
34.433,34.29,-4.76,-8.14,3.63,-17.58,5.84,-5.66,0.85,-5.41,-2.01,170.00,537.00,128.00,317.00,471.00,1089.00,560.00,954.00,,,,,,,,,,,,1,1,0,,-3032,15960,948,-15,210,-68
34.474,34.35,-4.61,-5.62,2.35,-12.75,6.68,-1.76,-3.66,-5.00,-3.08,174.00,503.00,112.00,256.00,560.00,1053.00,589.00,966.00,,,,,,,,,,,,1,1,0,,-2996,15788,1008,-61,152,-92
34.516,34.40,-4.71,-2.27,-2.07,0.82,-7.35,-6.45,0.05,-8.58,-0.45,208.00,496.00,187.00,218.00,499.00,1148.00,545.00,1037.00,,,,,,,,,,,,1,1,0,,-2856,15932,992,-87,74,-56
34.599,34.46,-4.80,-7.88,2.90,-13.44,2.53,-6.54,2.07,-6.52,-1.04,176.00,542.00,142.00,294.00,448.00,1091.00,542.00,971.00,,,,,,,,,,,,1,1,0,,-2912,15824,1152,-117,115,-62
34.64,34.51,-4.70,-7.40,4.38,-19.75,15.72,-2.83,-1.60,-5.67,-1.83,161.00,511.00,78.00,265.00,511.00,1040.00,557.00,959.00,,,,,,,,,,,,1,1,0,,-2912,15916,1040,-109,124,-18
34.701,34.57,-4.67,-2.25,-0.41,-1.17,0.32,-4.02,-1.77,-6.62,-1.57,190.00,474.00,128.00,192.00,527.00,1095.00,559.00,989.00,,,,,,,,,,,,1,1,0,,-2864,15896,996,-109,159,-22
34.762,34.62,-4.85,-4.97,0.80,-5.73,-2.95,-8.32,3.13,-7.84,-0.11,187.00,511.00,166.00,251.00,437.00,1138.00,528.00,998.00,,,,,,,,,,,,1,1,0,,-2768,15944,916,-183,100,-157
34.824,34.68,-4.79,-10.30,8.89,-21.95,15.09,-3.69,-0.73,-4.82,-2.18,133.00,508.00,84.00,294.00,495.00,1051.00,559.00,936.00,,,,,,,,,,,,1,1,0,,-2868,15832,1112,-153,23,-114
34.884,34.73,-4.69,-2.79,0.47,-5.91,1.07,-2.75,-2.69,-5.84,-2.20,183.00,473.00,134.00,227.00,541.00,1067.00,570.00,975.00,,,,,,,,,,,,1,1,0,,-2964,15836,1076,-35,138,-161
34.904,34.79,-4.77,-5.70,0.66,-2.31,-6.78,-6.38,0.14,-7.66,-0.38,191.00,528.00,192.00,243.00,496.00,1142.00,534.00,998.00,,,,,,,,,,,,1,1,0,,-2904,15804,952,-127,124,-164
34.967,34.84,-4.82,-10.79,5.64,-18.02,4.87,-5.77,1.05,-4.97,-2.39,160.00,565.00,136.00,331.00,467.00,1088.00,567.00,947.00,,,,,,,,,,,,1,1,0,,-2820,15956,1168,-75,118,-106
35.008,34.90,-4.67,-5.11,1.45,-13.30,7.20,-1.79,-3.68,-5.66,-2.77,181.00,505.00,110.00,258.00,561.00,1055.00,586.00,983.00,,,,,,,,,,,,1,1,0,,-2912,15884,772,-145,163,-218
35.068,34.95,-4.74,-2.29,-1.88,1.25,-7.29,-5.98,0.04,-7.24,-1.03,206.00,494.00,185.00,214.00,495.00,1127.00,549.00,999.00,,,,,,,,,,,,1,1,0,,-2916,15844,1056,-160,46,-136
35.129,35.01,-4.86,-7.55,3.11,-11.40,1.08,-7.29,2.74,-5.70,-1.82,173.00,532.00,148.00,282.00,438.00,1104.00,557.00,960.00,,,,,,,,,,,,1,1,0,,-2836,15828,1184,-68,169,-206
35.192,35.06,-4.78,-8.01,6.39,-17.06,12.17,-3.12,-1.18,-5.79,-1.89,146.00,496.00,90.00,262.00,502.00,1040.00,560.00,965.00,,,,,,,,,,,,1,1,0,,-2924,15796,1104,-113,108,-190
35.231,35.12,-4.71,-1.13,-0.78,0.74,-2.11,-3.36,-2.55,-5.73,-2.20,190.00,458.00,141.00,190.00,543.00,1089.00,569.00,971.00,,,,,,,,,,,,1,1,0,,-3016,15872,1076,-88,75,-126
35.332,35.17,-4.83,-5.57,0.62,-3.54,-4.66,-7.09,1.81,-7.32,-0.32,191.00,526.00,175.00,241.00,459.00,1123.00,529.00,983.00,,,,,,,,,,,,1,1,0,,-2880,15888,1080,-150,171,-82
35.352,35.23,-4.82,-11.69,9.36,-20.90,12.66,-4.68,0.06,-5.35,-1.87,133.00,530.00,94.00,301.00,483.00,1070.00,555.00,948.00,,,,,,,,,,,,1,1,0,,-2892,15904,1020,-151,171,-71
35.394,35.28,-4.70,-2.78,-0.32,-5.14,-0.39,-2.41,-3.51,-5.98,-2.44,191.00,483.00,143.00,229.00,562.00,1076.00,579.00,987.00,,,,,,,,,,,,1,1,0,,-2812,15848,1124,-95,157,-131
35.455,35.34,-4.82,-4.63,0.30,-1.30,-7.03,-7.06,0.37,-8.37,-0.04,191.00,511.00,191.00,235.00,496.00,1166.00,531.00,1017.00,,,,,,,,,,,,1,1,0,,-2904,15920,1020,-144,31,-194
35.515,35.39,-4.88,-7.70,2.84,-17.11,5.97,-6.18,1.30,-5.14,-2.30,176.00,539.00,126.00,310.00,464.00,1098.00,566.00,951.00,,,,,,,,,,,,1,1,0,,-2884,15840,1216,-55,3,-169
35.576,35.45,-4.75,-5.63,2.14,-15.78,8.90,-2.12,-3.47,-5.09,-3.15,176.00,506.00,105.00,272.00,558.00,1063.00,592.00,971.00,,,,,,,,,,,,1,1,0,,-2744,15920,1084,-99,140,-205
35.659,35.50,-4.80,-2.83,-1.61,2.34,-7.66,-5.85,-0.44,-7.80,-0.47,205.00,501.00,185.00,207.00,507.00,1136.00,538.00,1006.00,,,,,,,,,,,,1,1,0,,-2896,15932,1208,-80,72,-154
35.719,35.56,-4.92,-5.95,2.25,-11.28,1.17,-7.25,2.31,-6.99,-0.54,176.00,511.00,147.00,280.00,448.00,1115.00,532.00,976.00,,,,,,,,,,,,1,1,0,,-2828,15880,1108,-13,95,-312
35.759,35.61,-4.85,-8.28,4.68,-16.24,8.36,-3.54,-0.82,-5.65,-1.90,161.00,525.00,109.00,281.00,496.00,1047.00,559.00,960.00,,,,,,,,,,,,1,1,0,,-2924,15804,1080,-89,25,-228
35.8,35.67,-4.83,-2.61,0.92,-1.45,-0.97,-4.36,-1.49,-5.92,-1.81,178.00,464.00,138.00,201.00,522.00,1101.00,559.00,968.00,,,,,,,,,,,,1,1,0,,-2960,16000,1100,-32,85,-225
35.861,35.72,-5.00,-5.06,0.93,-5.47,-3.03,-8.26,2.65,-8.60,0.75,186.00,511.00,166.00,249.00,448.00,1150.00,511.00,1005.00,,,,,,,,,,,,1,1,0,,-2996,15828,1044,-33,123,-252
35.922,35.78,-4.99,-10.59,8.31,-22.98,15.00,-4.70,-0.43,-5.51,-1.95,138.00,522.00,86.00,307.00,496.00,1085.00,559.00,956.00,,,,,,,,,,,,1,1,0,,-3080,15840,1096,-35,26,-227
35.963,35.83,-4.90,-4.02,0.58,-10.33,3.26,-3.18,-2.81,-6.11,-2.55,186.00,495.00,129.00,255.00,549.00,1089.00,584.00,995.00,,,,,,,,,,,,1,1,0,,-2932,15732,1020,0,118,-155
36.066,35.89,-4.99,-5.53,-0.16,0.78,-9.12,-6.79,-0.09,-8.70,-0.30,199.00,536.00,206.00,229.00,506.00,1168.00,542.00,1038.00,,,,,,,,,,,,1,1,0,,-3012,15880,876,5,141,-104
36.087,35.94,-5.06,-9.00,4.14,-15.07,3.08,-6.28,1.26,-6.40,-1.51,168.00,548.00,142.00,309.00,466.00,1104.00,555.00,979.00,,,,,,,,,,,,1,1,0,,-3088,15884,992,53,56,-98
36.128,36.00,-4.92,-5.64,1.94,-13.89,6.10,-2.34,-3.98,-6.30,-2.43,178.00,509.00,118.00,272.00,576.00,1087.00,582.00,999.00,,,,,,,,,,,,1,1,0,,-2924,15944,912,-4,163,-189
36.169,36.05,-4.92,-3.01,-2.09,-0.89,-6.17,-4.95,-1.77,-7.65,-0.72,211.00,511.00,181.00,226.00,536.00,1136.00,544.00,1007.00,,,,,,,,,,,,1,1,0,,-2988,15916,928,-27,43,-166
36.23,36.11,-5.00,-5.20,1.59,-8.95,-1.18,-6.48,1.20,-7.08,-0.40,180.00,505.00,160.00,272.00,469.00,1114.00,529.00,976.00,,,,,,,,,,,,1,1,0,,-2996,15708,1076,37,57,-103
36.291,36.16,-4.92,-10.28,7.41,-18.76,12.74,-3.45,-0.70,-5.26,-1.77,144.00,528.00,90.00,276.00,492.00,1040.00,551.00,942.00,,,,,,,,,,,,1,1,0,,-3008,15876,1028,-28,271,-75
36.351,36.22,-4.86,-1.92,-0.03,-3.05,1.39,-3.69,-2.41,-5.70,-2.44,185.00,463.00,125.00,201.00,542.00,1099.00,576.00,976.00,,,,,,,,,,,,1,1,0,,-2928,15836,792,-9,121,-32
36.434,36.27,-4.98,-6.51,1.92,-4.96,-4.07,-7.36,1.62,-8.10,0.08,181.00,527.00,174.00,251.00,466.00,1141.00,525.00,1003.00,,,,,,,,,,,,1,1,0,,-2832,15940,1024,90,113,-128
36.454,36.33,-4.99,-10.40,7.46,-19.24,10.59,-5.15,-0.27,-5.24,-2.27,144.00,530.00,102.00,298.00,496.00,1100.00,566.00,954.00,,,,,,,,,,,,1,1,0,,-2884,15880,988,-47,123,-149
36.515,36.38,-4.86,-4.52,1.25,-9.81,3.23,-2.30,-3.90,-5.80,-2.40,181.00,496.00,128.00,250.00,573.00,1083.00,576.00,979.00,,,,,,,,,,,,1,1,0,,-2904,15920,1000,-19,48,-201
36.556,36.44,-4.94,-2.95,-3.05,-1.51,-7.34,-6.52,-0.15,-8.08,-0.68,222.00,523.00,195.00,239.00,505.00,1157.00,547.00,1023.00,,,,,,,,,,,,1,1,0,,-3004,15860,828,-14,41,-208
36.618,36.49,-5.00,-8.40,3.39,-16.53,4.64,-6.04,1.62,-6.13,-1.84,173.00,546.00,134.00,314.00,455.00,1083.00,562.00,977.00,,,,,,,,,,,,1,1,0,,-3060,15848,988,-101,-4,-162
36.68,36.55,-4.86,-6.42,2.94,-14.01,8.83,-2.34,-3.46,-5.18,-3.09,171.00,511.00,102.00,254.00,560.00,1072.00,591.00,973.00,,,,,,,,,,,,1,1,0,,-2960,15744,812,-98,53,-86
36.722,36.60,-4.90,-0.87,-4.95,-1.46,-4.49,-5.67,-0.65,-7.24,-1.36,237.00,507.00,167.00,221.00,511.00,1134.00,559.00,1008.00,,,,,,,,,,,,1,1,0,,-2916,15948,992,-152,100,-78
36.802,36.66,-5.04,-5.51,1.90,-9.68,-0.11,-7.59,2.02,-7.52,-0.80,178.00,507.00,153.00,272.00,458.00,1139.00,545.00,1004.00,,,,,,,,,,,,1,1,0,,-2992,15804,864,-145,153,-66
36.844,36.71,-4.96,-10.74,9.32,-20.81,16.31,-3.53,-1.01,-5.51,-1.98,131.00,511.00,77.00,272.00,501.00,1052.00,560.00,957.00,,,,,,,,,,,,1,1,0,,-2844,15924,912,-169,182,-153
36.885,36.77,-4.91,-3.45,1.20,-1.97,0.16,-3.92,-2.70,-6.30,-2.01,178.00,476.00,131.00,199.00,553.00,1118.00,569.00,988.00,,,,,,,,,,,,1,1,0,,-2940,15840,776,-210,54,-222
36.947,36.82,-5.02,-6.17,0.72,-6.37,-2.73,-7.16,1.16,-9.54,0.46,192.00,537.00,166.00,256.00,476.00,1146.00,528.00,1051.00,,,,,,,,,,,,1,1,0,,-2980,15808,892,-121,-18,-122
37.007,36.88,-5.02,-9.36,5.98,-17.23,6.76,-5.01,-0.29,-5.36,-2.33,153.00,529.00,121.00,305.00,495.00,1094.00,569.00,960.00,,,,,,,,,,,,1,1,0,,-3044,15880,992,-75,323,-152
37.07,36.93,-4.88,-5.25,1.81,-11.91,5.44,-2.08,-4.26,-5.88,-2.44,178.00,503.00,118.00,256.00,582.00,1084.00,578.00,983.00,,,,,,,,,,,,1,1,0,,-2940,15848,908,-80,174,-100
37.172,36.99,-5.00,-2.54,-2.42,1.29,-9.38,-7.28,0.86,-7.79,-0.78,213.00,506.00,207.00,226.00,485.00,1161.00,547.00,1014.00,,,,,,,,,,,,1,1,0,,-2984,15896,1072,-179,183,-206
37.191,37.04,-5.06,-8.52,3.43,-16.12,3.56,-6.32,0.84,-5.99,-2.05,173.00,548.00,141.00,318.00,477.00,1118.00,567.00,977.00,,,,,,,,,,,,1,1,0,,-3440,17944,5988,-1190,4062,-1536
37.231,37.10,-4.99,-5.96,1.04,-14.11,6.98,-3.57,-2.68,-5.46,-4.00,188.00,528.00,113.00,268.00,549.00,1102.00,624.00,1008.00,,,,,,,,,,,,1,1,0,,-3868,16708,684,5432,13376,-2443
37.294,37.15,-4.94,-4.15,0.92,5.20,-5.82,-3.95,-1.16,-5.25,-2.72,183.00,493.00,159.00,176.00,509.00,1074.00,580.00,966.00,,,,,,,,,,,,1,1,0,,-2896,12696,-7352,737,2792,517
37.335,37.21,-5.07,-5.58,1.92,-5.39,2.33,-7.63,3.28,-6.89,-0.88,178.00,508.00,124.00,215.00,428.00,1103.00,541.00,981.00,,,,,,,,,,,,1,1,0,,-2812,16204,-532,-5855,-7579,4125
37.419,37.26,-5.00,-11.83,8.59,-22.48,15.49,-3.65,-1.04,-4.63,-2.70,139.00,544.00,83.00,297.00,503.00,1058.00,573.00,942.00,,,,,,,,,,,,1,1,0,,-2324,19272,2944,2047,-3086,753
37.481,37.32,-4.95,-2.65,-0.75,-5.33,0.87,-4.01,-2.63,-5.69,-4.21,195.00,486.00,134.00,223.00,552.00,1120.00,634.00,1023.00,,,,,,,,,,,,1,1,0,,-2264,16008,4,920,-4554,540
37.501,37.37,-5.07,-4.29,-0.20,-2.22,-10.15,-7.28,0.63,-8.50,-1.88,195.00,511.00,230.00,265.00,491.00,1168.00,588.00,1074.00,,,,,,,,,,,,1,1,0,,-1904,14216,-984,-3032,-6508,1392
37.563,37.43,-5.11,-9.61,4.56,-16.56,3.98,-6.02,-0.39,-5.61,-3.41,166.00,555.00,139.00,320.00,507.00,1142.00,606.00,998.00,,,,,,,,,,,,1,1,0,,-2496,18572,5132,-169,-3048,-133
37.604,37.48,-4.99,-5.59,1.72,-12.32,3.79,-2.61,-3.86,-5.85,-4.59,180.00,511.00,130.00,272.00,575.00,1095.00,649.00,1040.00,,,,,,,,,,,,1,1,0,,-2500,15436,2520,159,739,-885
37.666,37.54,-5.11,-2.06,-3.34,1.81,-8.64,-7.48,0.32,-7.54,-1.91,222.00,509.00,197.00,217.00,501.00,1187.00,579.00,1035.00,,,,,,,,,,,,1,1,0,,-2584,15208,1056,-460,515,71
37.707,37.59,-5.20,-9.45,4.40,-15.05,2.82,-6.86,1.18,-5.97,-1.92,167.00,554.00,144.00,311.00,473.00,1132.00,563.00,973.00,,,,,,,,,,,,1,1,0,,-2228,16292,1408,92,351,239
37.771,37.65,-5.13,-8.51,6.69,-17.24,11.04,-3.75,-1.97,-5.87,-2.95,145.00,502.00,96.00,272.00,530.00,1089.00,594.00,996.00,,,,,,,,,,,,1,1,0,,-2004,15232,1300,126,425,-57
37.831,37.70,-5.18,-4.08,0.60,0.89,-3.30,-6.19,0.95,-7.01,-1.08,186.00,496.00,150.00,195.00,473.00,1109.00,548.00,991.00,,,,,,,,,,,,1,1,0,,-2216,16096,1064,-293,613,-186
37.911,37.76,-5.35,-5.95,2.25,-6.15,-3.78,-8.54,2.99,-7.45,-0.72,176.00,511.00,175.00,261.00,442.00,1152.00,542.00,999.00,,,,,,,,,,,,1,1,0,,-2528,16132,1356,-294,691,-379
37.932,37.81,-5.27,-10.28,7.41,-23.18,16.41,-3.83,-1.27,-4.73,-2.67,144.00,528.00,80.00,298.00,511.00,1072.00,573.00,945.00,,,,,,,,,,,,1,1,0,,-2512,15948,976,32,1200,-232
37.994,37.87,-5.17,-3.29,1.04,-6.54,1.84,-3.19,-3.21,-5.41,-3.13,179.00,475.00,130.00,228.00,561.00,1101.00,595.00,983.00,,,,,,,,,,,,1,1,0,,-2332,16440,1228,-296,1773,-57
38.055,37.92,-5.28,-5.32,0.24,-5.20,-5.32,-7.32,0.27,-7.55,-1.46,194.00,526.00,187.00,262.00,501.00,1181.00,565.00,1023.00,,,,,,,,,,,,1,1,0,,-2440,16284,2080,1696,4174,-1060
38.095,37.98,-5.34,-8.70,3.49,-16.43,2.53,-6.54,1.03,-5.28,-2.83,173.00,551.00,150.00,331.00,474.00,1122.00,584.00,970.00,,,,,,,,,,,,1,1,0,,-2332,16032,-92,1042,3802,-789
38.157,38.03,-5.19,-5.32,1.32,-15.51,8.63,-2.28,-4.00,-4.86,-4.17,183.00,511.00,106.00,271.00,576.00,1085.00,623.00,989.00,,,,,,,,,,,,1,1,0,,-2416,14980,-816,-147,995,-66
38.219,38.09,-5.26,-2.50,-2.26,0.07,-8.25,-6.68,-1.02,-7.49,-1.12,211.00,503.00,199.00,230.00,531.00,1192.00,554.00,1011.00,,,,,,,,,,,,1,1,0,,-2532,17476,1044,864,-780,441
38.281,38.14,-5.41,-9.13,3.32,-14.38,0.99,-8.15,1.69,-6.34,-2.28,176.00,563.00,157.00,318.00,471.00,1175.00,578.00,997.00,,,,,,,,,,,,1,1,0,,-2496,16300,860,4373,-636,-160
38.342,38.20,-5.28,-7.50,3.52,-17.80,9.23,-2.90,-2.80,-4.97,-2.78,169.00,525.00,107.00,292.00,546.00,1077.00,579.00,957.00,,,,,,,,,,,,1,1,0,,-2316,15384,-816,1394,-2670,261
38.404,38.25,-5.25,-1.55,-1.12,1.74,-5.12,-4.57,-1.90,-5.54,-2.52,195.00,470.00,163.00,198.00,536.00,1123.00,577.00,972.00,,,,,,,,,,,,1,1,0,,-2320,16204,84,-608,-3100,458
38.425,38.31,-5.37,-5.59,0.14,-7.17,-3.54,-7.75,1.32,-7.39,-0.81,196.00,533.00,176.00,270.00,477.00,1168.00,544.00,999.00,,,,,,,,,,,,1,1,0,,-2672,16700,1188,572,-666,-682
38.486,38.36,-5.36,-10.86,8.13,-19.84,12.11,-5.17,-0.38,-4.52,-2.38,140.00,530.00,95.00,293.00,499.00,1104.00,562.00,930.00,,,,,,,,,,,,1,1,0,,-2596,15916,48,1045,938,-559
38.546,38.42,-5.26,-3.74,0.09,-10.84,3.58,-3.33,-3.09,-4.78,-3.22,190.00,496.00,128.00,258.00,559.00,1104.00,591.00,961.00,,,,,,,,,,,,1,1,0,,-2512,15912,-872,1183,1022,-401
38.588,38.47,-5.39,-4.50,-1.32,-3.24,-7.50,-7.79,0.43,-7.42,-0.39,208.00,531.00,203.00,257.00,501.00,1198.00,532.00,989.00,,,,,,,,,,,,1,1,0,,-2476,16084,-1904,90,-508,-669
38.65,38.53,-5.44,-9.06,4.16,-20.56,4.67,-6.57,1.04,-4.15,-2.44,168.00,549.00,144.00,368.00,474.00,1123.00,560.00,918.00,,,,,,,,,,,,1,1,0,,-2400,16144,-1912,77,-2851,-1058
38.711,38.58,-5.29,-7.07,4.05,-13.35,5.31,-2.28,-3.51,-3.87,-3.62,163.00,509.00,122.00,272.00,561.00,1071.00,594.00,937.00,,,,,,,,,,,,1,1,0,,-2736,15956,-616,-1275,-3604,-1379
38.773,38.64,-5.28,-2.20,-2.09,-1.62,-6.23,-5.12,-1.86,-6.41,-1.78,208.00,495.00,184.00,233.00,540.00,1146.00,563.00,986.00,,,,,,,,,,,,1,1,0,,-3052,15760,480,-949,-2402,-1432
38.815,38.69,-5.43,-5.45,0.28,-9.38,-0.69,-8.24,2.40,-7.39,-0.75,194.00,528.00,157.00,273.00,454.00,1157.00,542.00,997.00,,,,,,,,,,,,1,1,0,,-3384,15244,1372,-378,-650,-583
38.878,38.75,-5.32,-8.96,5.61,-21.38,15.80,-3.20,-1.94,-5.00,-2.35,155.00,526.00,80.00,282.00,524.00,1065.00,566.00,947.00,,,,,,,,,,,,1,1,0,,-3116,16048,556,-251,361,224
38.919,38.80,-5.30,-3.01,0.24,-0.83,0.21,-5.02,-0.50,-5.68,-2.73,186.00,480.00,128.00,190.00,501.00,1101.00,585.00,983.00,,,,,,,,,,,,1,1,0,,-2984,15948,432,-41,1025,-110
39.003,38.86,-5.43,-1.90,0.68,-4.30,-3.54,-7.91,2.95,-8.26,0.21,178.00,454.00,167.00,241.00,438.00,1125.00,523.00,1006.00,,,,,,,,,,,,1,1,0,,-3036,15772,72,-186,942,93
39.044,38.91,-5.40,-13.44,10.08,-14.74,7.35,-4.90,0.25,-4.83,-3.11,132.00,557.00,112.00,272.00,480.00,1074.00,588.00,960.00,,,,,,,,,,,,1,1,0,,-2872,15844,24,-350,393,181
39.085,38.97,-5.29,-4.32,0.59,-10.62,7.69,-3.20,-2.19,-4.79,-3.43,187.00,501.00,102.00,229.00,531.00,1072.00,598.00,967.00,,,,,,,,,,,,1,1,0,,-2924,16124,436,-624,277,109
39.147,39.02,-5.41,-4.57,-0.94,0.38,-6.70,-7.66,1.25,-7.46,-1.19,204.00,527.00,182.00,218.00,478.00,1166.00,556.00,1012.00,,,,,,,,,,,,1,1,0,,-2908,15916,316,355,420,-42
39.209,39.08,-5.50,-9.78,4.62,-19.16,9.01,-7.14,2.52,-5.30,-2.38,166.00,558.00,111.00,310.00,442.00,1104.00,570.00,959.00,,,,,,,,,,,,1,1,0,,-3080,16000,-20,216,399,-47
39.251,39.13,-5.35,-8.59,5.13,-18.62,15.34,-2.57,-3.68,-5.23,-3.32,158.00,525.00,78.00,256.00,569.00,1088.00,599.00,981.00,,,,,,,,,,,,1,1,0,,-3164,15960,36,-472,622,30
39.313,39.19,-5.34,-3.96,-0.02,2.45,-5.02,-5.19,-1.49,-6.29,-2.40,192.00,502.00,160.00,192.00,530.00,1138.00,581.00,998.00,,,,,,,,,,,,1,1,0,,-2936,15824,76,-138,1089,58
39.395,39.24,-5.49,-6.44,1.40,-7.33,-1.61,-8.31,2.46,-7.43,-0.90,186.00,533.00,159.00,258.00,453.00,1158.00,547.00,1003.00,,,,,,,,,,,,1,1,0,,-2964,15804,204,-336,916,376
39.415,39.30,-5.44,-12.00,9.32,-25.10,18.49,-4.39,-0.68,-5.10,-2.70,134.00,537.00,74.00,304.00,500.00,1079.00,578.00,960.00,,,,,,,,,,,,1,1,0,,-2900,16236,360,175,677,410
39.498,39.35,-5.37,-3.56,1.45,-4.01,0.99,-4.18,-2.58,-6.10,-3.09,176.00,475.00,130.00,211.00,552.00,1126.00,601.00,1009.00,,,,,,,,,,,,1,1,0,,-2912,16544,1992,-426,3461,-278
39.539,39.41,-5.52,-5.89,0.25,-4.41,-5.19,-8.29,1.04,-7.67,-1.26,196.00,538.00,183.00,253.00,489.00,1202.00,560.00,1022.00,,,,,,,,,,,,1,1,0,,-2996,16260,-116,-2747,5111,-1007
39.601,39.46,-5.57,-9.00,3.59,-19.36,6.30,-6.49,-0.16,-5.01,-2.60,173.00,556.00,129.00,336.00,505.00,1156.00,574.00,954.00,,,,,,,,,,,,1,1,0,,-2584,15568,-1792,538,1181,-272
39.682,39.52,-5.43,-4.19,0.54,-17.99,13.98,-2.71,-4.05,-5.20,-3.48,187.00,499.00,83.00,259.00,582.00,1105.00,604.00,984.00,,,,,,,,,,,,1,1,0,,-2944,15584,484,84,-2380,748
39.744,39.57,-5.54,-4.95,-1.08,0.23,-9.11,-7.70,0.18,-7.95,-1.16,207.00,537.00,208.00,234.00,507.00,1202.00,560.00,1031.00,,,,,,,,,,,,1,1,0,,-3148,16896,2472,-1193,1534,-186
39.764,39.63,-5.64,-9.06,3.09,-16.32,3.63,-7.46,1.38,-5.76,-2.35,178.00,565.00,141.00,320.00,473.00,1153.00,574.00,976.00,,,,,,,,,,,,1,1,0,,-3004,16272,444,-1060,6367,-2297
