Time_Host,Time_Arduino,easingdata,CH1_Oxy,CH1_Deoxy,CH2_Oxy,CH2_Deoxy,CH3_Oxy,CH3_Deoxy,CH4_Oxy,CH4_Deoxy,CH1_PD730,CH1_PD850,CH2_PD730,CH2_PD850,CH3_PD730,CH3_PD850,CH4_PD730,CH4_PD850,Answers,airplane_playstate,trail_times,frameRate,Airplane X,Airplane Y,Correct,Wrong,Slow,AnswerRate,CorrectRate,VFTstates,VFTchoose,VFTCount,Culfstates,ax,ay,az,gx,gy,gz
1.126,0.04,0.00,0.00,0.00,0.00,0.00,0.00,0.00,0.00,0.00,222.00,699.00,867.00,1388.00,1953.00,4095.00,467.00,1726.00,,,,,,,,,,,,0,0,0,,-1560,16068,1432,-34,-50,-269
1.147,0.10,0.00,0.00,0.00,0.00,0.00,0.00,0.00,0.00,0.00,113.00,689.00,681.00,1429.00,2101.00,4095.00,563.00,1663.00,,,,,,,,,,,,0,0,0,,-1624,16120,1452,-87,37,-169
1.167,0.15,0.00,0.00,0.00,0.00,0.00,0.00,0.00,0.00,0.00,226.00,647.00,814.00,1343.00,2179.00,4095.00,590.00,1719.00,,,,,,,,,,,,0,0,0,,-1400,15988,1396,-16,145,-92
1.188,0.21,0.00,0.00,0.00,0.00,0.00,0.00,0.00,0.00,0.00,276.00,686.00,928.00,1361.00,2067.00,4095.00,535.00,1769.00,,,,,,,,,,,,0,0,0,,-1544,16012,1316,-103,65,-203
1.209,0.26,0.00,0.00,0.00,0.00,0.00,0.00,0.00,0.00,0.00,191.00,751.00,800.00,1490.00,2033.00,4095.00,526.00,1698.00,,,,,,,,,,,,0,0,0,,-1572,16144,1404,-85,91,-75
1.23,1.06,0.00,0.00,0.00,0.00,0.00,0.00,0.00,0.00,0.00,224.00,697.00,892.00,1394.00,1951.00,4095.00,464.00,1729.00,,,,,,,,,,,,0,0,0,,-1392,16060,948,315,204,-277
1.25,1.11,0.00,0.00,0.00,0.00,0.00,0.00,0.00,0.00,0.00,112.00,722.00,699.00,1471.00,2066.00,4095.00,556.00,1680.00,,,,,,,,,,,,0,0,0,,-1408,16164,916,114,57,-181
1.311,1.17,0.00,0.00,0.00,0.00,0.00,0.00,0.00,0.00,0.00,219.00,649.00,784.00,1349.00,2207.00,4095.00,611.00,1691.00,,,,,,,,,,,,0,0,0,,-1344,15996,1000,-5,121,-248
1.394,1.22,0.00,0.00,0.00,0.00,0.00,0.00,0.00,0.00,0.00,283.00,670.00,939.00,1310.00,2071.00,4095.00,543.00,1772.00,,,,,,,,,,,,0,0,0,,-1400,16260,804,18,145,-321
1.414,1.28,0.00,0.00,0.00,0.00,0.00,0.00,0.00,0.00,0.00,198.00,775.00,809.00,1515.00,1989.00,4095.00,510.00,1697.00,,,,,,,,,,,,0,0,0,,-1412,16140,900,-29,48,-365
1.538,1.33,0.06,-1.24,3.89,-2.81,4.96,1.15,-1.69,3.89,-4.16,171.00,661.00,661.00,1375.00,2213.00,4095.00,626.00,1643.00,,,,,,,,,,,,0,0,0,,-1480,16120,904,-27,61,-465
1.558,1.39,0.07,9.97,-10.44,6.26,-4.42,0.27,-0.39,0.23,-0.87,303.00,623.00,931.00,1235.00,2096.00,4095.00,560.00,1739.00,,,,,,,,,,,,0,0,0,,-1404,16064,872,1,67,-363
1.579,1.45,0.01,-0.57,0.23,0.40,-0.51,-1.02,1.50,-2.08,3.11,206.00,710.00,838.00,1402.00,1936.00,4095.00,471.00,1713.00,,,,,,,,,,,,0,0,0,,-1556,16036,996,-20,-1,-194
1.619,1.50,0.03,-7.30,11.72,-3.21,4.87,0.27,-0.39,3.20,-2.71,125.00,681.00,669.00,1400.00,2096.00,4095.00,586.00,1624.00,,,,,,,,,,,,0,0,0,,-1556,16248,996,-67,103,-135
1.682,1.55,0.05,8.59,-5.67,5.36,-1.93,0.51,-0.76,0.93,-1.82,240.00,579.00,827.00,1197.00,2128.00,4095.00,582.00,1735.00,,,,,,,,,,,,0,0,0,,-1492,16100,956,32,271,-182
1.723,1.61,-0.00,1.57,-2.61,1.60,-1.58,-1.05,1.55,-2.88,3.37,231.00,704.00,869.00,1376.00,1932.00,4095.00,471.00,1755.00,,,,,,,,,,,,0,0,0,,-1528,16108,816,-3,173,-164
1.786,1.66,-0.00,-10.26,14.57,-4.20,4.74,0.07,-0.10,1.38,-1.26,113.00,709.00,686.00,1461.00,2070.00,4095.00,560.00,1679.00,,,,,,,,,,,,0,0,0,,-1496,16196,748,20,18,-231
1.929,1.72,0.05,3.07,-2.13,0.70,0.60,1.10,-1.62,2.17,-3.49,219.00,655.00,785.00,1345.00,2206.00,4095.00,623.00,1728.00,,,,,,,,,,,,0,0,0,,-1476,16164,816,13,0,-308
1.95,1.77,0.06,6.06,-8.00,3.84,-3.92,0.16,-0.23,-1.05,-0.37,285.00,681.00,947.00,1341.00,2082.00,4095.00,558.00,1805.00,,,,,,,,,,,,0,0,0,,-1560,16252,700,58,-7,-328
1.971,1.83,0.04,-3.91,2.08,-2.68,0.98,-0.28,0.41,-0.26,0.17,198.00,771.00,818.00,1522.00,2027.00,4095.00,534.00,1724.00,,,,,,,,,,,,0,0,0,,-1488,16212,660,-33,26,-445
2.013,1.88,0.10,-0.89,3.03,-1.74,3.01,1.10,-1.63,3.47,-4.04,178.00,667.00,720.00,1388.00,2207.00,4095.00,627.00,1666.00,,,,,,,,,,,,0,0,0,,-1604,16128,612,-115,-4,-244
2.055,1.94,0.10,10.65,-11.56,6.42,-4.63,0.21,-0.31,-0.28,-0.86,318.00,625.00,939.00,1234.00,2089.00,4095.00,565.00,1774.00,,,,,,,,,,,,0,0,0,,-1600,16220,840,-26,54,-291
2.118,2.00,0.05,0.15,-0.19,0.44,-0.39,-1.02,1.50,-2.51,3.41,208.00,698.00,832.00,1395.00,1936.00,4095.00,467.00,1728.00,,,,,,,,,,,,0,0,0,,-1620,16148,728,-56,-81,-358
2.186,2.05,0.06,-7.35,11.73,-3.24,5.13,0.32,-0.47,3.15,-2.78,125.00,682.00,660.00,1392.00,2103.00,4095.00,589.00,1631.00,,,,,,,,,,,,0,0,0,,-1696,16068,728,-169,-100,-365
2.27,2.10,0.08,8.53,-5.66,5.10,-1.80,0.44,-0.64,0.20,-1.05,240.00,580.00,825.00,1205.00,2118.00,4095.00,566.00,1750.00,,,,,,,,,,,,0,0,0,,-1724,16116,748,-213,-18,-478
2.291,2.16,0.02,1.22,-2.25,1.68,-1.84,-1.16,1.72,-2.98,3.76,228.00,707.00,880.00,1381.00,1919.00,4095.00,462.00,1744.00,,,,,,,,,,,,0,0,0,,-1808,16152,728,-308,45,-285
2.332,2.21,0.02,-10.45,15.82,-4.16,5.33,0.01,-0.02,1.80,-1.50,106.00,691.00,664.00,1436.00,2063.00,4095.00,563.00,1662.00,,,,,,,,,,,,0,0,0,,-1752,16080,836,-375,2,-372
2.395,2.27,0.07,3.44,-2.34,1.30,0.09,1.10,-1.63,1.92,-3.02,220.00,649.00,798.00,1331.00,2207.00,4095.00,610.00,1723.00,,,,,,,,,,,,0,0,0,,-1872,16184,836,-362,14,-360
2.458,2.33,0.07,5.99,-8.17,4.23,-4.11,0.02,-0.03,-0.99,-0.29,288.00,686.00,950.00,1327.00,2064.00,4095.00,555.00,1797.00,,,,,,,,,,,,0,0,0,,-1752,16068,972,-349,11,-297
2.521,2.38,0.05,-3.50,1.57,-2.82,1.23,-0.34,0.50,-0.07,0.01,202.00,769.00,809.00,1520.00,2019.00,4095.00,537.00,1719.00,,,,,,,,,,,,0,0,0,,-1840,16096,1060,-263,79,-256
2.563,2.43,0.11,-1.03,3.18,-1.44,2.64,1.23,-1.81,4.02,-5.15,177.00,668.00,731.00,1386.00,2224.00,4095.00,659.00,1679.00,,,,,,,,,,,,0,0,0,,-1816,16028,928,-203,41,-176
2.626,2.49,0.12,10.18,-10.88,5.52,-4.64,0.32,-0.47,-0.95,-0.47,309.00,625.00,955.00,1279.00,2103.00,4095.00,560.00,1803.00,,,,,,,,,,,,0,0,0,,-1868,16156,1052,-42,85,-109
2.709,2.54,0.06,-0.73,0.10,-0.08,-0.43,-0.99,1.46,-2.69,3.31,208.00,717.00,842.00,1426.00,1940.00,4095.00,471.00,1745.00,,,,,,,,,,,,0,0,0,,-1896,16168,720,3,175,-21
2.731,2.60,0.08,-6.86,10.84,-3.65,4.96,0.43,-0.63,2.60,-2.41,130.00,685.00,671.00,1421.00,2117.00,4095.00,583.00,1650.00,,,,,,,,,,,,0,0,0,,-1748,16048,952,-71,180,-136
2.771,2.65,0.09,8.14,-5.52,4.90,-2.17,0.36,-0.53,0.52,-1.42,240.00,587.00,845.00,1227.00,2108.00,4095.00,574.00,1745.00,,,,,,,,,,,,0,0,0,,-1804,16108,1016,-84,184,-8
2.834,2.71,0.03,-0.87,-0.72,1.73,-1.48,-1.20,1.77,-3.05,3.99,218.00,737.00,862.00,1365.00,1915.00,4095.00,457.00,1738.00,,,,,,,,,,,,0,0,0,,-1668,16120,872,36,269,4
2.896,2.77,0.02,-10.52,16.20,-3.91,5.30,-0.12,0.17,1.99,-1.46,104.00,686.00,662.00,1423.00,2047.00,4095.00,560.00,1648.00,,,,,,,,,,,,0,0,0,,-1716,16124,776,-29,62,-105
2.98,2.82,0.07,4.12,-3.22,1.28,0.22,0.91,-1.35,2.33,-3.18,228.00,647.00,793.00,1328.00,2181.00,4095.00,611.00,1703.00,,,,,,,,,,,,0,0,0,,-1604,16028,888,-90,44,-175
3.001,2.87,0.06,6.17,-7.77,3.98,-3.77,-0.01,0.01,-1.00,0.18,281.00,674.00,937.00,1328.00,2061.00,4095.00,541.00,1775.00,,,,,,,,,,,,0,0,0,,-1712,16188,900,-121,97,-328
3.043,2.93,0.04,-4.32,2.79,-2.72,1.36,-0.48,0.71,-0.24,0.41,192.00,769.00,802.00,1509.00,2001.00,4095.00,527.00,1712.00,,,,,,,,,,,,0,0,0,,-1716,16148,876,-130,56,-205
3.106,2.98,0.09,0.20,1.36,-0.99,2.51,1.21,-1.78,3.47,-4.08,191.00,668.00,730.00,1366.00,2221.00,4095.00,628.00,1667.00,,,,,,,,,,,,0,0,0,,-1828,16216,984,-161,64,-223
3.169,3.04,0.10,10.29,-10.91,6.82,-5.20,0.18,-0.27,-0.63,-0.61,309.00,623.00,961.00,1233.00,2085.00,4095.00,561.00,1787.00,,,,,,,,,,,,0,0,0,,-1772,16116,1040,-53,85,-225
3.233,3.10,0.04,-1.44,0.43,-0.49,-0.01,-1.06,1.57,-2.08,2.79,207.00,731.00,829.00,1433.00,1931.00,4095.00,479.00,1727.00,,,,,,,,,,,,0,0,0,,-1816,16008,884,-66,88,-125
3.273,3.15,0.05,-7.35,11.73,-3.88,5.45,0.27,-0.39,2.65,-2.40,125.00,682.00,656.00,1415.00,2096.00,4095.00,582.00,1646.00,,,,,,,,,,,,0,0,0,,-1768,15972,952,-60,130,-147
3.356,3.20,0.07,8.40,-5.84,4.50,-1.80,0.44,-0.66,0.33,-1.10,243.00,586.00,834.00,1234.00,2119.00,4095.00,566.00,1743.00,,,,,,,,,,,,0,0,0,,-1748,16168,912,-100,135,-126
3.376,3.26,0.01,1.17,-2.07,0.80,-1.10,-1.15,1.69,-3.23,3.89,226.00,705.00,859.00,1402.00,1921.00,4095.00,461.00,1755.00,,,,,,,,,,,,0,0,0,,-1728,16052,780,-87,82,-162
3.439,3.31,0.01,-11.52,17.07,-4.38,5.26,0.07,-0.11,1.85,-1.64,101.00,697.00,669.00,1451.00,2071.00,4095.00,567.00,1665.00,,,,,,,,,,,,0,0,0,,-1832,16028,692,-137,87,-203
3.501,3.37,0.07,4.79,-3.04,1.54,-0.19,1.10,-1.62,1.63,-2.98,223.00,627.00,807.00,1329.00,2206.00,4095.00,612.00,1741.00,,,,,,,,,,,,0,0,0,,-1808,16236,840,-143,233,-11
3.565,3.42,0.07,5.87,-7.27,3.33,-3.67,0.19,-0.28,-0.90,0.01,275.00,673.00,943.00,1359.00,2086.00,4095.00,545.00,1776.00,,,,,,,,,,,,0,0,0,,-1772,16080,920,-139,320,22
3.626,3.48,0.05,-4.36,3.09,-2.47,1.11,-0.34,0.50,1.07,-1.54,189.00,764.00,809.00,1504.00,2019.00,4095.00,572.00,1713.00,,,,,,,,,,,,0,0,0,,-1764,16136,824,-24,229,-4
3.73,3.54,0.11,-0.02,2.03,-0.93,2.59,1.10,-1.63,4.00,-4.55,185.00,662.00,726.00,1360.00,2207.00,4095.00,638.00,1653.00,,,,,,,,,,,,0,0,0,,-1616,16176,784,-3,100,15
3.751,3.59,0.11,10.98,-11.26,6.50,-5.15,0.20,-0.29,-0.49,-0.59,311.00,612.00,964.00,1247.00,2087.00,4095.00,559.00,1776.00,,,,,,,,,,,,0,0,0,,-1668,16152,808,-69,74,-140
3.772,3.64,0.05,-1.48,0.53,-0.27,-0.10,-1.04,1.53,-1.83,2.71,206.00,730.00,830.00,1424.00,1934.00,4095.00,479.00,1714.00,,,,,,,,,,,,0,0,0,,-1568,16136,796,-121,80,-204
3.813,3.70,0.06,-7.11,11.65,-3.36,5.22,0.27,-0.39,3.06,-2.66,125.00,677.00,658.00,1395.00,2096.00,4095.00,586.00,1631.00,,,,,,,,,,,,0,0,0,,-1600,16068,880,-128,18,-291
3.874,3.75,0.08,7.86,-5.43,4.88,-1.97,0.34,-0.50,0.67,-1.15,240.00,592.00,836.00,1221.00,2105.00,4095.00,564.00,1722.00,,,,,,,,,,,,0,0,0,,-1688,16288,880,-163,5,-304
3.936,3.81,0.01,0.90,-1.56,1.41,-1.39,-1.33,1.97,-3.13,4.30,221.00,703.00,863.00,1379.00,1899.00,4095.00,450.00,1729.00,,,,,,,,,,,,0,0,0,,-1708,16108,816,-200,-21,-413
3.999,3.87,0.01,-11.84,17.93,-4.57,5.74,0.10,-0.14,2.23,-1.61,97.00,690.00,654.00,1443.00,2074.00,4095.00,562.00,1639.00,,,,,,,,,,,,0,0,0,,-1768,16196,872,-96,-12,-392
4.081,3.92,0.06,6.10,-3.65,2.23,-0.22,0.97,-1.43,1.81,-2.77,225.00,605.00,798.00,1294.00,2189.00,4095.00,603.00,1719.00,,,,,,,,,,,,0,0,0,,-1820,16084,904,-78,-71,-313
4.1,3.98,0.06,6.28,-7.21,3.56,-3.51,0.03,-0.05,-1.02,0.26,272.00,661.00,931.00,1341.00,2066.00,4095.00,539.00,1773.00,,,,,,,,,,,,0,0,0,,-1784,16108,836,-132,31,-215
4.161,4.03,0.04,-3.85,2.63,-2.58,1.15,-0.32,0.47,-0.25,0.21,192.00,758.00,809.00,1509.00,2022.00,4095.00,533.00,1722.00,,,,,,,,,,,,0,0,0,,-1844,16164,872,-87,181,-164
4.222,4.08,0.10,0.32,1.13,-1.64,2.96,1.25,-1.84,3.44,-4.39,193.00,669.00,721.00,1385.00,2227.00,4095.00,639.00,1683.00,,,,,,,,,,,,0,0,0,,-1880,16096,760,-66,186,-95
4.284,4.14,0.11,10.75,-11.66,5.68,-4.79,0.29,-0.43,-1.05,-0.44,319.00,624.00,960.00,1276.00,2099.00,4095.00,560.00,1808.00,,,,,,,,,,,,0,0,0,,-1928,16176,868,-20,134,-80
4.325,4.20,0.07,-2.19,0.77,-1.38,0.07,-0.76,1.12,-2.07,2.33,206.00,746.00,839.00,1481.00,1967.00,4095.00,491.00,1748.00,,,,,,,,,,,,0,0,0,,-1756,16052,752,3,162,-62
4.387,4.25,0.09,-2.87,5.78,-3.41,4.61,0.49,-0.72,2.96,-2.78,159.00,670.00,681.00,1421.00,2125.00,4095.00,591.00,1643.00,,,,,,,,,,,,0,0,0,,-1776,16100,880,-45,127,-225
4.488,4.30,0.11,8.06,-5.73,4.80,-2.18,0.51,-0.76,0.45,-1.30,243.00,592.00,847.00,1232.00,2128.00,4095.00,571.00,1744.00,,,,,,,,,,,,0,0,0,,-1692,16108,864,-90,114,-148
4.509,4.36,0.04,1.55,-2.52,1.37,-1.37,-1.26,1.87,-2.90,3.94,230.00,703.00,863.00,1381.00,1907.00,4095.00,457.00,1730.00,,,,,,,,,,,,0,0,0,,-1932,16148,888,-76,114,-120
4.55,4.41,0.04,-12.36,18.10,-4.29,5.96,0.04,-0.06,3.11,-2.86,97.00,701.00,643.00,1419.00,2067.00,4095.00,592.00,1637.00,,,,,,,,,,,,0,0,0,,-1672,16176,584,-113,26,-243
4.613,4.47,0.08,5.75,-2.95,2.62,-0.19,0.76,-1.13,1.51,-2.42,218.00,602.00,791.00,1273.00,2161.00,4095.00,595.00,1723.00,,,,,,,,,,,,0,0,0,,-1796,16156,908,-226,-35,-306
4.654,4.53,0.07,5.58,-6.91,4.07,-3.90,-0.01,0.01,-0.84,0.03,271.00,674.00,942.00,1328.00,2061.00,4095.00,544.00,1771.00,,,,,,,,,,,,0,0,0,,-1956,16128,864,-144,79,-328
4.696,4.58,0.05,-3.59,2.54,-2.24,0.99,-0.40,0.60,-0.18,0.32,192.00,752.00,811.00,1495.00,2011.00,4095.00,529.00,1712.00,,,,,,,,,,,,0,0,0,,-1968,16080,984,-70,209,-118
4.757,4.63,0.11,0.06,1.80,-0.79,2.19,1.22,-1.80,3.25,-4.27,187.00,664.00,740.00,1367.00,2223.00,4095.00,637.00,1690.00,,,,,,,,,,,,0,0,0,,-1840,16192,740,-56,241,-153
4.839,4.69,0.11,9.87,-10.65,6.38,-4.93,0.23,-0.34,-0.83,-0.35,307.00,629.00,955.00,1246.00,2091.00,4095.00,555.00,1788.00,,,,,,,,,,,,0,0,0,,-1876,16156,776,16,176,-125
4.86,4.75,0.07,-2.02,0.63,-0.98,0.11,-0.81,1.20,-1.94,2.63,207.00,744.00,831.00,1456.00,1961.00,4095.00,482.00,1725.00,,,,,,,,,,,,0,0,0,,-1816,16092,776,93,74,-148
4.921,4.80,0.10,-6.63,10.35,-3.44,4.92,0.71,-1.05,3.20,-2.77,133.00,688.00,670.00,1411.00,2154.00,4095.00,588.00,1627.00,,,,,,,,,,,,0,0,0,,-1696,16200,1164,214,262,-133
4.982,4.86,0.12,8.33,-5.74,4.79,-2.07,0.46,-0.68,0.45,-1.24,242.00,586.00,842.00,1229.00,2121.00,4095.00,569.00,1741.00,,,,,,,,,,,,0,0,0,,-1908,16096,828,477,231,-348
5.043,4.91,0.06,0.43,-0.99,0.71,-0.79,-1.11,1.64,-3.03,3.70,216.00,705.00,846.00,1395.00,1925.00,4095.00,464.00,1750.00,,,,,,,,,,,,0,0,0,,-1724,16208,532,634,-223,-491
5.084,4.96,0.06,-12.39,18.30,-4.21,5.37,0.17,-0.25,2.43,-2.16,96.00,698.00,663.00,1437.00,2083.00,4095.00,577.00,1650.00,,,,,,,,,,,,0,0,0,,-1828,16156,336,606,-521,-568
5.188,5.02,0.11,5.74,-2.43,2.24,-0.38,1.13,-1.67,1.55,-2.92,212.00,594.00,805.00,1299.00,2211.00,4095.00,611.00,1744.00,,,,,,,,,,,,0,0,0,,-1892,16060,424,504,-576,-654
5.208,5.08,0.12,5.60,-6.98,3.03,-3.55,0.23,-0.34,-0.86,-0.50,272.00,675.00,942.00,1371.00,2091.00,4095.00,560.00,1798.00,,,,,,,,,,,,0,0,0,,-2036,16340,360,240,-274,-634
5.249,5.13,0.10,-4.02,3.27,-2.85,1.12,-0.22,0.32,-0.19,0.01,186.00,750.00,814.00,1526.00,2034.00,4095.00,538.00,1727.00,,,,,,,,,,,,0,0,0,,-2184,15952,240,-36,-48,-492
5.332,5.18,0.16,1.02,0.90,-0.94,2.22,1.24,-1.82,3.50,-4.41,193.00,655.00,741.00,1374.00,2225.00,4095.00,639.00,1680.00,,,,,,,,,,,,0,0,0,,-2128,16036,192,-368,28,-372
5.352,5.24,0.16,10.39,-10.83,6.45,-5.03,0.24,-0.35,-0.51,-1.04,307.00,619.00,959.00,1246.00,2092.00,4095.00,573.00,1799.00,,,,,,,,,,,,0,0,0,,-2284,16188,300,-554,60,-321
5.435,5.29,0.11,-2.53,0.98,-1.14,0.28,-0.94,1.39,-1.88,2.34,205.00,752.00,826.00,1459.00,1945.00,4095.00,489.00,1734.00,,,,,,,,,,,,0,0,0,,-2204,16080,564,-737,75,-224
5.477,5.35,0.12,-6.25,11.21,-2.88,4.54,0.35,-0.52,2.84,-2.49,126.00,662.00,677.00,1394.00,2107.00,4095.00,583.00,1638.00,,,,,,,,,,,,0,0,0,,-2144,16136,620,-748,199,-12
5.558,5.41,0.13,8.42,-5.62,4.87,-1.83,0.39,-0.58,0.39,-1.41,240.00,582.00,830.00,1217.00,2112.00,4095.00,575.00,1753.00,,,,,,,,,,,,0,0,0,,-2128,16028,736,-781,322,63
5.578,5.46,0.07,1.18,-1.66,1.04,-0.94,-1.18,1.74,-3.36,4.29,221.00,697.00,848.00,1383.00,1917.00,4095.00,452.00,1745.00,,,,,,,,,,,,0,0,0,,-2060,16004,676,-1096,426,273
5.639,5.51,0.07,-11.25,16.62,-4.18,5.58,0.09,-0.13,2.46,-2.04,103.00,698.00,655.00,1427.00,2073.00,4095.00,573.00,1643.00,,,,,,,,,,,,0,0,0,,-2032,16208,928,-1221,806,265
5.681,5.57,0.12,6.89,-3.99,2.52,-0.36,1.07,-1.59,1.89,-3.04,226.00,592.00,800.00,1284.00,2203.00,4095.00,611.00,1726.00,,,,,,,,,,,,0,0,0,,-1936,16132,856,-893,791,93
5.742,5.62,0.11,5.30,-7.15,3.86,-3.87,0.02,-0.03,-1.15,0.13,276.00,686.00,944.00,1338.00,2064.00,4095.00,544.00,1788.00,,,,,,,,,,,,0,0,0,,-1856,16108,900,-753,250,42
5.803,5.68,0.10,-3.72,2.68,-2.62,1.30,-0.26,0.38,-0.03,0.10,191.00,753.00,803.00,1505.00,2029.00,4095.00,534.00,1712.00,,,,,,,,,,,,0,0,0,,-1916,16132,1184,-649,0,-108
5.864,5.74,0.15,-0.09,1.46,-0.88,1.97,1.24,-1.82,3.62,-4.39,191.00,674.00,750.00,1380.00,2225.00,4095.00,637.00,1671.00,,,,,,,,,,,,0,0,0,,-1816,16160,1220,-489,123,-246
5.926,5.79,0.16,10.44,-11.32,5.81,-4.84,0.29,-0.43,-0.90,-0.32,315.00,626.00,960.00,1271.00,2099.00,4095.00,555.00,1792.00,,,,,,,,,,,,0,0,0,,-1928,16044,1372,-248,156,-296
5.989,5.84,0.11,-2.57,0.99,-1.35,0.13,-0.87,1.28,-1.90,2.16,205.00,753.00,836.00,1477.00,1954.00,4095.00,494.00,1744.00,,,,,,,,,,,,0,0,0,,-2004,16104,1268,-109,-6,-336
6.01,5.90,0.13,-6.92,11.15,-3.57,4.74,0.51,-0.76,2.61,-2.51,128.00,681.00,678.00,1425.00,2128.00,4095.00,586.00,1654.00,,,,,,,,,,,,0,0,0,,-2076,16032,1232,42,-92,-331
6.072,5.95,0.14,8.33,-6.12,4.21,-2.01,0.44,-0.64,0.10,-1.15,247.00,592.00,848.00,1255.00,2118.00,4095.00,570.00,1761.00,,,,,,,,,,,,0,0,0,,-2048,16080,1068,55,-112,-536
6.134,6.01,0.07,0.78,-1.44,1.06,-1.57,-1.29,1.90,-3.28,3.90,220.00,704.00,877.00,1405.00,1904.00,4095.00,461.00,1758.00,,,,,,,,,,,,0,0,0,,-2000,16068,1196,-1,-54,-130
6.196,6.07,0.08,-11.47,17.42,-4.05,5.37,0.15,-0.22,2.03,-1.47,99.00,689.00,661.00,1428.00,2081.00,4095.00,560.00,1646.00,,,,,,,,,,,,0,0,0,,-2160,15944,1168,-223,209,-88
6.299,6.12,0.12,6.21,-3.68,2.83,-0.35,0.94,-1.39,1.61,-2.55,225.00,603.00,795.00,1268.00,2185.00,4095.00,598.00,1722.00,,,,,,,,,,,,0,0,0,,-2096,16048,988,-288,298,-21
6.319,6.17,0.11,5.90,-7.81,4.05,-3.95,0.01,-0.02,-0.96,0.37,283.00,682.00,945.00,1331.00,2063.00,4095.00,535.00,1763.00,,,,,,,,,,,,0,0,0,,-2020,15980,1036,-330,141,-26
6.38,6.23,0.09,-3.81,2.62,-2.28,1.30,-0.42,0.62,-0.16,0.24,192.00,757.00,798.00,1485.00,2009.00,4095.00,531.00,1714.00,,,,,,,,,,,,0,0,0,,-1968,16140,1052,-237,170,-80
6.401,6.29,0.16,0.39,0.92,-1.12,2.71,1.48,-2.19,3.55,-4.36,195.00,671.00,724.00,1366.00,2259.00,4095.00,637.00,1675.00,,,,,,,,,,,,0,0,0,,-1892,15976,1164,-297,206,-60
6.464,6.34,0.16,10.96,-11.78,6.24,-4.79,0.26,-0.38,-0.57,-0.50,320.00,621.00,950.00,1248.00,2095.00,4095.00,557.00,1777.00,,,,,,,,,,,,0,0,0,,-1920,16120,1156,-282,167,-135
6.523,6.39,0.10,-2.21,0.51,-0.86,0.10,-1.02,1.50,-2.04,2.82,209.00,752.00,830.00,1450.00,1936.00,4095.00,478.00,1723.00,,,,,,,,,,,,0,0,0,,-2076,16088,1164,-150,123,-201
6.565,6.45,0.12,-6.77,11.10,-3.33,4.91,0.43,-0.63,3.01,-2.67,128.00,678.00,669.00,1405.00,2117.00,4095.00,587.00,1635.00,,,,,,,,,,,,0,0,0,,-2000,16080,1216,-58,6,-253
6.647,6.50,0.14,8.43,-6.08,4.86,-1.94,0.44,-0.64,0.32,-1.06,246.00,589.00,835.00,1221.00,2118.00,4095.00,565.00,1742.00,,,,,,,,,,,,0,0,0,,-1988,15928,1412,-73,-5,-274
6.709,6.56,0.06,1.14,-1.98,1.70,-1.89,-1.29,1.90,-3.14,4.02,225.00,704.00,882.00,1382.00,1904.00,4095.00,457.00,1743.00,,,,,,,,,,,,0,0,0,,-1976,16000,1244,-91,80,-233
6.77,6.62,0.06,-11.71,17.14,-4.61,5.73,0.03,-0.05,1.73,-1.44,101.00,701.00,655.00,1446.00,2066.00,4095.00,562.00,1664.00,,,,,,,,,,,,0,0,0,,-2028,16012,1204,-54,110,-238
6.811,6.67,0.10,5.24,-3.11,2.34,-0.65,0.91,-1.35,1.45,-2.52,222.00,617.00,815.00,1303.00,2181.00,4095.00,599.00,1732.00,,,,,,,,,,,,0,0,0,,-2072,15976,1216,-48,101,-186
6.852,6.72,0.10,5.49,-7.21,3.27,-3.41,0.07,-0.11,-1.08,0.01,276.00,682.00,931.00,1353.00,2071.00,4095.00,547.00,1789.00,,,,,,,,,,,,0,0,0,,-2124,16044,1340,-40,93,-132
6.915,6.78,0.09,-3.76,2.51,-2.92,1.10,-0.24,0.35,-0.36,0.10,193.00,758.00,816.00,1531.00,2032.00,4095.00,537.00,1734.00,,,,,,,,,,,,0,0,0,,-2116,16136,1168,-23,192,-84
6.977,6.83,0.15,0.97,0.91,-1.15,2.04,1.30,-1.92,3.59,-4.32,193.00,656.00,751.00,1392.00,2234.00,4095.00,635.00,1670.00,,,,,,,,,,,,0,0,0,,-2044,15988,1100,-8,172,-129
7.058,6.89,0.15,10.70,-11.58,6.34,-5.00,0.25,-0.37,-0.59,-0.43,318.00,624.00,959.00,1250.00,2094.00,4095.00,555.00,1775.00,,,,,,,,,,,,0,0,0,,-1992,16060,1264,2,146,-64
7.078,6.95,0.09,-1.11,0.41,-0.38,0.09,-1.02,1.50,-2.20,3.14,206.00,722.00,823.00,1423.00,1936.00,4095.00,471.00,1719.00,,,,,,,,,,,,0,0,0,,-2004,16092,1192,67,210,-12
7.118,7.00,0.10,-6.15,10.47,-3.32,5.27,0.27,-0.39,2.86,-2.28,131.00,673.00,656.00,1391.00,2096.00,4095.00,576.00,1627.00,,,,,,,,,,,,0,0,0,,-1968,16116,1196,33,126,-95
7.18,7.05,0.12,8.04,-5.57,5.41,-2.19,0.39,-0.58,0.64,-1.24,241.00,590.00,838.00,1203.00,2112.00,4095.00,567.00,1728.00,,,,,,,,,,,,0,0,0,,-1920,16028,1148,89,88,-95
7.241,7.11,0.05,0.99,-1.60,1.55,-1.18,-1.29,1.90,-3.20,4.36,221.00,701.00,851.00,1364.00,1904.00,4095.00,449.00,1731.00,,,,,,,,,,,,0,0,0,,-1864,16032,912,156,115,-137
7.303,7.16,0.05,-11.41,16.85,-4.54,6.19,0.02,-0.03,2.05,-1.55,102.00,698.00,638.00,1424.00,2064.00,4095.00,562.00,1648.00,,,,,,,,,,,,0,0,0,,-2000,16088,1112,45,139,-53
7.426,7.22,0.09,5.18,-3.50,2.09,-0.10,0.99,-1.47,2.08,-2.95,227.00,625.00,795.00,1297.00,2192.00,4095.00,606.00,1709.00,,,,,,,,,,,,0,0,0,,-1932,15996,1104,11,136,-167
7.447,7.28,0.09,5.49,-6.87,3.92,-3.58,-0.02,0.03,-0.85,0.06,271.00,676.00,928.00,1324.00,2059.00,4095.00,543.00,1770.00,,,,,,,,,,,,0,0,0,,-1964,16116,940,-12,34,-179
7.468,7.33,0.06,-3.89,2.84,-2.26,1.20,-0.36,0.52,-0.16,0.31,190.00,755.00,802.00,1488.00,2017.00,4095.00,529.00,1711.00,,,,,,,,,,,,0,0,0,,-1992,15996,1148,-118,16,-188
7.509,7.38,0.12,-1.17,3.34,-0.93,2.29,1.13,-1.66,3.71,-4.36,176.00,669.00,738.00,1371.00,2210.00,4095.00,635.00,1664.00,,,,,,,,,,,,0,0,0,,-2000,15964,1000,-171,129,-222
7.55,7.44,0.13,10.77,-10.89,6.34,-4.72,0.27,-0.39,-0.73,-0.45,306.00,611.00,945.00,1241.00,2096.00,4095.00,557.00,1786.00,,,,,,,,,,,,0,0,0,,-1964,16200,932,-245,130,-194
7.612,7.50,0.06,-0.18,-0.08,0.05,-0.25,-1.14,1.68,-2.51,3.41,208.00,705.00,832.00,1412.00,1922.00,4095.00,467.00,1728.00,,,,,,,,,,,,0,0,0,,-1968,16128,1104,-179,88,-264
7.673,7.55,0.08,-6.58,11.04,-3.52,5.19,0.39,-0.58,2.82,-2.58,128.00,674.00,661.00,1405.00,2112.00,4095.00,586.00,1643.00,,,,,,,,,,,,0,0,0,,-2108,16120,1064,-171,84,-211
7.756,7.61,0.10,8.03,-5.49,4.58,-1.82,0.51,-0.76,0.37,-1.24,240.00,589.00,834.00,1231.00,2128.00,4095.00,570.00,1747.00,,,,,,,,,,,,0,0,0,,-1936,16052,1192,-75,87,-191
7.776,7.66,0.04,1.64,-2.55,0.89,-1.15,-1.13,1.67,-3.25,3.85,230.00,701.00,860.00,1399.00,1923.00,4095.00,462.00,1758.00,,,,,,,,,,,,0,0,0,,-1944,16052,1276,-48,181,-103
7.837,7.71,0.05,-12.08,18.01,-4.38,4.91,0.17,-0.25,1.55,-1.15,97.00,695.00,682.00,1465.00,2083.00,4095.00,555.00,1663.00,,,,,,,,,,,,0,0,0,,-1964,15912,996,-11,58,-229
7.898,7.77,0.09,4.54,-2.79,1.32,0.02,1.01,-1.49,1.96,-2.82,221.00,629.00,801.00,1333.00,2194.00,4095.00,603.00,1711.00,,,,,,,,,,,,0,0,0,,-2056,16136,1092,-15,47,-145
7.96,7.83,0.09,6.38,-7.91,4.33,-4.03,0.03,-0.04,-0.78,-0.06,282.00,671.00,944.00,1319.00,2065.00,4095.00,546.00,1771.00,,,,,,,,,,,,0,0,0,,-1976,15984,908,-7,140,-107
8.02,7.88,0.06,-3.46,2.50,-2.42,1.25,-0.50,0.74,-0.04,0.31,192.00,749.00,802.00,1495.00,1999.00,4095.00,528.00,1703.00,,,,,,,,,,,,0,0,0,,-2032,16096,1012,-99,120,-124
8.142,7.93,0.11,0.34,2.41,-0.70,2.69,1.12,-1.65,3.62,-4.01,180.00,646.00,719.00,1344.00,2209.00,4095.00,624.00,1654.00,,,,,,,,,,,,0,0,0,,-2036,15972,1052,-162,187,-108
8.163,7.99,0.12,10.98,-10.97,6.69,-4.76,0.23,-0.34,-0.39,-0.46,306.00,607.00,941.00,1225.00,2091.00,4095.00,554.00,1763.00,,,,,,,,,,,,0,0,0,,-1960,16024,1020,-116,184,-120
8.183,8.05,0.07,-0.46,0.92,0.58,-0.32,-0.94,1.38,-2.10,3.15,198.00,694.00,827.00,1385.00,1946.00,4095.00,470.00,1712.00,,,,,,,,,,,,0,0,0,,-1880,16112,1028,-55,172,-47
8.225,8.10,0.07,-6.29,10.94,-3.15,5.10,0.23,-0.34,2.85,-2.30,128.00,668.00,660.00,1388.00,2091.00,4095.00,577.00,1629.00,,,,,,,,,,,,0,0,0,,-2072,16076,1116,-29,108,-155
8.286,8.16,0.09,8.50,-5.41,5.31,-1.80,0.44,-0.64,0.70,-1.36,237.00,577.00,822.00,1195.00,2118.00,4095.00,570.00,1729.00,,,,,,,,,,,,0,0,0,,-2056,15972,984,78,93,-176
8.348,8.21,0.02,2.16,-2.72,1.87,-1.54,-1.29,1.90,-2.82,3.91,230.00,690.00,863.00,1360.00,1904.00,4095.00,457.00,1726.00,,,,,,,,,,,,0,0,0,,-1992,15996,900,14,9,-206
8.408,8.27,0.02,-10.78,15.93,-3.94,5.31,-0.02,0.03,1.88,-1.26,106.00,698.00,662.00,1424.00,2059.00,4095.00,555.00,1646.00,,,,,,,,,,,,0,0,0,,-2048,16092,992,21,150,-123
8.429,8.32,0.07,3.14,-1.20,1.03,0.30,0.99,-1.47,2.23,-3.24,208.00,637.00,793.00,1338.00,2192.00,4095.00,614.00,1712.00,,,,,,,,,,,,0,0,0,,-1896,16048,928,-26,155,-135
8.49,8.38,0.07,6.05,-7.20,4.21,-4.16,0.06,-0.08,-0.82,-0.08,273.00,667.00,953.00,1330.00,2069.00,4095.00,547.00,1775.00,,,,,,,,,,,,0,0,0,,-1868,16024,916,6,90,-115
8.552,8.43,0.05,-3.38,2.19,-2.63,1.07,-0.29,0.43,-0.37,0.42,195.00,753.00,813.00,1515.00,2025.00,4095.00,528.00,1720.00,,,,,,,,,,,,0,0,0,,-2000,16036,856,-40,119,-128
8.612,8.49,0.11,-0.71,3.39,-1.40,2.57,1.20,-1.77,3.39,-3.93,174.00,656.00,733.00,1386.00,2220.00,4095.00,624.00,1666.00,,,,,,,,,,,,0,0,0,,-1936,16116,948,-16,160,-112
8.696,8.54,0.12,11.09,-11.06,5.57,-4.44,0.32,-0.47,-0.61,-0.52,307.00,606.00,944.00,1270.00,2103.00,4095.00,558.00,1781.00,,,,,,,,,,,,0,0,0,,-1844,16112,736,-28,245,19
8.715,8.60,0.07,0.05,0.11,-0.03,-0.43,-0.96,1.42,-2.36,3.32,205.00,695.00,841.00,1423.00,1943.00,4095.00,468.00,1722.00,,,,,,,,,,,,0,0,0,,-2028,16080,904,-8,203,-74
8.777,8.65,0.08,-6.53,11.02,-3.40,5.13,0.37,-0.54,3.09,-2.35,128.00,673.00,662.00,1401.00,2109.00,4095.00,576.00,1616.00,,,,,,,,,,,,0,0,0,,-1832,16124,852,2,237,7
8.861,8.71,0.10,9.25,-5.74,5.22,-1.88,0.48,-0.70,0.88,-1.51,238.00,565.00,827.00,1202.00,2123.00,4095.00,573.00,1724.00,,,,,,,,,,,,0,0,0,,-1840,16096,844,36,231,8
8.881,8.76,0.04,1.63,-1.89,1.78,-1.68,-1.13,1.67,-2.63,3.81,222.00,689.00,871.00,1370.00,1923.00,4095.00,458.00,1718.00,,,,,,,,,,,,0,0,0,,-1928,16068,668,19,143,-59
8.944,8.82,0.04,-11.96,18.16,-4.03,5.39,0.02,-0.03,1.98,-1.12,96.00,689.00,660.00,1426.00,2064.00,4095.00,550.00,1634.00,,,,,,,,,,,,0,0,0,,-1852,16036,724,-65,92,-143
9.005,8.87,0.09,3.35,-1.27,1.40,0.29,0.99,-1.47,2.12,-2.65,208.00,633.00,788.00,1319.00,2192.00,4095.00,596.00,1693.00,,,,,,,,,,,,0,0,0,,-1852,16028,796,-19,112,-178
9.047,8.93,0.08,6.13,-7.50,4.35,-3.58,0.02,-0.03,0.21,-1.06,277.00,670.00,921.00,1302.00,2064.00,4095.00,566.00,1749.00,,,,,,,,,,,,0,0,0,,-1880,16116,784,-128,131,-77
9.11,8.98,0.05,-4.24,2.76,-2.48,1.30,-0.49,0.73,-0.26,0.99,192.00,767.00,801.00,1497.00,2000.00,4095.00,511.00,1687.00,,,,,,,,,,,,0,0,0,,-1836,16072,776,-112,170,-61
9.172,9.04,0.11,-0.41,3.29,-1.09,2.80,1.16,-1.70,3.79,-3.88,174.00,650.00,720.00,1361.00,2214.00,4095.00,618.00,1638.00,,,,,,,,,,,,0,0,0,,-1956,16028,716,41,178,-100
9.234,9.09,0.12,11.64,-11.01,6.74,-4.52,0.27,-0.39,0.05,-0.71,303.00,592.00,928.00,1215.00,2096.00,4095.00,557.00,1744.00,,,,,,,,,,,,0,0,0,,-1924,16092,688,110,85,-85
9.255,9.15,0.06,0.07,0.47,0.49,-0.29,-1.08,1.59,-1.95,3.26,201.00,688.00,827.00,1389.00,1929.00,4095.00,466.00,1697.00,,,,,,,,,,,,0,0,0,,-1880,16180,592,27,130,-55
9.337,9.20,0.07,-6.22,11.06,-3.57,5.27,0.32,-0.47,3.09,-2.35,127.00,664.00,659.00,1405.00,2103.00,4095.00,576.00,1616.00,,,,,,,,,,,,0,0,0,,-1904,16112,612,20,145,-67
9.379,9.26,0.10,9.41,-5.64,5.13,-1.96,0.63,-0.93,0.50,-0.93,236.00,560.00,832.00,1209.00,2143.00,4095.00,559.00,1723.00,,,,,,,,,,,,0,0,0,,-1820,16096,776,5,124,-39
9.439,9.31,0.04,1.41,-1.57,1.73,-1.96,-1.07,1.58,-2.40,3.13,219.00,689.00,885.00,1383.00,1930.00,4095.00,473.00,1733.00,,,,,,,,,,,,0,0,0,,-1752,16016,692,14,126,-25
9.481,9.37,0.04,-10.97,16.00,-4.59,5.11,0.04,-0.06,1.50,-1.40,106.00,702.00,677.00,1469.00,2067.00,4095.00,563.00,1677.00,,,,,,,,,,,,0,0,0,,-1828,16188,616,-18,143,0
9.606,9.42,0.09,4.04,-2.87,0.35,0.67,1.01,-1.49,1.83,-2.77,224.00,643.00,787.00,1361.00,2194.00,4095.00,603.00,1718.00,,,,,,,,,,,,0,0,0,,-1760,16240,676,-12,193,35
9.627,9.48,0.09,6.59,-8.11,3.56,-3.59,0.14,-0.20,-0.76,0.00,284.00,669.00,935.00,1344.00,2079.00,4095.00,544.00,1767.00,,,,,,,,,,,,0,0,0,,-1696,15952,720,-199,94,-117
9.647,9.53,0.07,-6.62,6.81,-2.66,1.04,-0.36,0.54,-0.03,0.45,161.00,756.00,815.00,1518.00,2016.00,4095.00,524.00,1696.00,,,,,,,,,,,,0,0,0,,-1728,16140,764,-220,208,-68
9.708,9.59,0.12,-1.63,4.68,-1.10,2.75,1.05,-1.54,4.38,-4.64,165.00,657.00,722.00,1363.00,2199.00,4095.00,637.00,1633.00,,,,,,,,,,,,0,0,0,,-1700,16276,624,-151,311,-44
9.771,9.64,0.12,11.10,-10.58,6.36,-4.17,0.22,-0.33,0.15,-0.84,299.00,598.00,917.00,1222.00,2090.00,4095.00,560.00,1743.00,,,,,,,,,,,,0,0,0,,-1596,16244,628,-105,129,-164
9.832,9.70,0.06,0.37,-0.09,0.77,-0.50,-1.20,1.77,-2.96,4.53,206.00,690.00,832.00,1381.00,1915.00,4095.00,443.00,1707.00,,,,,,,,,,,,0,0,0,,-1720,16132,728,-211,14,-118
9.874,9.75,0.07,-7.53,12.55,-3.22,5.06,0.27,-0.39,3.24,-2.43,120.00,672.00,662.00,1393.00,2096.00,4095.00,577.00,1610.00,,,,,,,,,,,,0,0,0,,-1724,16180,832,-169,115,-284
9.998,9.81,0.09,9.56,-6.00,5.16,-1.64,0.54,-0.79,1.04,-1.50,240.00,562.00,817.00,1197.00,2131.00,4095.00,571.00,1713.00,,,,,,,,,,,,0,0,0,,-1772,16148,796,-151,139,-155
10.019,9.86,0.03,1.24,-1.43,1.85,-1.52,-1.07,1.58,-2.48,3.52,218.00,691.00,862.00,1360.00,1930.00,4095.00,464.00,1721.00,,,,,,,,,,,,0,0,0,,-1828,16024,584,-39,98,-193
10.039,9.91,0.03,-10.77,14.91,-4.61,5.09,0.03,-0.04,1.63,-1.28,112.00,717.00,678.00,1471.00,2065.00,4095.00,558.00,1663.00,,,,,,,,,,,,0,0,0,,-1872,16204,708,-36,141,-63
10.081,9.97,0.08,3.30,-1.60,0.76,0.82,1.02,-1.51,2.08,-2.80,212.00,640.00,775.00,1334.00,2196.00,4095.00,601.00,1702.00,,,,,,,,,,,,0,0,0,,-1832,16048,764,14,167,-112
10.142,10.03,0.08,6.65,-8.26,4.25,-3.86,0.03,-0.04,-0.62,-0.22,286.00,670.00,937.00,1317.00,2065.00,4095.00,549.00,1767.00,,,,,,,,,,,,0,0,0,,-1720,16188,592,-66,168,-21
10.204,10.08,0.06,-3.77,2.32,-2.63,1.12,-0.39,0.57,-0.63,1.22,195.00,762.00,811.00,1513.00,2013.00,4095.00,508.00,1701.00,,,,,,,,,,,,0,0,0,,-1656,16184,492,-57,176,-104
10.265,10.14,0.11,-1.43,4.39,-1.28,2.53,1.18,-1.74,4.11,-4.61,167.00,657.00,733.00,1381.00,2217.00,4095.00,639.00,1649.00,,,,,,,,,,,,0,0,0,,-1748,16256,508,-71,119,-109
10.328,10.19,0.13,10.82,-10.79,5.67,-4.12,0.39,-0.58,2.23,-3.86,304.00,608.00,926.00,1254.00,2112.00,4095.00,635.00,1741.00,,,,,,,,,,,,0,0,0,,-1596,16092,720,-81,47,-212
10.367,10.25,0.07,-0.03,0.22,0.50,-0.74,-1.01,1.49,-2.07,2.87,204.00,695.00,847.00,1405.00,1937.00,4095.00,477.00,1723.00,,,,,,,,,,,,0,0,0,,-1744,16264,728,-153,52,-274
10.429,10.30,0.08,-7.61,12.88,-3.68,5.22,0.39,-0.58,3.17,-2.47,118.00,668.00,662.00,1413.00,2112.00,4095.00,579.00,1616.00,,,,,,,,,,,,0,0,0,,-1704,16124,680,-221,113,-114
10.47,10.36,0.10,9.48,-5.74,5.15,-1.82,0.46,-0.68,0.68,-1.25,237.00,560.00,825.00,1203.00,2121.00,4095.00,567.00,1726.00,,,,,,,,,,,,0,0,0,,-1768,16180,604,-150,218,-179
10.532,10.41,0.04,1.97,-2.34,2.10,-1.75,-1.20,1.77,-2.41,3.61,226.00,688.00,869.00,1355.00,1915.00,4095.00,461.00,1712.00,,,,,,,,,,,,0,0,0,,-1672,16200,588,-95,153,-73
10.592,10.47,0.03,-10.41,14.96,-3.82,4.69,-0.04,0.05,1.49,-0.99,111.00,706.00,683.00,1441.00,2057.00,4095.00,551.00,1660.00,,,,,,,,,,,,0,0,0,,-1740,16276,576,-132,21,-181
10.695,10.52,0.08,3.07,-1.26,1.31,0.42,1.00,-1.48,2.50,-3.00,209.00,640.00,784.00,1319.00,2193.00,4095.00,603.00,1683.00,,,,,,,,,,,,0,0,0,,-1712,16136,664,-244,25,-173
10.716,10.58,0.08,7.17,-8.63,4.28,-3.75,0.02,-0.03,-0.63,-0.01,289.00,663.00,931.00,1312.00,2064.00,4095.00,543.00,1758.00,,,,,,,,,,,,0,0,0,,-1772,16088,988,-149,166,-170
10.757,10.63,0.05,-3.51,2.32,-2.29,1.12,-0.48,0.71,-1.35,1.35,194.00,754.00,806.00,1493.00,2001.00,4095.00,511.00,1744.00,,,,,,,,,,,,0,0,0,,-1764,16240,692,-118,180,-124
10.86,10.69,0.11,-1.87,5.10,-1.55,3.50,1.16,-1.72,4.08,-4.07,162.00,656.00,699.00,1360.00,2215.00,4095.00,621.00,1627.00,,,,,,,,,,,,0,0,0,,-1744,16096,576,-58,108,-194
10.88,10.74,0.11,10.44,-10.11,6.43,-4.32,0.17,-0.25,0.38,-0.62,295.00,606.00,923.00,1223.00,2083.00,4095.00,551.00,1717.00,,,,,,,,,,,,0,0,0,,-1816,16244,536,7,5,-222
10.921,10.80,0.05,-0.27,0.22,0.51,-0.41,-1.12,1.65,-2.28,3.57,205.00,702.00,832.00,1392.00,1924.00,4095.00,461.00,1705.00,,,,,,,,,,,,0,0,0,,-1784,16068,768,-14,74,-164
10.982,10.85,0.06,-7.52,12.70,-3.64,5.35,0.28,-0.42,3.49,-2.71,119.00,669.00,657.00,1406.00,2098.00,4095.00,583.00,1606.00,,,,,,,,,,,,0,0,0,,-1704,16084,576,-55,119,-191
11.062,10.91,0.08,9.48,-5.74,5.38,-2.11,0.51,-0.75,0.62,-1.10,237.00,560.00,835.00,1202.00,2127.00,4095.00,563.00,1723.00,,,,,,,,,,,,0,0,0,,-1680,16140,828,-87,95,-195
11.083,10.96,0.02,1.55,-1.62,1.44,-1.27,-1.07,1.58,-2.66,3.66,219.00,686.00,857.00,1373.00,1930.00,4095.00,462.00,1727.00,,,,,,,,,,,,0,0,0,,-1760,16204,672,-44,96,-220
11.145,11.02,0.03,-10.69,15.22,-4.03,4.47,0.08,-0.12,1.57,-1.32,110.00,709.00,694.00,1462.00,2072.00,4095.00,560.00,1669.00,,,,,,,,,,,,0,0,0,,-1748,16068,628,-117,63,-174
11.185,11.07,0.08,3.35,-1.79,0.48,0.70,1.13,-1.66,2.20,-3.11,214.00,642.00,784.00,1353.00,2210.00,4095.00,610.00,1708.00,,,,,,,,,,,,0,0,0,,-1880,16112,532,-141,103,-228
11.266,11.13,0.09,6.09,-7.48,3.92,-3.79,0.26,-0.38,-0.84,-0.07,277.00,671.00,939.00,1332.00,2095.00,4095.00,547.00,1776.00,,,,,,,,,,,,0,0,0,,-1708,16316,584,-173,138,-305
11.307,11.18,0.06,-4.06,2.70,-2.80,1.13,-0.44,0.66,-0.51,1.07,192.00,763.00,813.00,1523.00,2006.00,4095.00,511.00,1700.00,,,,,,,,,,,,0,0,0,,-1804,16204,548,-208,64,-228
11.369,11.24,0.12,-0.43,3.09,-1.79,3.55,1.09,-1.61,4.24,-4.22,176.00,654.00,700.00,1371.00,2205.00,4095.00,624.00,1623.00,,,,,,,,,,,,0,0,0,,-1908,16148,620,-197,90,-248
11.43,11.29,0.12,10.45,-10.54,6.75,-4.55,0.24,-0.36,0.29,-0.52,302.00,613.00,929.00,1215.00,2093.00,4095.00,549.00,1719.00,,,,,,,,,,,,0,0,0,,-1788,16096,592,-138,120,-149
11.493,11.35,0.06,0.15,0.08,0.93,-0.51,-1.14,1.68,-2.38,3.84,205.00,693.00,830.00,1373.00,1922.00,4095.00,455.00,1699.00,,,,,,,,,,,,0,0,0,,-1780,16184,588,-192,64,-160
11.513,11.40,0.07,-7.16,12.73,-2.82,5.10,0.26,-0.38,3.50,-2.52,118.00,659.00,656.00,1370.00,2095.00,4095.00,577.00,1597.00,,,,,,,,,,,,0,0,0,,-1760,16164,652,-132,87,-184
11.577,11.46,0.09,9.27,-5.44,6.03,-2.07,0.52,-0.77,1.19,-1.49,234.00,560.00,823.00,1170.00,2129.00,4095.00,569.00,1702.00,,,,,,,,,,,,0,0,0,,-1880,16048,840,-90,61,-170
11.637,11.51,0.03,1.67,-1.74,2.52,-2.06,-1.18,1.74,-2.49,3.84,220.00,685.00,877.00,1344.00,1917.00,4095.00,456.00,1707.00,,,,,,,,,,,,0,0,0,,-1932,16132,728,-69,138,-61
11.699,11.57,0.03,-10.44,15.64,-3.52,4.48,-0.04,0.05,1.82,-1.24,107.00,694.00,687.00,1432.00,2057.00,4095.00,555.00,1649.00,,,,,,,,,,,,0,0,0,,-1860,16100,624,-96,158,-124
11.739,11.62,0.07,3.63,-1.80,1.49,-0.18,1.00,-1.48,2.19,-2.59,213.00,635.00,807.00,1331.00,2193.00,4095.00,593.00,1685.00,,,,,,,,,,,,0,0,0,,-1820,16148,532,-76,26,-174
11.801,11.68,0.07,6.83,-7.73,4.33,-3.81,0.10,-0.14,-0.52,0.02,277.00,656.00,933.00,1311.00,2074.00,4095.00,541.00,1749.00,,,,,,,,,,,,0,0,0,,-1768,16160,660,-212,73,-163
11.861,11.73,0.05,-4.02,2.98,-2.66,1.27,-0.49,0.73,-0.53,1.22,189.00,756.00,805.00,1509.00,2000.00,4095.00,507.00,1694.00,,,,,,,,,,,,0,0,0,,-1888,16168,652,-181,154,-239
11.965,11.79,0.10,-2.28,5.70,-1.64,3.11,1.18,-1.75,4.11,-4.11,158.00,656.00,715.00,1379.00,2218.00,4095.00,622.00,1627.00,,,,,,,,,,,,0,0,0,,-1744,16196,744,-146,101,-148
11.986,11.84,0.12,10.93,-10.64,6.27,-4.33,0.37,-0.54,0.37,-0.95,301.00,603.00,926.00,1231.00,2109.00,4095.00,561.00,1733.00,,,,,,,,,,,,0,0,0,,-1872,16252,688,-30,-92,-341
12.006,11.90,0.06,-0.66,1.27,0.47,-0.53,-1.01,1.49,-2.04,2.97,195.00,693.00,838.00,1399.00,1937.00,4095.00,474.00,1716.00,,,,,,,,,,,,0,0,0,,-1840,16080,764,-100,-234,-254
12.068,11.95,0.07,-7.29,13.09,-3.42,4.97,0.35,-0.52,2.86,-2.18,116.00,656.00,668.00,1408.00,2107.00,4095.00,573.00,1623.00,,,,,,,,,,,,0,0,0,,-1968,16052,652,-82,-75,-309
12.171,12.01,0.10,9.68,-5.57,4.60,-1.68,0.63,-0.94,0.80,-1.58,234.00,553.00,827.00,1225.00,2144.00,4095.00,576.00,1733.00,,,,,,,,,,,,0,0,0,,-2044,16056,740,-163,0,-266
12.192,12.06,0.05,2.28,-2.52,1.25,-1.55,-1.01,1.49,-2.38,3.32,227.00,683.00,873.00,1394.00,1937.00,4095.00,468.00,1723.00,,,,,,,,,,,,0,0,0,,-1952,16028,748,-312,94,-335
12.232,12.12,0.05,-10.41,14.96,-4.33,4.65,0.02,-0.03,1.73,-1.37,111.00,706.00,691.00,1472.00,2064.00,4095.00,560.00,1661.00,,,,,,,,,,,,0,0,0,,-1908,16072,836,-454,239,-214
12.314,12.17,0.09,3.68,-1.65,1.17,0.47,1.02,-1.50,2.54,-3.10,211.00,631.00,784.00,1325.00,2195.00,4095.00,606.00,1685.00,,,,,,,,,,,,0,0,0,,-1884,16164,732,-178,340,-68
12.354,12.23,0.09,6.46,-7.13,4.25,-3.68,0.03,-0.04,-0.50,-0.09,270.00,655.00,928.00,1311.00,2065.00,4095.00,544.00,1753.00,,,,,,,,,,,,0,0,0,,-1776,16112,600,-94,-58,-199
12.416,12.28,0.06,-4.37,3.79,-1.75,0.57,-0.53,0.79,-0.80,1.72,182.00,750.00,822.00,1483.00,1995.00,4095.00,496.00,1690.00,,,,,,,,,,,,0,0,0,,-1836,16124,836,-160,-153,-251
12.479,12.34,0.11,-1.52,4.76,-1.38,3.42,1.13,-1.66,4.29,-4.26,164.00,653.00,700.00,1354.00,2210.00,4095.00,625.00,1622.00,,,,,,,,,,,,0,0,0,,-2000,16092,752,-124,131,-323
12.562,12.39,0.12,10.82,-10.17,6.62,-4.38,0.23,-0.34,0.68,-0.96,294.00,598.00,923.00,1216.00,2091.00,4095.00,558.00,1712.00,,,,,,,,,,,,0,0,0,,-1908,15984,756,-122,227,-75
12.582,12.45,0.06,-0.42,0.54,0.83,-0.36,-1.11,1.64,-1.96,3.42,202.00,700.00,825.00,1373.00,1925.00,4095.00,462.00,1690.00,,,,,,,,,,,,0,0,0,,-1872,16124,696,-127,125,-162
12.643,12.50,0.07,-7.92,13.63,-3.29,5.26,0.26,-0.38,2.83,-1.58,114.00,663.00,656.00,1390.00,2095.00,4095.00,555.00,1599.00,,,,,,,,,,,,0,0,0,,-2032,16096,688,-88,13,-163
12.664,12.56,0.09,9.52,-5.60,5.44,-1.96,0.61,-0.90,1.06,-1.44,235.00,557.00,827.00,1194.00,2141.00,4095.00,569.00,1709.00,,,,,,,,,,,,0,0,0,,-1860,16180,788,-120,-66,-112
12.725,12.61,0.04,2.04,-2.11,1.92,-1.54,-1.10,1.62,-2.87,4.05,223.00,682.00,862.00,1357.00,1927.00,4095.00,454.00,1723.00,,,,,,,,,,,,0,0,0,,-1864,16108,760,-137,80,-51
12.787,12.66,0.03,-10.18,14.88,-4.26,4.70,0.02,-0.03,1.47,-1.12,111.00,701.00,688.00,1466.00,2064.00,4095.00,555.00,1667.00,,,,,,,,,,,,0,0,0,,-1996,16032,884,-206,23,-172
12.849,12.72,0.08,3.25,-1.23,0.50,0.64,1.01,-1.49,2.50,-3.09,208.00,635.00,786.00,1354.00,2194.00,4095.00,606.00,1687.00,,,,,,,,,,,,0,0,0,,-2088,16128,1032,-347,170,17
12.911,12.78,0.09,6.71,-7.56,3.88,-3.76,0.20,-0.29,-0.80,0.01,275.00,656.00,938.00,1333.00,2087.00,4095.00,544.00,1769.00,,,,,,,,,,,,0,0,0,,-1844,16136,760,-174,291,78
12.975,12.83,0.06,-4.41,2.82,-2.78,1.12,-0.49,0.73,-0.55,1.12,192.00,771.00,813.00,1522.00,2000.00,4095.00,510.00,1700.00,,,,,,,,,,,,0,0,0,,-1776,16204,752,-98,167,88
13.016,12.89,0.12,-2.03,5.50,-1.78,3.03,1.24,-1.82,3.86,-4.09,159.00,653.00,720.00,1390.00,2225.00,4095.00,624.00,1642.00,,,,,,,,,,,,0,0,0,,-1772,16140,912,-77,167,40
13.057,12.94,0.13,10.34,-10.26,5.62,-4.16,0.41,-0.60,0.58,-0.89,298.00,611.00,929.00,1258.00,2114.00,4095.00,557.00,1716.00,,,,,,,,,,,,0,0,0,,-1680,16164,844,-113,83,-258
13.118,13.00,0.08,-0.10,0.34,0.66,-0.70,-1.02,1.50,-2.54,4.10,203.00,695.00,843.00,1395.00,1936.00,4095.00,450.00,1698.00,,,,,,,,,,,,0,0,0,,-1756,16156,748,-153,-74,-145
13.18,13.05,0.08,-6.36,11.11,-3.34,5.27,0.27,-0.39,4.60,-2.67,127.00,667.00,656.00,1392.00,2096.00,4095.00,570.00,1535.00,,,,,,,,,,,,0,0,0,,-1780,16052,724,-78,7,-206
13.281,13.11,0.10,9.02,-4.87,5.62,-1.89,0.42,-0.62,1.01,-1.33,228.00,557.00,821.00,1183.00,2116.00,4095.00,566.00,1707.00,,,,,,,,,,,,0,0,0,,-1904,15996,916,-232,-35,-290
13.302,13.16,0.04,2.08,-1.79,2.24,-1.65,-1.05,1.54,-2.75,4.17,219.00,675.00,862.00,1344.00,1933.00,4095.00,450.00,1709.00,,,,,,,,,,,,0,0,0,,-1984,16184,928,-296,111,-145
13.403,13.22,0.04,-9.56,14.50,-3.78,4.81,0.02,-0.03,1.71,-1.07,112.00,691.00,678.00,1434.00,2064.00,4095.00,551.00,1649.00,,,,,,,,,,,,0,0,0,,-1784,16112,792,-65,144,-83
13.424,13.27,0.09,2.96,-1.05,1.00,0.69,0.99,-1.47,2.65,-3.11,207.00,639.00,777.00,1326.00,2192.00,4095.00,605.00,1678.00,,,,,,,,,,,,0,0,0,,-1784,16076,852,-154,65,-62
13.445,13.33,0.09,6.71,-7.56,4.45,-3.75,0.03,-0.05,-0.76,0.38,275.00,656.00,928.00,1303.00,2066.00,4095.00,533.00,1749.00,,,,,,,,,,,,0,0,0,,-1680,16128,824,-181,5,25
13.508,13.38,0.05,-3.93,3.05,-2.16,0.89,-0.60,0.88,-0.88,1.75,188.00,752.00,814.00,1494.00,1987.00,4095.00,496.00,1694.00,,,,,,,,,,,,0,0,0,,-1900,15876,812,-27,237,-136
13.569,13.44,0.11,-1.06,4.83,-1.46,3.36,1.11,-1.64,3.92,-4.11,162.00,640.00,703.00,1360.00,2208.00,4095.00,624.00,1639.00,,,,,,,,,,,,0,0,0,,-1804,16112,732,-50,178,-95
13.652,13.49,0.11,11.66,-10.33,6.23,-4.23,0.27,-0.39,0.22,-0.67,292.00,581.00,922.00,1230.00,2096.00,4095.00,554.00,1730.00,,,,,,,,,,,,0,0,0,,-1800,16160,864,-105,261,-36
13.673,13.55,0.05,-0.19,1.11,0.51,-0.41,-1.15,1.69,-2.11,3.27,195.00,683.00,832.00,1392.00,1921.00,4095.00,467.00,1707.00,,,,,,,,,,,,0,0,0,,-1692,16216,660,-121,194,26
13.734,13.60,0.07,-6.60,12.70,-3.57,5.18,0.34,-0.51,3.23,-2.50,117.00,645.00,662.00,1408.00,2106.00,4095.00,579.00,1613.00,,,,,,,,,,,,0,0,0,,-1844,16224,804,-76,15,-115
13.775,13.66,0.09,10.09,-5.63,5.20,-1.94,0.62,-0.91,1.37,-1.77,233.00,545.00,830.00,1205.00,2142.00,4095.00,576.00,1703.00,,,,,,,,,,,,0,0,0,,-1896,16200,792,-155,186,-182
13.858,13.71,0.04,1.49,-1.26,1.82,-1.93,-1.05,1.54,-2.53,4.22,215.00,681.00,882.00,1377.00,1933.00,4095.00,447.00,1692.00,,,,,,,,,,,,0,0,0,,-1796,16088,828,-193,222,-136
13.877,13.77,0.04,-9.97,13.84,-4.20,4.74,0.11,-0.17,1.59,-0.48,117.00,715.00,686.00,1461.00,2076.00,4095.00,535.00,1631.00,,,,,,,,,,,,0,0,0,,-1640,16020,588,-136,20,-129
13.941,13.82,0.09,3.14,-1.73,0.68,0.68,1.05,-1.54,3.46,-2.92,214.00,646.00,782.00,1343.00,2199.00,4095.00,590.00,1617.00,,,,,,,,,,,,0,0,0,,-1800,16088,880,-166,158,14
14.002,13.88,0.09,5.67,-7.80,4.66,-4.04,0.03,-0.05,-0.14,0.98,284.00,688.00,939.00,1302.00,2066.00,4095.00,510.00,1679.00,,,,,,,,,,,,0,0,0,,-1672,16092,728,-121,332,57
14.043,13.93,0.05,-5.12,0.63,-2.08,0.93,-0.66,0.98,0.64,1.92,219.00,841.00,811.00,1488.00,1979.00,4095.00,478.00,1588.00,,,,,,,,,,,,0,0,0,,-1716,16240,980,306,260,1
14.104,13.99,0.10,-2.17,-2.74,-1.61,3.76,1.07,-1.57,5.77,-3.25,249.00,819.00,690.00,1354.00,2202.00,4095.00,576.00,1489.00,,,,,,,,,,,,0,0,0,,-1552,16124,748,596,4,129
14.166,14.04,0.11,5.35,-13.69,6.79,-4.08,0.20,-0.29,1.13,0.52,393.00,816.00,905.00,1198.00,2087.00,4095.00,511.00,1617.00,,,,,,,,,,,,0,0,0,,-1624,16288,636,-112,-354,-131
14.227,14.10,0.05,-1.51,-5.96,0.79,-0.15,-1.10,1.62,-2.73,4.12,293.00,870.00,816.00,1367.00,1927.00,4095.00,451.00,1710.00,,,,,,,,,,,,0,0,0,,-1628,16024,1016,-524,-110,-40
14.288,14.15,0.06,-5.81,5.86,-2.53,4.75,0.31,-0.45,2.57,-2.37,167.00,751.00,665.00,1367.00,2101.00,4095.00,582.00,1650.00,,,,,,,,,,,,0,0,0,,-1524,16236,964,-427,403,-9
14.37,14.21,0.08,7.30,-7.69,5.75,-1.81,0.43,-0.63,0.90,-1.96,274.00,643.00,816.00,1175.00,2117.00,4095.00,587.00,1744.00,,,,,,,,,,,,0,0,0,,-1576,16224,748,-311,409,-43
14.39,14.26,0.02,0.73,-4.86,2.12,-1.41,-1.14,1.68,-2.60,3.44,265.00,773.00,853.00,1342.00,1922.00,4095.00,467.00,1733.00,,,,,,,,,,,,0,0,0,,-1548,16120,740,-199,137,-238
14.452,14.32,0.01,-8.82,6.99,-4.32,5.05,-0.02,0.03,1.56,-1.18,166.00,821.00,676.00,1456.00,2059.00,4095.00,556.00,1664.00,,,,,,,,,,,,0,0,0,,-1612,16200,972,-310,-93,-272
14.514,14.37,0.07,1.94,-5.61,1.19,0.46,1.06,-1.56,2.83,-3.35,270.00,752.00,784.00,1324.00,2201.00,4095.00,611.00,1677.00,,,,,,,,,,,,0,0,0,,-1644,16108,1108,-532,11,-326
14.555,14.43,0.06,4.24,-10.37,4.27,-3.71,0.00,-0.00,-0.55,0.17,335.00,780.00,929.00,1311.00,2062.00,4095.00,537.00,1744.00,,,,,,,,,,,,0,0,0,,-1608,16156,900,-368,279,-233
14.679,14.48,0.03,-4.46,-1.81,-2.42,1.25,-0.61,0.89,-0.26,1.02,247.00,875.00,802.00,1495.00,1986.00,4095.00,510.00,1685.00,,,,,,,,,,,,0,0,0,,-1752,16016,892,-253,366,-214
14.74,14.54,0.09,-2.45,-0.69,-1.54,3.21,1.23,-1.81,3.95,-3.97,224.00,784.00,710.00,1370.00,2224.00,4095.00,619.00,1631.00,,,,,,,,,,,,0,0,0,,-1688,16232,852,-182,181,-233
14.761,14.59,0.10,7.98,-12.65,6.54,-4.36,0.27,-0.39,0.95,-0.64,354.00,715.00,923.00,1219.00,2096.00,4095.00,546.00,1680.00,,,,,,,,,,,,0,0,0,,-1772,15980,1056,-150,-66,-258
14.801,14.65,0.04,-1.63,-4.07,0.80,-0.37,-1.18,1.74,-1.55,3.89,265.00,831.00,826.00,1375.00,1917.00,4095.00,447.00,1642.00,,,,,,,,,,,,0,0,0,,-1764,16072,900,-455,-69,-211
14.821,14.70,0.04,-5.51,3.67,-3.01,5.16,0.15,-0.22,4.21,-1.84,187.00,787.00,656.00,1378.00,2081.00,4095.00,549.00,1525.00,,,,,,,,,,,,0,0,0,,-1756,16048,1204,-859,178,-166
14.883,14.76,0.06,6.82,-9.45,6.28,-1.84,0.34,-0.51,1.69,-0.52,304.00,687.00,809.00,1151.00,2106.00,4095.00,535.00,1626.00,,,,,,,,,,,,0,0,0,,-1668,16268,1236,-762,502,-188
14.924,14.81,-0.01,0.54,-6.27,2.31,-1.50,-1.24,1.83,-1.94,4.65,287.00,809.00,854.00,1335.00,1910.00,4095.00,432.00,1634.00,,,,,,,,,,,,0,0,0,,-1608,16008,980,-295,574,-51
14.986,14.87,-0.02,-8.03,5.96,-3.40,4.93,-0.16,0.23,2.43,0.08,173.00,818.00,669.00,1408.00,2042.00,4095.00,511.00,1554.00,,,,,,,,,,,,0,0,0,,-1640,16048,1040,-135,247,-159
15.048,14.92,0.03,1.93,-5.95,1.34,0.55,0.89,-1.31,3.74,-2.57,275.00,759.00,778.00,1313.00,2178.00,4095.00,576.00,1584.00,,,,,,,,,,,,0,0,0,,-1508,16012,1276,-381,-3,-192
15.13,14.98,0.02,3.55,-10.57,4.51,-3.67,-0.12,0.17,0.02,1.44,343.00,806.00,923.00,1297.00,2047.00,4095.00,496.00,1648.00,,,,,,,,,,,,0,0,0,,-1636,16116,1364,-462,96,-314
15.151,15.03,-0.01,-3.78,-3.41,-2.18,1.40,-0.62,0.92,0.30,2.62,266.00,889.00,792.00,1475.00,1984.00,4095.00,463.00,1579.00,,,,,,,,,,,,0,0,0,,-1700,16072,1380,-271,197,-318
15.213,15.09,0.04,-1.38,-2.32,-1.23,3.44,1.03,-1.52,5.37,-3.21,240.00,785.00,697.00,1345.00,2197.00,4095.00,579.00,1511.00,,,,,,,,,,,,0,0,0,,-1780,16084,1264,-154,135,-195
15.273,15.14,0.05,7.35,-12.95,6.11,-4.11,0.21,-0.31,1.23,0.09,364.00,739.00,918.00,1232.00,2089.00,4095.00,522.00,1629.00,,,,,,,,,,,,0,0,0,,-1884,15920,1408,-92,120,-121
15.335,15.20,-0.01,-1.31,-4.59,0.61,-0.20,-1.13,1.67,-1.34,4.93,271.00,832.00,821.00,1379.00,1923.00,4095.00,421.00,1584.00,,,,,,,,,,,,0,0,0,,-1840,15996,1416,-77,357,87
15.378,15.25,0.00,-5.94,3.24,-3.03,5.11,0.26,-0.38,4.57,-1.38,193.00,810.00,658.00,1381.00,2095.00,4095.00,532.00,1485.00,,,,,,,,,,,,0,0,0,,-1620,16096,1260,84,466,156
15.48,15.31,0.03,5.98,-9.22,5.67,-2.01,0.48,-0.70,1.80,0.29,305.00,706.00,826.00,1185.00,2123.00,4095.00,511.00,1584.00,,,,,,,,,,,,0,0,0,,-1580,16064,836,119,225,-86
15.501,15.36,-0.03,0.32,-6.95,1.78,-1.30,-1.16,1.72,-1.57,5.27,299.00,831.00,853.00,1356.00,1919.00,4095.00,415.00,1584.00,,,,,,,,,,,,0,0,0,,-1500,16152,1260,63,-2,-34
15.541,15.41,-0.04,-8.09,5.15,-3.74,5.46,-0.16,0.24,3.39,0.12,181.00,838.00,654.00,1407.00,2041.00,4095.00,501.00,1494.00,,,,,,,,,,,,0,0,0,,-1572,16064,1208,-103,122,-153
15.603,15.47,0.00,1.24,-5.51,1.83,0.74,0.80,-1.18,4.23,-2.11,272.00,771.00,763.00,1281.00,2166.00,4095.00,557.00,1535.00,,,,,,,,,,,,0,0,0,,-1580,16164,1140,-391,145,-227
15.664,15.53,-0.00,4.46,-10.88,4.76,-3.84,-0.13,0.19,0.11,1.79,343.00,784.00,927.00,1290.00,2045.00,4095.00,486.00,1627.00,,,,,,,,,,,,0,0,0,,-1564,16072,1280,-501,209,-158
15.727,15.58,-0.04,-3.73,-2.21,-1.85,1.04,-0.72,1.06,1.07,1.85,249.00,859.00,803.00,1470.00,1972.00,4095.00,476.00,1564.00,,,,,,,,,,,,0,0,0,,-1632,16104,1180,-246,175,-310
15.748,15.64,0.01,-1.39,-1.04,-1.03,3.62,0.99,-1.47,5.28,-3.25,224.00,759.00,688.00,1328.00,2192.00,4095.00,581.00,1518.00,,,,,,,,,,,,0,0,0,,-1632,16044,1164,-123,-119,-301
15.85,15.69,0.02,8.44,-13.01,7.36,-4.69,0.18,-0.27,0.54,1.27,358.00,709.00,926.00,1191.00,2085.00,4095.00,496.00,1622.00,,,,,,,,,,,,0,0,0,,-1712,16116,1296,-138,-121,-380
15.871,15.75,-0.04,-1.27,-3.19,1.40,-0.60,-1.16,1.72,-0.87,4.38,251.00,800.00,827.00,1351.00,1919.00,4095.00,430.00,1578.00,,,,,,,,,,,,0,0,0,,-1848,16100,1292,-102,74,-343
15.913,15.80,-0.02,-5.67,4.54,-3.02,5.42,0.23,-0.34,4.34,-1.20,179.00,774.00,647.00,1369.00,2091.00,4095.00,529.00,1491.00,,,,,,,,,,,,0,0,0,,-1740,16064,1296,-77,158,-175
15.976,15.86,-0.01,6.51,-8.28,6.16,-2.20,0.28,-0.41,1.49,0.40,287.00,674.00,827.00,1168.00,2097.00,4095.00,511.00,1599.00,,,,,,,,,,,,0,0,0,,-1736,16040,1184,-23,99,-177
16.037,15.91,-0.07,0.39,-5.50,2.19,-1.61,-1.17,1.73,-2.17,5.47,276.00,797.00,861.00,1345.00,1918.00,4095.00,415.00,1613.00,,,,,,,,,,,,0,0,0,,-1828,16060,1512,20,-8,-142
16.121,15.97,-0.07,-8.84,8.50,-4.00,5.55,-0.04,0.05,3.01,0.07,153.00,789.00,654.00,1418.00,2057.00,4095.00,506.00,1519.00,,,,,,,,,,,,0,0,0,,-1704,16008,1328,158,59,-149
16.142,16.02,-0.02,2.41,-5.91,1.36,0.40,0.95,-1.40,3.50,-2.07,272.00,744.00,784.00,1317.00,2186.00,4095.00,563.00,1578.00,,,,,,,,,,,,0,0,0,,-1692,16212,1000,52,120,-353
16.204,16.07,-0.02,3.75,-9.36,4.66,-3.86,-0.12,0.17,0.37,1.59,320.00,774.00,930.00,1296.00,2047.00,4095.00,489.00,1619.00,,,,,,,,,,,,0,0,0,,-1756,16020,1224,-29,29,-202
16.265,16.13,-0.05,-3.79,-3.06,-1.72,1.11,-0.61,0.89,1.66,2.08,261.00,881.00,798.00,1460.00,1986.00,4095.00,465.00,1518.00,,,,,,,,,,,,0,0,0,,-1836,16028,1208,-112,177,-190
16.305,16.18,0.00,-1.36,-3.37,-1.60,4.83,0.95,-1.40,6.60,-3.21,254.00,807.00,651.00,1315.00,2186.00,4095.00,566.00,1439.00,,,,,,,,,,,,0,0,0,,-1760,16136,1088,-153,178,-176
16.368,16.24,0.00,6.71,-13.96,7.48,-5.09,0.02,-0.03,1.51,1.90,389.00,779.00,944.00,1198.00,2064.00,4095.00,471.00,1535.00,,,,,,,,,,,,0,0,0,,-1688,16084,1124,-267,47,-193
16.43,16.30,-0.06,-1.55,-6.32,1.18,-0.26,-1.22,1.80,-0.45,6.33,299.00,880.00,815.00,1350.00,1912.00,4095.00,384.00,1473.00,,,,,,,,,,,,0,0,0,,-1816,16080,1436,-144,137,-250
16.472,16.35,-0.05,-5.51,0.59,-3.47,5.49,0.14,-0.20,5.66,-0.46,221.00,855.00,650.00,1391.00,2079.00,4095.00,496.00,1387.00,,,,,,,,,,,,0,0,0,,-1812,16060,1184,-121,110,-155
16.596,16.41,-0.03,4.75,-10.54,6.24,-2.23,0.28,-0.41,2.80,1.23,335.00,768.00,827.00,1165.00,2097.00,4095.00,477.00,1485.00,,,,,,,,,,,,0,0,0,,-1868,16180,1436,-82,165,-150
16.616,16.46,-0.11,-0.78,-8.18,2.37,-1.37,-1.47,2.17,-1.26,7.53,326.00,897.00,847.00,1327.00,1883.00,4095.00,365.00,1472.00,,,,,,,,,,,,0,0,0,,-1736,16060,1284,24,157,-179
16.638,16.51,-0.10,-8.38,3.13,-4.03,6.14,-0.06,0.09,4.92,0.48,203.00,895.00,634.00,1398.00,2054.00,4095.00,478.00,1393.00,,,,,,,,,,,,0,0,0,,-1660,16108,1224,115,11,-162
16.699,16.57,-0.05,2.36,-9.01,3.01,-0.32,0.91,-1.35,4.80,-1.25,322.00,810.00,791.00,1258.00,2181.00,4095.00,526.00,1466.00,,,,,,,,,,,,0,0,0,,-1836,16060,1280,113,57,-134
16.74,16.62,-0.06,3.10,-12.41,4.61,-3.79,-0.12,0.17,1.26,2.26,382.00,862.00,927.00,1296.00,2047.00,4095.00,464.00,1535.00,,,,,,,,,,,,0,0,0,,-1780,16124,1120,89,167,-184
16.803,16.68,-0.07,-4.70,-4.38,-1.91,1.13,-0.44,0.64,2.25,2.49,285.00,946.00,800.00,1470.00,2007.00,4095.00,450.00,1467.00,,,,,,,,,,,,0,0,0,,-1740,16104,956,90,100,-173
16.864,16.73,-0.01,-0.73,-5.71,0.07,1.78,1.19,-1.76,6.71,-3.12,285.00,838.00,745.00,1336.00,2219.00,4095.00,562.00,1429.00,,,,,,,,,,,,0,0,0,,-1804,15972,900,117,85,-160
16.947,16.79,-0.00,6.32,-14.62,7.91,-6.32,0.20,-0.29,1.58,1.80,406.00,805.00,1001.00,1217.00,2087.00,4095.00,473.00,1535.00,,,,,,,,,,,,0,0,0,,-1836,16216,820,-21,-31,-206
16.968,16.84,-0.06,-3.19,-5.65,-0.35,0.01,-1.14,1.68,-0.09,5.68,297.00,922.00,826.00,1424.00,1922.00,4095.00,395.00,1477.00,,,,,,,,,,,,0,0,0,,-1844,15996,1096,-42,-24,-3
17.031,16.90,-0.05,-4.52,-0.56,-2.55,4.98,0.20,-0.29,5.90,-0.54,231.00,848.00,657.00,1360.00,2087.00,4095.00,496.00,1377.00,,,,,,,,,,,,0,0,0,,-1796,16156,916,-32,165,56
17.072,16.95,-0.03,4.51,-10.24,6.72,-2.48,0.27,-0.39,2.91,0.88,331.00,769.00,831.00,1151.00,2096.00,4095.00,485.00,1492.00,,,,,,,,,,,,0,0,0,,-1704,16028,920,-86,269,215
17.135,17.01,-0.10,-1.03,-7.04,2.15,-1.20,-1.37,2.02,-1.32,7.16,308.00,879.00,843.00,1333.00,1895.00,4095.00,373.00,1491.00,,,,,,,,,,,,0,0,0,,-1800,16020,1000,-206,169,156
17.196,17.07,-0.09,-8.07,4.54,-3.53,5.82,-0.06,0.09,5.02,0.37,187.00,851.00,639.00,1382.00,2054.00,4095.00,480.00,1392.00,,,,,,,,,,,,0,0,0,,-1592,16260,1172,-124,229,148
17.258,17.12,-0.06,3.97,-8.91,4.55,-0.84,0.63,-0.93,4.38,-1.11,311.00,758.00,791.00,1200.00,2143.00,4095.00,526.00,1485.00,,,,,,,,,,,,0,0,0,,-1596,16148,1128,-75,337,139
17.319,17.17,-0.07,3.58,-11.58,5.06,-4.14,-0.24,0.35,0.84,2.40,362.00,827.00,937.00,1285.00,2032.00,4095.00,464.00,1555.00,,,,,,,,,,,,0,0,0,,-1620,16232,1092,-40,328,90
17.36,17.23,-0.09,-3.74,-3.22,-1.62,1.24,-0.48,0.70,2.12,1.93,263.00,883.00,791.00,1449.00,2002.00,4095.00,465.00,1497.00,,,,,,,,,,,,0,0,0,,-1424,16128,988,102,225,57
17.441,17.28,-0.03,0.27,-4.57,0.27,1.76,1.11,-1.64,6.07,-2.87,263.00,781.00,743.00,1326.00,2208.00,4095.00,561.00,1456.00,,,,,,,,,,,,0,0,0,,-1512,16192,1044,192,156,-23
17.462,17.34,-0.02,7.48,-13.79,6.94,-5.00,0.14,-0.20,0.84,1.54,380.00,752.00,949.00,1221.00,2079.00,4095.00,486.00,1591.00,,,,,,,,,,,,0,0,0,,-1460,16200,852,124,116,-120
17.502,17.39,-0.07,-3.76,-3.70,-0.89,0.42,-0.98,1.44,0.20,4.19,270.00,895.00,816.00,1439.00,1941.00,4095.00,426.00,1520.00,,,,,,,,,,,,0,0,0,,-1520,16052,928,1,24,-183
17.565,17.45,-0.05,-4.75,2.27,-2.58,5.02,0.26,-0.38,4.85,-0.73,199.00,793.00,656.00,1360.00,2095.00,4095.00,511.00,1443.00,,,,,,,,,,,,0,0,0,,-1568,16156,992,41,76,-155
17.626,17.50,-0.03,6.34,-9.70,6.54,-2.72,0.40,-0.59,1.78,0.70,311.00,705.00,845.00,1167.00,2113.00,4095.00,500.00,1568.00,,,,,,,,,,,,0,0,0,,-1660,16072,840,122,140,-222
17.709,17.56,-0.09,-0.03,-5.75,1.84,-1.36,-1.27,1.88,-1.80,5.98,282.00,816.00,855.00,1355.00,1906.00,4095.00,401.00,1568.00,,,,,,,,,,,,0,0,0,,-1608,16292,728,98,123,-197
17.729,17.61,-0.08,-8.78,8.12,-3.55,5.71,0.03,-0.05,5.02,-0.72,156.00,795.00,643.00,1387.00,2066.00,4095.00,509.00,1433.00,,,,,,,,,,,,0,0,0,,-1656,15976,916,3,85,-78
17.792,17.67,-0.04,5.73,-7.89,5.19,-1.14,0.77,-1.14,3.11,-0.93,285.00,688.00,795.00,1180.00,2162.00,4095.00,533.00,1554.00,,,,,,,,,,,,0,0,0,,-1536,16104,912,-23,167,-56
17.854,17.73,-0.05,4.21,-10.41,4.73,-3.83,-0.28,0.41,0.14,2.20,336.00,782.00,927.00,1291.00,2027.00,4095.00,475.00,1607.00,,,,,,,,,,,,0,0,0,,-1604,16176,884,71,250,13
17.895,17.78,-0.07,-3.65,-1.40,-1.80,1.34,-0.47,0.69,2.18,0.90,238.00,838.00,789.00,1455.00,2003.00,4095.00,491.00,1535.00,,,,,,,,,,,,0,0,0,,-1508,16136,788,55,153,-19
17.955,17.83,-0.02,1.24,-3.88,0.83,1.69,1.02,-1.50,5.06,-2.98,249.00,738.00,738.00,1299.00,2195.00,4095.00,575.00,1520.00,,,,,,,,,,,,0,0,0,,-1560,16224,672,107,188,-72
18.059,17.89,-0.02,8.62,-13.33,7.43,-5.42,0.02,-0.03,0.19,1.42,363.00,710.00,962.00,1211.00,2064.00,4095.00,495.00,1638.00,,,,,,,,,,,,0,0,0,,-1512,16140,788,490,106,-45
18.079,17.94,-0.07,-3.36,-1.66,-0.75,0.37,-0.98,1.44,-0.44,4.02,240.00,834.00,816.00,1433.00,1941.00,4095.00,435.00,1566.00,,,,,,,,,,,,0,0,0,,-1440,16112,624,655,-133,-18
18.121,18.00,-0.05,-2.79,2.47,-1.85,4.77,0.23,-0.34,4.57,-1.31,190.00,730.00,656.00,1330.00,2091.00,4095.00,530.00,1482.00,,,,,,,,,,,,0,0,0,,-1384,16164,748,459,-98,-102
18.182,18.05,-0.03,6.95,-7.57,6.70,-2.65,0.35,-0.52,1.88,-0.34,274.00,650.00,839.00,1157.00,2107.00,4095.00,528.00,1606.00,,,,,,,,,,,,0,0,0,,-1364,16156,572,338,85,-184
18.244,18.11,-0.10,0.30,-4.08,2.15,-1.20,-1.33,1.97,-2.06,5.61,256.00,770.00,843.00,1333.00,1899.00,4095.00,411.00,1600.00,,,,,,,,,,,,0,0,0,,-1492,16248,284,258,133,-149
18.307,18.16,-0.09,-9.06,10.62,-3.58,5.96,0.10,-0.15,4.49,-1.43,137.00,752.00,635.00,1380.00,2075.00,4095.00,534.00,1491.00,,,,,,,,,,,,0,0,0,,-1368,16204,168,39,51,-232
18.348,18.22,-0.05,7.49,-7.62,5.28,-1.41,0.66,-0.97,2.43,-0.80,272.00,637.00,805.00,1184.00,2147.00,4095.00,536.00,1591.00,,,,,,,,,,,,0,0,0,,-1396,16296,392,-115,45,-248
18.41,18.27,-0.06,3.01,-7.29,3.52,-2.83,-0.22,0.32,1.39,-0.55,290.00,754.00,898.00,1319.00,2034.00,4095.00,539.00,1647.00,,,,,,,,,,,,0,0,0,,-1436,16136,368,-165,131,-247
18.472,18.33,-0.07,-3.42,-1.24,-2.35,1.65,-0.29,0.43,1.49,0.91,235.00,827.00,784.00,1475.00,2025.00,4095.00,497.00,1577.00,,,,,,,,,,,,0,0,0,,-1504,16124,344,-283,88,-358
18.534,18.39,-0.01,0.58,-3.06,1.10,1.01,1.07,-1.57,4.32,-2.83,241.00,741.00,762.00,1309.00,2202.00,4095.00,578.00,1559.00,,,,,,,,,,,,0,0,0,,-1484,16188,464,-293,92,-211
18.554,18.44,-0.01,7.38,-12.02,7.16,-5.23,0.02,-0.03,0.83,0.08,346.00,720.00,957.00,1218.00,2064.00,4095.00,526.00,1655.00,,,,,,,,,,,,0,0,0,,-1516,16096,424,-257,128,-166
18.615,18.50,-0.06,-3.83,-1.50,-1.12,0.61,-1.05,1.54,-0.36,3.37,240.00,846.00,811.00,1445.00,1933.00,4095.00,450.00,1589.00,,,,,,,,,,,,0,0,0,,-1500,16244,484,-134,127,-195
18.698,18.55,-0.05,-3.03,2.16,-1.03,3.62,0.15,-0.22,4.65,-1.58,194.00,743.00,688.00,1328.00,2081.00,4095.00,537.00,1488.00,,,,,,,,,,,,0,0,0,,-1424,16200,416,-109,116,-123
18.719,18.60,-0.04,7.19,-8.44,6.82,-2.47,0.24,-0.36,1.49,0.00,286.00,659.00,829.00,1146.00,2093.00,4095.00,522.00,1616.00,,,,,,,,,,,,0,0,0,,-1524,16204,272,-15,22,-339
18.802,18.66,-0.10,-0.12,-3.64,2.11,-1.02,-1.29,1.90,-1.30,4.57,252.00,774.00,835.00,1328.00,1904.00,4095.00,429.00,1597.00,,,,,,,,,,,,0,0,0,,-1348,16204,328,-101,-93,-285
18.843,18.71,-0.10,-8.51,9.51,-3.08,5.67,-0.07,0.10,4.87,-1.83,144.00,758.00,639.00,1363.00,2053.00,4095.00,542.00,1485.00,,,,,,,,,,,,0,0,0,,-1496,16308,388,-198,-93,-579
18.883,18.77,-0.07,7.53,-7.97,6.08,-1.63,0.47,-0.69,2.43,-1.00,277.00,642.00,803.00,1154.00,2122.00,4095.00,542.00,1600.00,,,,,,,,,,,,0,0,0,,-1480,16180,472,-199,-133,-586
18.944,18.82,-0.10,4.44,-9.65,3.81,-2.58,-0.75,1.10,-1.01,2.98,321.00,759.00,881.00,1295.00,1969.00,4095.00,465.00,1647.00,,,,,,,,,,,,0,0,0,,-1712,16164,468,-271,-128,-524
19.006,18.88,-0.11,-3.82,-0.39,-1.83,1.78,-0.31,0.45,1.70,0.33,226.00,821.00,771.00,1440.00,2023.00,4095.00,511.00,1589.00,,,,,,,,,,,,0,0,0,,-1656,16192,376,-306,-62,-536
19.048,18.93,-0.06,1.89,-4.17,1.08,0.88,0.96,-1.41,3.66,-2.83,250.00,725.00,768.00,1315.00,2187.00,4095.00,585.00,1600.00,,,,,,,,,,,,0,0,0,,-1800,16236,428,-340,-228,-668
19.173,18.99,-0.05,6.89,-11.96,6.00,-4.72,0.13,-0.19,-0.02,0.30,348.00,733.00,951.00,1258.00,2078.00,4095.00,528.00,1702.00,,,,,,,,,,,,0,0,0,,-1760,16224,540,-423,-340,-696
19.193,19.05,-0.09,-4.13,-1.32,-1.72,0.65,-0.89,1.31,-0.49,2.93,239.00,852.00,818.00,1478.00,1952.00,4095.00,462.00,1616.00,,,,,,,,,,,,0,0,0,,-1836,15972,628,-423,-197,-590
19.214,19.10,-0.05,-2.62,2.12,-1.49,3.80,0.82,-1.21,4.60,-3.33,193.00,732.00,687.00,1346.00,2169.00,4095.00,591.00,1563.00,,,,,,,,,,,,0,0,0,,-1916,16280,700,-451,-35,-638
19.276,19.16,-0.03,6.71,-7.95,6.05,-2.52,0.25,-0.37,1.03,0.02,281.00,663.00,843.00,1183.00,2094.00,4095.00,526.00,1645.00,,,,,,,,,,,,0,0,0,,-2000,15984,636,-555,-61,-450
19.339,19.21,-0.10,-0.57,-2.75,1.71,-0.84,-1.32,1.94,-1.57,4.40,242.00,769.00,833.00,1343.00,1901.00,4095.00,435.00,1621.00,,,,,,,,,,,,0,0,0,,-2044,16100,748,-555,-138,-398
19.401,19.26,-0.09,-6.82,7.47,-2.66,5.24,0.07,-0.10,4.28,-1.56,156.00,749.00,649.00,1356.00,2070.00,4095.00,540.00,1509.00,,,,,,,,,,,,0,0,0,,-2072,16196,652,-552,-216,-404
19.463,19.32,-0.06,7.74,-7.63,6.76,-1.95,0.44,-0.66,2.10,-1.03,271.00,631.00,807.00,1133.00,2119.00,4095.00,546.00,1622.00,,,,,,,,,,,,0,0,0,,-2000,16108,852,-692,-499,-531
19.525,19.37,-0.11,1.66,-5.45,3.91,-2.61,-0.98,1.44,-1.91,4.14,269.00,757.00,881.00,1291.00,1941.00,4095.00,444.00,1655.00,,,,,,,,,,,,0,0,0,,-2072,16080,1084,-778,-371,-609
19.546,19.43,-0.11,-4.14,0.81,-1.96,2.31,-0.25,0.37,1.70,0.33,213.00,805.00,751.00,1427.00,2030.00,4095.00,511.00,1589.00,,,,,,,,,,,,0,0,0,,-2128,15984,1436,-717,-63,-571
19.607,19.48,-0.06,1.87,-4.61,1.41,0.93,0.99,-1.46,3.50,-2.58,256.00,734.00,761.00,1296.00,2191.00,4095.00,579.00,1600.00,,,,,,,,,,,,0,0,0,,-2216,16120,1012,-552,-65,-562
19.668,19.54,-0.06,6.73,-11.32,5.83,-4.40,0.02,-0.03,-0.30,1.00,337.00,725.00,937.00,1255.00,2064.00,4095.00,511.00,1689.00,,,,,,,,,,,,0,0,0,,-2116,16140,992,-422,-537,-871
19.73,19.59,-0.09,-4.48,-0.57,-1.58,0.72,-0.81,1.20,-0.27,2.26,231.00,847.00,813.00,1467.00,1961.00,4095.00,477.00,1631.00,,,,,,,,,,,,0,0,0,,-2024,16152,1064,-418,-1250,-1378
19.812,19.65,-0.04,-2.21,2.08,-0.95,3.56,1.00,-1.48,4.21,-3.27,192.00,721.00,689.00,1326.00,2193.00,4095.00,593.00,1584.00,,,,,,,,,,,,0,0,0,,-2308,16032,1228,-475,-1514,-1578
19.832,19.70,-0.03,8.27,-10.71,6.78,-4.09,0.21,-0.31,0.75,-0.06,317.00,671.00,906.00,1199.00,2089.00,4095.00,531.00,1667.00,,,,,,,,,,,,0,0,0,,-2564,15856,1620,-670,-1216,-1641
19.894,19.76,-0.09,-0.70,-2.55,1.33,-0.77,-1.26,1.87,-2.04,4.02,240.00,769.00,836.00,1361.00,1907.00,4095.00,448.00,1669.00,,,,,,,,,,,,0,0,0,,-2792,15700,1584,-686,-732,-1398
19.935,19.82,-0.07,-5.60,6.82,-2.36,4.61,0.23,-0.34,2.93,-1.74,158.00,726.00,668.00,1363.00,2091.00,4095.00,559.00,1600.00,,,,,,,,,,,,0,0,0,,-2980,15860,1624,-447,-503,-1088
20.016,19.87,-0.05,8.46,-7.18,6.65,-2.48,0.39,-0.58,0.69,-1.19,261.00,606.00,832.00,1154.00,2112.00,4095.00,565.00,1722.00,,,,,,,,,,,,0,0,0,,-3092,15796,1640,-295,-459,-853
20.037,19.92,-0.10,1.56,-3.84,2.40,-1.64,-1.07,1.58,-3.19,4.12,247.00,728.00,859.00,1335.00,1930.00,4095.00,455.00,1742.00,,,,,,,,,,,,0,0,0,,-3152,15824,1584,-205,-476,-772
20.099,19.98,-0.10,-9.05,10.75,-3.12,4.16,-0.18,0.26,0.62,-0.30,136.00,749.00,694.00,1422.00,2039.00,4095.00,539.00,1686.00,,,,,,,,,,,,0,0,0,,-3200,15680,1584,-157,-397,-594
20.161,20.03,-0.05,2.86,-2.56,1.94,0.32,0.90,-1.32,1.60,-1.85,225.00,668.00,779.00,1290.00,2179.00,4095.00,576.00,1691.00,,,,,,,,,,,,0,0,0,,-3108,15620,1728,-71,-298,-368
20.263,20.09,-0.06,6.18,-8.61,5.83,-4.57,-0.13,0.19,-1.17,0.31,294.00,689.00,946.00,1261.00,2045.00,4095.00,539.00,1781.00,,,,,,,,,,,,0,0,0,,-3088,15860,1616,-96,-146,-174
20.303,20.14,-0.09,-3.95,1.18,-1.88,1.16,-0.75,1.11,-0.81,1.57,208.00,791.00,798.00,1467.00,1968.00,4095.00,500.00,1697.00,,,,,,,,,,,,0,0,0,,-3192,15632,1800,-327,52,-74
20.324,20.20,-0.03,-2.04,3.63,-0.08,2.85,1.09,-1.61,4.20,-4.61,176.00,687.00,705.00,1306.00,2205.00,4095.00,638.00,1643.00,,,,,,,,,,,,0,0,0,,-3108,15920,1664,-383,295,-41
20.386,20.25,-0.03,9.87,-11.24,7.79,-5.01,0.13,-0.19,-0.45,-0.04,317.00,639.00,935.00,1181.00,2078.00,4095.00,542.00,1747.00,,,,,,,,,,,,0,0,0,,-3076,15668,1720,-339,238,-88
20.446,20.31,-0.08,-0.38,-0.88,2.61,-1.84,-1.19,1.75,-2.35,3.47,218.00,726.00,865.00,1331.00,1916.00,4095.00,464.00,1714.00,,,,,,,,,,,,0,0,0,,-3108,15804,1864,-264,256,56
20.488,20.36,-0.07,-6.16,9.11,-2.29,5.18,0.24,-0.36,2.77,-2.12,141.00,698.00,647.00,1339.00,2093.00,4095.00,572.00,1626.00,,,,,,,,,,,,0,0,0,,-3036,15804,1836,-151,420,108
20.53,20.42,-0.04,8.70,-7.05,6.75,-2.40,0.39,-0.58,0.54,-0.87,258.00,598.00,827.00,1147.00,2112.00,4095.00,557.00,1718.00,,,,,,,,,,,,0,0,0,,-2956,15724,1564,-164,281,128
20.613,20.48,-0.11,1.45,-3.58,2.83,-2.02,-1.32,1.94,-2.98,4.13,244.00,726.00,870.00,1326.00,1901.00,4095.00,453.00,1727.00,,,,,,,,,,,,0,0,0,,-2836,15936,1596,-144,200,30
20.655,20.53,-0.11,-8.49,11.39,-2.86,4.78,-0.06,0.09,2.80,-1.54,130.00,720.00,668.00,1384.00,2054.00,4095.00,554.00,1599.00,,,,,,,,,,,,0,0,0,,-2844,15808,1680,-64,180,-203
20.716,20.58,-0.06,3.36,-3.68,2.10,0.06,0.76,-1.11,0.71,-0.93,237.00,675.00,788.00,1291.00,2160.00,4095.00,557.00,1709.00,,,,,,,,,,,,0,0,0,,-2848,15900,1608,-314,98,-402
20.778,20.64,-0.06,5.85,-9.24,5.38,-4.40,-0.05,0.08,-1.22,0.29,306.00,710.00,945.00,1278.00,2055.00,4095.00,540.00,1785.00,,,,,,,,,,,,0,0,0,,-3032,15836,1768,-369,70,-405
20.818,20.69,-0.08,-3.96,1.01,-1.53,0.50,-0.38,0.56,-0.21,0.37,210.00,795.00,822.00,1473.00,2014.00,4095.00,528.00,1712.00,,,,,,,,,,,,0,0,0,,-2896,15628,1704,-402,14,-351
20.88,20.75,-0.01,-6.50,9.62,-0.54,2.59,1.24,-1.83,3.39,-3.93,138.00,698.00,721.00,1339.00,2226.00,4095.00,624.00,1666.00,,,,,,,,,,,,0,0,0,,-3204,16092,1808,-379,2,-479
20.981,20.80,-0.00,10.11,-12.40,8.89,-7.05,0.22,-0.33,-0.79,-0.43,336.00,653.00,1023.00,1194.00,2090.00,4095.00,557.00,1789.00,,,,,,,,,,,,0,0,0,,-3100,15640,2000,-287,-17,-310
21.001,20.86,-0.06,-0.69,-1.28,1.35,-0.69,-1.25,1.84,-2.33,3.39,224.00,743.00,832.00,1357.00,1909.00,4095.00,466.00,1717.00,,,,,,,,,,,,0,0,0,,-3176,15600,2088,-167,78,-275
21.063,20.91,-0.05,-6.33,8.78,-2.30,5.50,0.17,-0.26,2.47,-2.08,144.00,709.00,636.00,1328.00,2084.00,4095.00,574.00,1644.00,,,,,,,,,,,,0,0,0,,-3132,15676,2156,109,254,-158
21.085,20.97,-0.03,7.68,-6.34,7.03,-2.80,0.35,-0.52,0.22,-0.70,253.00,611.00,841.00,1147.00,2107.00,4095.00,555.00,1732.00,,,,,,,,,,,,0,0,0,,-3112,15724,1836,288,412,-94
21.145,21.02,-0.10,1.05,-3.59,2.68,-1.77,-1.50,2.22,-3.02,4.22,246.00,738.00,861.00,1325.00,1879.00,4095.00,451.00,1725.00,,,,,,,,,,,,0,0,0,,-3024,15912,1800,228,454,-94
21.207,21.08,-0.10,-11.18,15.05,-2.63,5.09,0.00,-0.00,1.96,-1.29,112.00,726.00,654.00,1360.00,2062.00,4095.00,555.00,1642.00,,,,,,,,,,,,0,0,0,,-3024,15796,1700,137,285,-128
21.269,21.14,-0.05,5.21,-4.54,3.77,-0.60,0.81,-1.19,1.69,-2.48,240.00,642.00,792.00,1230.00,2167.00,4095.00,595.00,1714.00,,,,,,,,,,,,0,0,0,,-3112,15780,1628,125,150,-250
21.351,21.19,-0.06,5.25,-8.61,5.17,-4.09,-0.16,0.24,-1.15,0.51,299.00,715.00,933.00,1278.00,2041.00,4095.00,533.00,1770.00,,,,,,,,,,,,0,0,0,,-3068,15636,1672,56,44,-247
21.392,21.25,-0.08,-3.33,0.37,-1.38,1.09,-0.44,0.66,-0.16,0.49,215.00,789.00,794.00,1441.00,2006.00,4095.00,524.00,1703.00,,,,,,,,,,,,0,0,0,,-3140,15792,1816,44,185,-228
21.432,21.30,-0.02,1.19,-1.24,0.89,1.33,1.15,-1.69,3.14,-3.88,216.00,689.00,752.00,1309.00,2213.00,4095.00,625.00,1680.00,,,,,,,,,,,,0,0,0,,-3172,15708,1924,288,560,99
21.473,21.35,-0.01,9.71,-12.10,7.69,-5.37,0.12,-0.18,-1.27,0.10,333.00,658.00,955.00,1197.00,2077.00,4095.00,546.00,1798.00,,,,,,,,,,,,0,0,0,,-3140,15720,1628,417,620,185
21.535,21.41,-0.07,-2.74,-0.59,-0.53,-0.10,-1.11,1.64,-2.13,2.85,224.00,791.00,834.00,1439.00,1925.00,4095.00,478.00,1728.00,,,,,,,,,,,,0,0,0,,-3072,15848,1412,406,411,122
21.617,21.46,-0.05,-5.66,7.80,-2.53,5.00,0.24,-0.36,3.33,-3.37,150.00,709.00,656.00,1358.00,2093.00,4095.00,606.00,1645.00,,,,,,,,,,,,0,0,0,,-3020,15864,1592,653,233,50
21.637,21.52,-0.02,8.06,-7.74,5.76,-2.31,0.48,-0.70,0.20,-0.96,271.00,625.00,838.00,1190.00,2123.00,4095.00,563.00,1745.00,,,,,,,,,,,,0,0,0,,-2980,15980,1244,770,233,-14
21.761,21.57,-0.09,1.11,-3.54,2.15,-1.68,-1.30,1.92,-2.76,3.65,245.00,735.00,865.00,1350.00,1903.00,4095.00,463.00,1734.00,,,,,,,,,,,,0,0,0,,-2920,15788,1232,716,223,25
21.782,21.63,-0.08,-11.09,15.02,-3.62,5.77,0.04,-0.06,2.36,-1.72,112.00,724.00,642.00,1389.00,2067.00,4095.00,564.00,1635.00,,,,,,,,,,,,0,0,0,,-2908,15928,984,660,255,-24
21.823,21.68,-0.04,7.13,-6.01,5.76,-1.95,0.64,-0.95,1.22,-1.95,251.00,619.00,822.00,1179.00,2145.00,4095.00,583.00,1721.00,,,,,,,,,,,,0,0,0,,-2888,16000,896,732,236,-138
21.884,21.74,-0.06,5.14,-8.45,5.00,-3.90,-0.26,0.38,-1.18,0.66,297.00,715.00,926.00,1280.00,2029.00,4095.00,529.00,1765.00,,,,,,,,,,,,0,0,0,,-2944,16020,724,598,-93,-204
21.944,21.80,-0.07,-3.21,0.67,-1.48,1.19,-0.40,0.60,-0.00,0.30,211.00,779.00,791.00,1443.00,2011.00,4095.00,528.00,1701.00,,,,,,,,,,,,0,0,0,,-2888,15988,844,346,-137,-184
21.964,21.85,-0.01,1.89,-1.90,1.29,1.19,1.12,-1.65,3.04,-3.75,221.00,682.00,752.00,1293.00,2209.00,4095.00,622.00,1681.00,,,,,,,,,,,,0,0,0,,-2992,15936,696,318,99,-407
22.027,21.91,-0.01,9.75,-12.44,7.58,-5.43,0.04,-0.06,-1.30,0.25,339.00,663.00,960.00,1204.00,2067.00,4095.00,542.00,1793.00,,,,,,,,,,,,0,0,0,,-2896,16000,524,165,41,-519
22.089,21.96,-0.06,-3.93,0.23,-0.67,0.10,-1.02,1.50,-1.76,2.46,219.00,811.00,827.00,1439.00,1936.00,4095.00,485.00,1721.00,,,,,,,,,,,,0,0,0,,-3024,15884,560,111,-218,-596
22.15,22.01,-0.04,-4.76,6.89,-1.56,4.04,0.27,-0.39,2.36,-1.95,155.00,701.00,679.00,1341.00,2096.00,4095.00,571.00,1645.00,,,,,,,,,,,,0,0,0,,-3080,15868,796,14,-305,-589
22.211,22.07,-0.03,8.17,-7.84,6.45,-2.78,0.32,-0.47,1.12,-1.27,272.00,624.00,849.00,1173.00,2103.00,4095.00,563.00,1697.00,,,,,,,,,,,,0,0,0,,-3212,15960,656,-78,-141,-478
22.252,22.12,-0.09,0.76,-3.12,1.88,-1.11,-1.23,1.82,-3.11,3.97,241.00,737.00,843.00,1344.00,1911.00,4095.00,458.00,1743.00,,,,,,,,,,,,0,0,0,,-3308,15756,748,-209,12,-334
22.313,22.18,-0.08,-5.22,6.57,-3.77,5.90,0.08,-0.12,2.67,-2.15,159.00,720.00,639.00,1392.00,2072.00,4095.00,574.00,1634.00,,,,,,,,,,,,0,0,0,,-3432,15816,768,-280,193,-175
22.374,22.23,-0.04,10.53,-7.23,5.27,-1.59,0.60,-0.88,0.99,-1.99,252.00,559.00,813.00,1190.00,2139.00,4095.00,587.00,1739.00,,,,,,,,,,,,0,0,0,,-3328,15792,780,-314,287,-19
22.455,22.29,-0.05,3.35,-6.02,3.79,-3.21,-0.21,0.31,-1.45,0.78,269.00,719.00,912.00,1318.00,2035.00,4095.00,528.00,1778.00,,,,,,,,,,,,0,0,0,,-3324,15912,624,-433,258,-170
22.476,22.34,-0.06,-3.27,0.52,-2.12,1.36,-0.24,0.36,0.54,-0.44,213.00,784.00,793.00,1473.00,2031.00,4095.00,544.00,1698.00,,,,,,,,,,,,0,0,0,,-3192,15740,904,-453,263,115
22.517,22.40,-0.00,1.30,-1.78,0.89,1.16,1.11,-1.64,2.71,-3.28,222.00,696.00,759.00,1315.00,2208.00,4095.00,610.00,1682.00,,,,,,,,,,,,0,0,0,,-3068,16040,812,-516,368,136
22.578,22.45,-0.00,8.30,-11.68,6.75,-5.15,0.03,-0.04,-0.96,0.10,334.00,688.00,960.00,1235.00,2065.00,4095.00,543.00,1776.00,,,,,,,,,,,,0,0,0,,-3016,15956,648,-476,292,51
22.641,22.51,-0.05,-4.20,-0.10,-1.02,0.31,-1.03,1.52,-1.47,2.28,224.00,827.00,823.00,1451.00,1935.00,4095.00,487.00,1709.00,,,,,,,,,,,,0,0,0,,-2964,15868,948,-498,120,-62
22.702,22.57,-0.03,-3.17,4.43,-1.21,3.95,0.44,-0.64,3.02,-2.39,172.00,703.00,678.00,1326.00,2118.00,4095.00,578.00,1622.00,,,,,,,,,,,,0,0,0,,-3100,16048,936,-450,145,-230
22.743,22.62,-0.02,7.45,-7.26,6.47,-2.66,0.24,-0.36,0.09,-0.49,267.00,632.00,843.00,1168.00,2093.00,4095.00,550.00,1731.00,,,,,,,,,,,,0,0,0,,-3008,15748,964,-361,118,-265
22.825,22.67,-0.08,0.10,-2.35,1.92,-1.24,-1.23,1.82,-2.25,3.96,234.00,741.00,848.00,1346.00,1911.00,4095.00,451.00,1685.00,,,,,,,,,,,,0,0,0,,-3128,15768,1080,-293,32,-217
22.846,22.73,-0.07,-7.59,10.12,-3.28,5.97,0.14,-0.21,2.82,-1.84,137.00,719.00,631.00,1363.00,2080.00,4095.00,563.00,1611.00,,,,,,,,,,,,0,0,0,,-3144,15868,1092,-209,83,-270
22.909,22.78,-0.03,8.59,-6.94,5.78,-1.66,0.57,-0.84,1.15,-1.67,257.00,599.00,809.00,1169.00,2135.00,4095.00,575.00,1713.00,,,,,,,,,,,,0,0,0,,-3152,15788,992,-122,82,-210
22.97,22.84,-0.06,2.41,-4.79,3.27,-2.58,-0.63,0.93,-2.10,2.42,256.00,722.00,890.00,1323.00,1983.00,4095.00,489.00,1746.00,,,,,,,,,,,,0,0,0,,-3108,15860,956,-124,38,-187
23.011,22.89,-0.07,-4.66,2.43,-1.78,1.48,-0.22,0.32,0.28,-0.15,197.00,787.00,783.00,1449.00,2034.00,4095.00,538.00,1702.00,,,,,,,,,,,,0,0,0,,-3240,15764,1008,-117,74,-160
23.072,22.95,-0.01,2.46,-3.07,0.80,0.94,1.10,-1.62,2.44,-3.04,233.00,688.00,769.00,1327.00,2206.00,4095.00,605.00,1689.00,,,,,,,,,,,,0,0,0,,-3140,15788,956,-56,105,8
23.132,23.00,-0.00,6.76,-10.37,5.64,-4.47,0.16,-0.23,-1.41,0.19,320.00,706.00,944.00,1267.00,2082.00,4095.00,545.00,1804.00,,,,,,,,,,,,0,0,0,,-3184,15832,1060,14,244,-20
23.193,23.06,-0.04,-3.91,-0.03,-1.94,0.73,-0.76,1.12,-1.79,2.39,222.00,816.00,818.00,1488.00,1967.00,4095.00,487.00,1726.00,,,,,,,,,,,,0,0,0,,-3064,15932,1060,-21,279,4
23.255,23.11,0.01,-3.07,4.08,-1.43,3.46,0.95,-1.40,3.47,-3.63,175.00,707.00,699.00,1355.00,2186.00,4095.00,613.00,1647.00,,,,,,,,,,,,0,0,0,,-3060,15656,948,-36,177,-126
23.297,23.17,0.02,6.98,-7.03,6.00,-2.35,0.23,-0.34,0.29,-0.66,266.00,640.00,836.00,1180.00,2091.00,4095.00,553.00,1725.00,,,,,,,,,,,,0,0,0,,-3100,15904,1148,-34,151,-57
23.359,23.23,-0.05,-0.29,-1.82,1.46,-0.88,-1.28,1.89,-2.46,3.71,229.00,742.00,839.00,1358.00,1905.00,4095.00,459.00,1711.00,,,,,,,,,,,,0,0,0,,-3016,15860,1120,38,183,-54
23.421,23.28,-0.04,-6.35,8.91,-2.41,5.07,0.18,-0.27,3.08,-1.93,143.00,707.00,652.00,1349.00,2085.00,4095.00,563.00,1598.00,,,,,,,,,,,,0,0,0,,-3116,15848,1048,-21,143,-107
23.461,23.33,-0.01,8.77,-7.14,5.95,-1.31,0.38,-0.57,1.01,-1.13,259.00,598.00,791.00,1150.00,2111.00,4095.00,560.00,1698.00,,,,,,,,,,,,0,0,0,,-3064,15884,744,-66,91,-188
23.502,23.39,-0.06,1.91,-4.62,3.58,-2.33,-1.03,1.52,-2.00,2.96,256.00,733.00,873.00,1298.00,1935.00,4095.00,474.00,1714.00,,,,,,,,,,,,0,0,0,,-2972,15844,772,-67,74,-239
23.563,23.44,-0.07,-6.81,5.98,-2.99,3.44,-0.19,0.28,0.94,-0.54,169.00,779.00,720.00,1442.00,2038.00,4095.00,543.00,1676.00,,,,,,,,,,,,0,0,0,,-3152,15888,1116,-127,87,-154
23.646,23.50,-0.02,2.43,-3.45,1.51,0.61,0.88,-1.30,2.18,-2.77,238.00,696.00,773.00,1302.00,2177.00,4095.00,599.00,1694.00,,,,,,,,,,,,0,0,0,,-2956,15976,1036,-164,149,-214
23.667,23.55,-0.02,6.32,-9.40,5.45,-4.13,0.02,-0.03,-1.07,0.44,306.00,700.00,930.00,1265.00,2064.00,4095.00,534.00,1767.00,,,,,,,,,,,,0,0,0,,-3068,15936,828,-127,131,-184
23.728,23.61,-0.06,-4.43,0.74,-1.87,0.75,-0.75,1.11,-0.74,1.59,215.00,816.00,816.00,1483.00,1968.00,4095.00,499.00,1692.00,,,,,,,,,,,,0,0,0,,-3144,15772,980,-119,72,-133
23.79,23.66,-0.01,-2.66,3.63,-1.14,3.36,0.99,-1.47,3.53,-3.65,178.00,704.00,699.00,1343.00,2192.00,4095.00,613.00,1644.00,,,,,,,,,,,,0,0,0,,-3112,15908,940,-135,104,-142
23.851,23.72,0.01,9.62,-11.16,5.90,-3.32,0.29,-0.43,0.14,-0.67,317.00,644.00,883.00,1216.00,2099.00,4095.00,555.00,1736.00,,,,,,,,,,,,0,0,0,,-3048,15864,908,-155,126,-165
23.934,23.77,-0.04,-0.75,-1.34,1.38,-1.01,-1.05,1.55,-2.54,3.46,225.00,746.00,846.00,1367.00,1932.00,4095.00,466.00,1728.00,,,,,,,,,,,,0,0,0,,-3088,15904,1028,-125,63,-174
23.955,23.83,-0.02,-6.21,8.61,-3.32,5.27,0.40,-0.59,2.94,-2.27,145.00,709.00,656.00,1391.00,2113.00,4095.00,575.00,1622.00,,,,,,,,,,,,0,0,0,,-3152,15764,1216,-47,94,-170
24.019,23.89,0.01,8.58,-6.86,5.87,-2.13,0.59,-0.87,0.42,-1.26,256.00,598.00,828.00,1179.00,2138.00,4095.00,570.00,1744.00,,,,,,,,,,,,0,0,0,,-3012,16044,1020,-51,149,-269
24.08,23.94,-0.04,1.62,-4.08,2.39,-1.95,-1.06,1.57,-2.51,3.61,250.00,731.00,874.00,1347.00,1931.00,4095.00,462.00,1719.00,,,,,,,,,,,,0,0,0,,-3164,15692,884,-115,76,-194
24.122,24.00,-0.04,-10.72,13.17,-2.80,4.24,-0.02,0.03,1.50,-1.16,123.00,750.00,687.00,1401.00,2059.00,4095.00,556.00,1667.00,,,,,,,,,,,,0,0,0,,-3016,15968,924,-95,139,-165
24.184,24.05,0.01,3.09,-3.28,1.85,0.28,1.00,-1.48,2.48,-2.99,233.00,675.00,782.00,1296.00,2193.00,4095.00,603.00,1684.00,,,,,,,,,,,,0,0,0,,-3160,15988,788,-72,164,-171
24.225,24.10,0.01,6.23,-9.43,5.30,-4.26,-0.02,0.03,-0.77,0.17,307.00,703.00,939.00,1277.00,2059.00,4095.00,539.00,1759.00,,,,,,,,,,,,0,0,0,,-3124,16008,920,-110,49,-245
24.326,24.16,-0.03,-3.27,0.09,-1.67,1.00,-0.75,1.10,-0.37,1.06,218.00,793.00,802.00,1461.00,1969.00,4095.00,510.00,1691.00,,,,,,,,,,,,0,0,0,,-3196,15820,952,-122,41,-219
24.347,24.21,0.02,-1.32,1.97,-0.75,3.18,1.01,-1.49,3.73,-3.78,190.00,698.00,701.00,1329.00,2194.00,4095.00,615.00,1637.00,,,,,,,,,,,,0,0,0,,-3180,15888,1052,-137,67,-246
24.389,24.27,0.02,9.77,-11.89,7.80,-5.00,0.07,-0.10,-0.56,0.03,329.00,653.00,934.00,1180.00,2070.00,4095.00,541.00,1751.00,,,,,,,,,,,,0,0,0,,-3152,15868,904,-173,137,-189
24.452,24.32,-0.03,-0.15,-1.62,1.28,-0.54,-1.08,1.59,-2.27,3.44,226.00,734.00,826.00,1355.00,1929.00,4095.00,464.00,1710.00,,,,,,,,,,,,0,0,0,,-3184,15792,1044,-106,170,-216
24.513,24.38,-0.02,-6.37,8.79,-2.55,4.95,0.27,-0.39,2.70,-1.90,144.00,710.00,658.00,1361.00,2096.00,4095.00,566.00,1621.00,,,,,,,,,,,,0,0,0,,-3208,15880,836,-37,24,-272
24.555,24.43,0.00,8.41,-7.23,6.59,-2.81,0.32,-0.47,0.59,-1.06,262.00,608.00,848.00,1167.00,2103.00,4095.00,562.00,1723.00,,,,,,,,,,,,0,0,0,,-3152,15880,820,-69,-32,-265
24.658,24.49,-0.06,0.91,-3.09,2.35,-1.90,-1.18,1.74,-2.83,3.83,240.00,732.00,872.00,1347.00,1917.00,4095.00,459.00,1730.00,,,,,,,,,,,,0,0,0,,-3132,15836,924,-137,53,-333
24.679,24.55,-0.06,-10.06,13.24,-4.60,6.44,0.01,-0.02,1.98,-1.42,121.00,729.00,630.00,1418.00,2063.00,4095.00,559.00,1647.00,,,,,,,,,,,,0,0,0,,-3184,15944,816,-102,131,-368
24.72,24.60,0.00,3.45,-3.87,1.48,0.34,1.07,-1.59,2.11,-3.08,239.00,676.00,785.00,1313.00,2203.00,4095.00,610.00,1713.00,,,,,,,,,,,,0,0,0,,-3244,15784,912,-139,-57,-430
24.781,24.66,0.00,6.02,-9.11,4.43,-3.85,0.07,-0.11,-0.96,0.10,303.00,703.00,933.00,1307.00,2071.00,4095.00,543.00,1776.00,,,,,,,,,,,,0,0,0,,-3264,15736,912,-91,-150,-411
24.845,24.71,-0.01,-3.52,0.09,-2.38,1.10,-0.33,0.49,-0.92,1.21,219.00,801.00,808.00,1499.00,2020.00,4095.00,511.00,1721.00,,,,,,,,,,,,0,0,0,,-3348,15924,932,-72,25,-364
24.928,24.76,0.05,0.54,-0.24,-0.59,2.22,1.22,-1.80,3.47,-3.90,207.00,688.00,736.00,1355.00,2223.00,4095.00,622.00,1659.00,,,,,,,,,,,,0,0,0,,-3392,15716,964,-128,99,-316
24.949,24.82,0.06,10.21,-12.43,7.58,-5.39,0.21,-0.31,-0.91,0.08,336.00,651.00,958.00,1203.00,2089.00,4095.00,543.00,1773.00,,,,,,,,,,,,0,0,0,,-3256,15904,920,-171,140,-202
25.033,24.87,0.00,-2.11,-0.47,0.15,-0.22,-1.07,1.58,-2.38,3.56,220.00,769.00,829.00,1405.00,1930.00,4095.00,462.00,1712.00,,,,,,,,,,,,0,0,0,,-3360,15868,792,-205,102,-104
25.054,24.93,0.02,-5.89,8.50,-2.36,4.89,0.34,-0.51,2.57,-1.82,145.00,702.00,658.00,1353.00,2106.00,4095.00,565.00,1626.00,,,,,,,,,,,,0,0,0,,-3316,15884,932,-387,54,-69
25.116,24.98,0.04,8.06,-6.90,6.53,-2.46,0.35,-0.52,0.52,-0.87,259.00,611.00,833.00,1159.00,2107.00,4095.00,557.00,1719.00,,,,,,,,,,,,0,0,0,,-3412,15712,1128,-495,215,24
25.158,25.04,-0.03,1.23,-3.20,2.56,-1.75,-1.27,1.88,-3.02,4.51,240.00,725.00,862.00,1331.00,1906.00,4095.00,444.00,1712.00,,,,,,,,,,,,0,0,0,,-3336,15688,1116,-576,323,65
25.221,25.09,-0.03,-9.97,13.21,-3.55,5.34,0.00,-0.00,0.63,0.98,121.00,727.00,656.00,1401.00,2062.00,4095.00,503.00,1629.00,,,,,,,,,,,,0,0,0,,-3228,15744,1028,-704,332,256
25.302,25.15,0.01,6.27,-5.05,4.23,-0.73,0.76,-1.11,1.97,-2.48,242.00,624.00,791.00,1212.00,2160.00,4095.00,592.00,1695.00,,,,,,,,,,,,0,0,0,,-3116,15768,1016,-775,314,224
25.446,25.20,0.00,5.29,-8.93,4.92,-4.05,-0.20,0.29,-1.06,0.65,304.00,720.00,935.00,1289.00,2037.00,4095.00,528.00,1757.00,,,,,,,,,,,,0,0,0,,-3212,15780,1164,-902,215,208
25.467,25.26,-0.02,-3.74,1.12,-1.79,1.39,-0.45,0.67,-0.36,1.02,208.00,786.00,787.00,1453.00,2005.00,4095.00,511.00,1692.00,,,,,,,,,,,,0,0,0,,-3052,15752,1360,-999,326,204
25.487,25.32,0.04,1.11,-1.55,-0.10,1.88,1.13,-1.67,3.24,-3.82,220.00,697.00,743.00,1341.00,2211.00,4095.00,622.00,1671.00,,,,,,,,,,,,0,0,0,,-3076,15780,1520,-837,410,115
25.527,25.37,0.04,9.27,-12.12,7.37,-5.40,0.16,-0.23,-1.26,0.47,336.00,670.00,962.00,1213.00,2082.00,4095.00,535.00,1779.00,,,,,,,,,,,,0,0,0,,-3088,15824,1576,-800,259,68
25.569,25.42,-0.01,-2.37,-1.52,-1.04,0.13,-0.89,1.32,-1.93,2.86,234.00,799.00,831.00,1459.00,1951.00,4095.00,476.00,1714.00,,,,,,,,,,,,0,0,0,,-2936,15940,1544,-740,5,-66
25.589,25.48,0.01,-4.99,6.97,-2.24,4.32,0.28,-0.42,2.62,-2.16,155.00,706.00,677.00,1367.00,2098.00,4095.00,575.00,1638.00,,,,,,,,,,,,0,0,0,,-3044,15848,1744,-568,-2,-38
25.651,25.53,0.03,7.89,-7.13,5.54,-2.24,0.51,-0.75,0.12,-0.73,263.00,619.00,838.00,1198.00,2127.00,4095.00,557.00,1740.00,,,,,,,,,,,,0,0,0,,-2964,15832,2024,-250,192,-17
25.712,25.59,-0.03,0.31,-2.66,1.50,-1.25,-1.16,1.72,-3.38,4.30,237.00,741.00,855.00,1369.00,1919.00,4095.00,452.00,1746.00,,,,,,,,,,,,0,0,0,,-3024,15884,1908,-74,204,-239
25.773,25.64,-0.02,-10.38,13.82,-4.82,7.08,0.04,-0.06,2.33,-1.28,118.00,727.00,611.00,1406.00,2067.00,4095.00,551.00,1618.00,,,,,,,,,,,,0,0,0,,-2960,15784,1724,-23,67,-88
25.813,25.70,0.01,7.34,-5.71,5.37,-1.48,0.63,-0.94,1.12,-1.50,246.00,609.00,807.00,1182.00,2144.00,4095.00,570.00,1707.00,,,,,,,,,,,,0,0,0,,-2992,15816,1800,26,111,-117
25.875,25.75,-0.00,4.03,-6.45,3.95,-3.24,-0.24,0.36,-1.23,0.92,272.00,708.00,911.00,1311.00,2031.00,4095.00,522.00,1756.00,,,,,,,,,,,,0,0,0,,-3024,15852,1740,49,111,-148
25.937,25.81,-0.02,-3.77,1.39,-1.39,1.00,-0.28,0.41,0.17,0.13,205.00,781.00,798.00,1445.00,2027.00,4095.00,531.00,1697.00,,,,,,,,,,,,0,0,0,,-3048,15968,1436,100,65,-200
25.997,25.86,0.04,2.11,-2.38,0.55,1.52,1.08,-1.60,2.88,-3.49,226.00,685.00,749.00,1320.00,2204.00,4095.00,615.00,1680.00,,,,,,,,,,,,0,0,0,,-3200,15932,1420,475,178,-221
26.058,25.92,0.04,9.12,-11.51,6.55,-5.22,0.01,-0.02,-1.20,0.35,326.00,663.00,967.00,1247.00,2063.00,4095.00,538.00,1781.00,,,,,,,,,,,,0,0,0,,-3156,15264,1036,459,231,224
26.139,25.98,-0.01,-4.17,0.99,-1.29,0.40,-0.94,1.39,-1.36,2.17,211.00,802.00,823.00,1463.00,1945.00,4095.00,489.00,1707.00,,,,,,,,,,,,0,0,0,,-2948,15716,1216,-654,-378,719
26.16,26.03,0.00,-3.47,5.53,-1.71,3.82,0.29,-0.43,2.96,-2.21,163.00,691.00,689.00,1357.00,2099.00,4095.00,573.00,1618.00,,,,,,,,,,,,0,0,0,,-2632,15684,2032,-1120,-342,679
26.202,26.08,0.01,8.20,-7.16,6.33,-2.68,0.23,-0.34,-0.04,-0.28,262.00,612.00,846.00,1175.00,2091.00,4095.00,545.00,1730.00,,,,,,,,,,,,0,0,0,,-2524,15952,2432,-1775,212,572
26.263,26.14,-0.05,-0.08,-2.13,1.42,-1.05,-1.29,1.90,-2.82,3.99,232.00,742.00,847.00,1366.00,1904.00,4095.00,455.00,1722.00,,,,,,,,,,,,0,0,0,,-2544,16172,2380,-991,666,50
26.344,26.19,-0.02,-9.11,12.62,-3.84,6.04,0.50,-0.73,2.55,-1.88,123.00,714.00,635.00,1391.00,2126.00,4095.00,567.00,1630.00,,,,,,,,,,,,0,0,0,,-2748,16064,1820,-305,-103,-636
26.364,26.25,0.00,9.00,-6.34,5.93,-2.08,0.51,-0.76,0.62,-1.49,247.00,580.00,825.00,1175.00,2128.00,4095.00,575.00,1741.00,,,,,,,,,,,,0,0,0,,-2788,15556,1768,888,-792,-616
26.427,26.30,-0.03,2.77,-3.79,3.50,-3.37,-0.70,1.04,-2.79,2.61,241.00,693.00,925.00,1339.00,1974.00,4095.00,490.00,1785.00,,,,,,,,,,,,0,0,0,,-2844,15852,1676,719,-1086,-421
26.509,26.36,-0.04,-4.11,3.60,-2.17,1.59,-0.16,0.23,0.06,-0.28,183.00,746.00,784.00,1467.00,2042.00,4095.00,544.00,1723.00,,,,,,,,,,,,0,0,0,,-2740,15844,2056,41,-889,-16
26.53,26.41,0.02,2.27,-1.34,0.84,0.67,1.06,-1.56,2.22,-3.18,213.00,662.00,780.00,1335.00,2201.00,4095.00,612.00,1710.00,,,,,,,,,,,,0,0,0,,-2764,15920,1932,151,583,-414
26.592,26.47,0.02,8.65,-10.36,5.32,-4.69,0.10,-0.14,-1.35,-0.14,309.00,655.00,961.00,1291.00,2074.00,4095.00,554.00,1815.00,,,,,,,,,,,,0,0,0,,-2636,15472,988,-569,-235,175
26.654,26.52,-0.03,-4.17,1.89,-1.61,0.68,-0.94,1.38,-1.64,2.34,201.00,783.00,815.00,1470.00,1946.00,4095.00,487.00,1718.00,,,,,,,,,,,,0,0,0,,-2520,16392,2128,-674,-835,-201
26.715,26.58,0.01,-3.61,7.61,-0.66,3.04,0.76,-1.13,2.98,-3.28,146.00,657.00,705.00,1329.00,2161.00,4095.00,607.00,1664.00,,,,,,,,,,,,0,0,0,,-2752,15816,2140,-146,-744,-530
26.756,26.64,0.02,8.70,-6.09,5.74,-2.52,0.15,-0.22,-0.25,-0.67,245.00,583.00,848.00,1198.00,2081.00,4095.00,559.00,1763.00,,,,,,,,,,,,0,0,0,,-2652,15768,1848,-200,-776,-571
26.838,26.69,-0.03,0.50,-0.22,1.66,-0.80,-1.03,1.52,-2.79,3.46,207.00,689.00,832.00,1344.00,1935.00,4095.00,468.00,1745.00,,,,,,,,,,,,0,0,0,,-2912,15808,2316,-477,-407,-758
26.918,26.75,-0.02,-8.01,13.98,-2.09,4.35,0.14,-0.20,2.43,-2.16,112.00,659.00,674.00,1358.00,2079.00,4095.00,577.00,1650.00,,,,,,,,,,,,0,0,0,,-3024,15512,2080,-78,5,-292
26.938,26.80,-0.01,9.53,-4.88,6.33,-2.26,0.28,-0.41,-0.34,-1.23,226.00,546.00,827.00,1162.00,2097.00,4095.00,577.00,1796.00,,,,,,,,,,,,0,0,0,,-2892,15772,2068,-224,168,-38
26.979,26.85,-0.06,2.15,-1.39,3.24,-2.28,-1.00,1.48,-3.13,3.11,214.00,666.00,876.00,1314.00,1938.00,4095.00,480.00,1785.00,,,,,,,,,,,,0,0,0,,-2696,15988,1892,-239,-312,-357
27.041,26.91,-0.06,-7.47,11.48,-2.53,3.23,-0.13,0.19,0.24,-0.67,127.00,690.00,722.00,1424.00,2045.00,4095.00,554.00,1729.00,,,,,,,,,,,,0,0,0,,-2840,15672,1876,-268,-622,-581
27.104,26.96,-0.02,3.50,-0.78,1.48,0.34,0.85,-1.26,2.27,-3.35,202.00,621.00,785.00,1313.00,2173.00,4095.00,617.00,1714.00,,,,,,,,,,,,0,0,0,,-2992,15768,2408,-260,-491,-328
27.144,27.02,-0.02,7.56,-7.77,4.86,-3.99,0.02,-0.03,-1.60,0.04,274.00,638.00,933.00,1290.00,2064.00,4095.00,551.00,1824.00,,,,,,,,,,,,0,0,0,,-3096,15672,2320,-164,106,-208
27.228,27.07,-0.04,-4.77,4.34,-1.75,0.57,-0.53,0.79,-1.64,1.49,178.00,751.00,822.00,1483.00,1995.00,4095.00,510.00,1758.00,,,,,,,,,,,,0,0,0,,-3040,15588,1916,-336,384,108
27.248,27.13,0.01,-2.32,7.69,-0.91,2.99,0.94,-1.39,2.91,-4.24,142.00,623.00,710.00,1344.00,2185.00,4095.00,640.00,1712.00,,,,,,,,,,,,0,0,0,,-2580,15448,1028,-672,-716,175
27.311,27.18,0.02,11.09,-9.29,5.76,-3.99,0.24,-0.36,-0.30,-1.21,279.00,578.00,918.00,1245.00,2093.00,4095.00,576.00,1792.00,,,,,,,,,,,,0,0,0,,-2936,16076,3252,153,-1038,-34
27.373,27.24,-0.04,0.24,0.59,0.86,-0.31,-1.08,1.59,-2.96,3.25,199.00,681.00,822.00,1369.00,1929.00,4095.00,475.00,1767.00,,,,,,,,,,,,0,0,0,,-2840,15612,2708,671,485,-396
27.436,27.30,-0.02,-7.25,13.73,-1.95,4.09,0.23,-0.34,2.22,-2.31,112.00,644.00,682.00,1360.00,2091.00,4095.00,584.00,1671.00,,,,,,,,,,,,0,0,0,,-2612,15500,1820,305,307,161
27.498,27.35,-0.01,10.35,-4.91,6.04,-2.03,0.28,-0.41,0.13,-1.13,223.00,529.00,821.00,1168.00,2097.00,4095.00,569.00,1758.00,,,,,,,,,,,,0,0,0,,-2780,16012,2556,-40,419,-369
27.519,27.41,-0.06,1.88,-0.78,2.85,-1.94,-1.16,1.72,-3.44,3.76,208.00,662.00,866.00,1322.00,1919.00,4095.00,466.00,1776.00,,,,,,,,,,,,0,0,0,,-2436,15696,1100,233,-185,-51
27.601,27.46,-0.07,-11.05,18.64,-2.17,4.00,-0.12,0.18,0.72,-0.97,92.00,656.00,688.00,1375.00,2046.00,4095.00,558.00,1710.00,,,,,,,,,,,,0,0,0,,-2416,15284,960,-588,-3038,302
27.642,27.51,-0.03,4.44,-0.25,2.35,-0.38,0.76,-1.11,1.56,-2.95,193.00,590.00,803.00,1293.00,2160.00,4095.00,612.00,1745.00,,,,,,,,,,,,0,0,0,,-2896,16132,3224,-1329,-2232,-328
27.684,27.57,-0.04,7.31,-6.93,4.57,-3.47,-0.21,0.31,-1.77,0.34,263.00,630.00,912.00,1287.00,2035.00,4095.00,544.00,1822.00,,,,,,,,,,,,0,0,0,,-2900,15636,3568,675,-440,-855
27.746,27.62,-0.06,-3.57,3.83,-1.12,0.63,-0.44,0.66,-0.49,0.08,179.00,726.00,810.00,1444.00,2006.00,4095.00,539.00,1744.00,,,,,,,,,,,,0,0,0,,-2884,15408,2744,504,1284,-461
27.809,27.68,-0.01,-0.24,4.55,0.43,1.78,0.95,-1.40,2.99,-4.29,162.00,624.00,740.00,1317.00,2186.00,4095.00,641.00,1709.00,,,,,,,,,,,,0,0,0,,-2928,15740,2404,674,1656,-3
27.869,27.73,-0.00,12.26,-11.09,6.34,-4.66,0.05,-0.07,-1.03,-0.61,301.00,579.00,942.00,1239.00,2068.00,4095.00,565.00,1815.00,,,,,,,,,,,,0,0,0,,-2760,15668,1808,1382,1630,468
27.911,27.79,-0.05,1.00,0.52,1.21,-0.49,-1.00,1.48,-2.61,2.89,197.00,662.00,825.00,1357.00,1938.00,4095.00,481.00,1759.00,,,,,,,,,,,,0,0,0,,-2620,15728,1528,1297,1440,511
27.994,27.84,-0.03,-6.26,12.91,-1.83,4.15,0.34,-0.50,1.92,-2.05,115.00,633.00,678.00,1351.00,2105.00,4095.00,579.00,1679.00,,,,,,,,,,,,0,0,0,,-2792,16124,1056,847,1157,214
28.014,27.90,-0.02,9.17,-4.35,5.49,-2.15,0.30,-0.44,-0.05,-1.20,221.00,546.00,835.00,1198.00,2100.00,4095.00,573.00,1774.00,,,,,,,,,,,,0,0,0,,-2480,15732,1080,570,897,594
28.095,27.95,-0.07,2.22,-1.33,1.53,-1.13,-1.11,1.64,-3.45,3.88,213.00,663.00,849.00,1363.00,1925.00,4095.00,463.00,1771.00,,,,,,,,,,,,0,0,0,,-2412,15780,1172,9,691,702
28.157,28.01,-0.06,-11.59,19.43,-3.02,4.53,0.14,-0.20,1.58,-1.49,89.00,656.00,679.00,1402.00,2079.00,4095.00,565.00,1676.00,,,,,,,,,,,,0,0,0,,-2380,16232,1352,-536,616,535
28.177,28.07,-0.02,6.49,-2.33,3.41,-1.03,0.76,-1.11,1.83,-3.23,208.00,575.00,816.00,1262.00,2160.00,4095.00,618.00,1739.00,,,,,,,,,,,,0,0,0,,-2144,15840,1708,-592,337,309
28.24,28.12,-0.02,3.14,-2.07,4.50,-3.63,-0.04,0.05,-1.35,0.40,218.00,652.00,921.00,1296.00,2057.00,4095.00,538.00,1789.00,,,,,,,,,,,,0,0,0,,-2160,16028,1700,-496,35,251
28.343,28.17,-0.04,-3.44,3.48,-0.90,0.67,-0.40,0.60,-0.36,0.24,182.00,729.00,805.00,1430.00,2011.00,4095.00,533.00,1728.00,,,,,,,,,,,,0,0,0,,-2096,16180,1892,207,36,-262
28.364,28.23,0.01,1.20,2.02,0.82,1.08,0.97,-1.43,3.26,-3.91,181.00,631.00,763.00,1321.00,2189.00,4095.00,625.00,1674.00,,,,,,,,,,,,0,0,0,,-2420,16072,1324,552,27,-609
28.406,28.28,0.01,11.97,-11.18,7.10,-4.96,-0.04,0.05,-1.31,-0.05,304.00,587.00,944.00,1212.00,2057.00,4095.00,551.00,1808.00,,,,,,,,,,,,0,0,0,,-2656,15908,1156,920,-29,-579
28.468,28.34,-0.04,-2.60,2.50,-0.11,0.13,-0.86,1.27,-2.30,2.91,189.00,724.00,817.00,1406.00,1955.00,4095.00,478.00,1737.00,,,,,,,,,,,,0,0,0,,-2596,15708,1252,426,221,49
28.529,28.39,-0.02,-5.95,11.86,-1.29,3.87,0.23,-0.34,3.09,-2.35,121.00,643.00,682.00,1333.00,2091.00,4095.00,576.00,1616.00,,,,,,,,,,,,0,0,0,,-2472,16144,1232,-352,647,243
28.571,28.45,-0.01,9.34,-5.54,5.75,-2.48,0.20,-0.29,-0.05,-0.77,235.00,560.00,846.00,1196.00,2087.00,4095.00,560.00,1754.00,,,,,,,,,,,,0,0,0,,-2472,16000,1200,-147,854,167
28.632,28.50,-0.07,1.69,-0.71,1.88,-1.18,-1.21,1.78,-3.40,4.31,208.00,666.00,846.00,1346.00,1914.00,4095.00,452.00,1747.00,,,,,,,,,,,,0,0,0,,-2416,16008,1088,245,919,232
28.714,28.56,-0.06,-13.86,22.16,-2.52,4.69,0.10,-0.15,2.02,-1.50,80.00,667.00,667.00,1369.00,2075.00,4095.00,561.00,1648.00,,,,,,,,,,,,0,0,0,,-2244,15852,1156,-202,925,478
28.734,28.61,-0.04,7.90,-3.41,4.75,-1.52,0.44,-0.64,1.30,-2.19,215.00,560.00,818.00,1213.00,2118.00,4095.00,590.00,1727.00,,,,,,,,,,,,0,0,0,,-2096,16060,1544,-479,839,746
28.794,28.67,-0.05,6.29,-6.94,5.24,-4.00,-0.24,0.35,-1.33,0.50,268.00,656.00,927.00,1271.00,2032.00,4095.00,535.00,1783.00,,,,,,,,,,,,0,0,0,,-2228,16224,1364,-54,676,328
28.835,28.73,-0.05,-3.39,3.98,-1.03,0.62,-0.16,0.24,0.32,-0.47,177.00,718.00,809.00,1439.00,2041.00,4095.00,547.00,1714.00,,,,,,,,,,,,0,0,0,,-2124,15888,1144,644,308,658
28.896,28.78,-0.00,2.17,0.70,0.58,0.83,0.99,-1.47,2.91,-3.62,191.00,629.00,777.00,1343.00,2192.00,4095.00,619.00,1684.00,,,,,,,,,,,,0,0,0,,-1880,16224,968,803,142,492
28.958,28.83,-0.00,10.71,-10.75,6.19,-4.65,-0.01,0.01,-0.79,-0.19,304.00,610.00,944.00,1246.00,2061.00,4095.00,550.00,1778.00,,,,,,,,,,,,0,0,0,,-1768,16152,1112,582,297,571
29.02,28.89,-0.04,-3.27,2.73,-1.21,0.48,-0.76,1.12,-1.54,2.46,189.00,739.00,818.00,1455.00,1967.00,4095.00,483.00,1706.00,,,,,,,,,,,,0,0,0,,-1884,16120,872,349,549,265
29.081,28.94,-0.03,-3.61,9.05,-0.45,2.71,0.21,-0.30,2.92,-2.10,135.00,632.00,715.00,1330.00,2088.00,4095.00,570.00,1616.00,,,,,,,,,,,,0,0,0,,-1748,16068,592,391,421,78
29.142,29.00,-0.02,9.41,-5.64,5.78,-2.12,0.18,-0.27,0.40,-0.56,236.00,560.00,829.00,1183.00,2085.00,4095.00,549.00,1713.00,,,,,,,,,,,,0,0,0,,-1828,16168,544,468,176,271
29.205,29.05,-0.07,0.44,0.90,2.08,-1.05,-1.13,1.67,-2.56,4.07,195.00,670.00,837.00,1331.00,1923.00,4095.00,451.00,1701.00,,,,,,,,,,,,0,0,0,,-1664,16236,572,276,213,285
29.225,29.11,-0.06,-10.90,18.59,-2.96,5.15,0.10,-0.14,3.31,-2.10,92.00,653.00,656.00,1376.00,2074.00,4095.00,566.00,1591.00,,,,,,,,,,,,0,0,0,,-1536,16072,540,-210,386,282
29.307,29.16,-0.04,11.19,-4.86,5.83,-1.84,0.47,-0.69,1.24,-1.21,219.00,511.00,816.00,1172.00,2122.00,4095.00,560.00,1686.00,,,,,,,,,,,,0,0,0,,-1548,16244,516,-604,485,203
29.347,29.22,-0.06,4.95,-4.45,3.82,-2.62,-0.59,0.87,-1.97,2.34,240.00,647.00,883.00,1296.00,1988.00,4095.00,490.00,1741.00,,,,,,,,,,,,0,0,0,,-1452,16176,696,-622,558,155
29.493,29.27,-0.07,-3.62,4.27,-1.09,1.11,-0.23,0.34,0.56,0.04,175.00,719.00,789.00,1424.00,2033.00,4095.00,530.00,1675.00,,,,,,,,,,,,0,0,0,,-1492,16348,812,-354,528,51
29.514,29.33,-0.03,3.12,-0.28,1.54,0.34,0.80,-1.18,3.62,-4.10,198.00,622.00,784.00,1310.00,2166.00,4095.00,627.00,1658.00,,,,,,,,,,,,0,0,0,,-1500,16276,800,-282,368,-60
29.535,29.39,-0.03,8.63,-9.18,5.32,-4.34,0.02,-0.03,-1.06,0.48,290.00,635.00,943.00,1279.00,2064.00,4095.00,533.00,1765.00,,,,,,,,,,,,0,0,0,,-1692,16080,776,-233,110,-135
29.556,29.44,-0.06,-3.53,3.11,-1.55,0.57,-0.76,1.12,-1.21,2.38,186.00,739.00,819.00,1471.00,1967.00,4095.00,482.00,1687.00,,,,,,,,,,,,0,0,0,,-1552,16216,1064,-213,40,-98
29.619,29.50,-0.02,-2.43,6.96,-1.43,3.46,0.84,-1.24,3.98,-3.65,148.00,638.00,699.00,1355.00,2171.00,4095.00,608.00,1615.00,,,,,,,,,,,,0,0,0,,-1392,16132,948,-97,213,-58
29.682,29.55,-0.01,8.94,-5.09,5.26,-2.32,0.22,-0.33,0.32,-0.33,231.00,562.00,846.00,1214.00,2090.00,4095.00,543.00,1708.00,,,,,,,,,,,,0,0,0,,-1512,16148,836,0,258,-16
29.725,29.60,-0.05,0.86,-0.43,1.33,-0.91,-0.89,1.31,-2.55,3.94,208.00,683.00,842.00,1366.00,1952.00,4095.00,454.00,1706.00,,,,,,,,,,,,0,0,0,,-1512,16132,604,8,239,-49
29.806,29.66,-0.04,-7.71,13.72,-2.47,4.24,0.18,-0.27,3.44,-2.14,113.00,656.00,683.00,1383.00,2085.00,4095.00,566.00,1585.00,,,,,,,,,,,,0,0,0,,-1508,16020,676,-93,139,-237
29.827,29.71,-0.02,10.79,-5.63,6.26,-2.34,0.35,-0.52,1.47,-1.48,230.00,530.00,832.00,1168.00,2107.00,4095.00,566.00,1683.00,,,,,,,,,,,,0,0,0,,-1576,16148,752,-131,168,-108
29.888,29.77,-0.07,2.49,-1.51,2.57,-1.61,-1.06,1.57,-2.14,3.40,214.00,659.00,855.00,1325.00,1931.00,4095.00,464.00,1703.00,,,,,,,,,,,,0,0,0,,-1436,16148,768,-89,316,-40
29.95,29.82,-0.08,-7.29,9.62,-2.00,2.42,-0.24,0.35,1.32,-0.50,140.00,720.00,747.00,1425.00,2032.00,4095.00,538.00,1649.00,,,,,,,,,,,,0,0,0,,-1516,16100,728,-104,267,35
30.012,29.88,-0.04,3.29,-0.71,1.82,0.13,0.76,-1.11,2.95,-2.81,202.00,625.00,789.00,1303.00,2160.00,4095.00,592.00,1645.00,,,,,,,,,,,,0,0,0,,-1488,16008,808,-246,241,264
30.054,29.93,-0.04,7.92,-8.43,5.29,-3.90,-0.02,0.03,-0.68,0.49,282.00,640.00,921.00,1265.00,2059.00,4095.00,529.00,1738.00,,,,,,,,,,,,1,0,0,,-1524,16156,820,-265,499,279
30.116,29.99,-0.06,-3.93,3.14,-1.54,0.66,-0.55,0.81,-0.51,1.88,187.00,750.00,815.00,1467.00,1993.00,4095.00,489.00,1663.00,,,,,,,,,,,,1,0,0,,-1412,16124,876,-359,635,307
30.178,30.05,-0.01,-1.58,6.18,-0.26,2.52,0.99,-1.47,4.60,-3.89,152.00,630.00,720.00,1327.00,2192.00,4095.00,609.00,1586.00,,,,,,,,,,,,1,0,0,,-1192,16272,684,-360,465,220
30.24,30.10,-0.00,11.04,-10.25,6.24,-4.09,0.14,-0.20,0.57,-0.10,294.00,594.00,915.00,1225.00,2079.00,4095.00,534.00,1681.00,,,,,,,,,,,,1,0,0,,-1132,16268,764,-301,274,87
30.303,30.16,-0.06,-0.10,0.71,1.34,-0.82,-1.19,1.75,-1.87,3.96,199.00,688.00,838.00,1362.00,1916.00,4095.00,448.00,1660.00,,,,,,,,,,,,1,0,0,,-1276,16152,932,-269,95,-59
30.324,30.21,-0.05,-5.69,10.74,-1.76,3.94,0.16,-0.23,3.13,-1.54,128.00,656.00,685.00,1355.00,2082.00,4095.00,551.00,1579.00,,,,,,,,,,,,1,0,0,,-1120,16260,1024,-220,129,-97
30.384,30.26,-0.03,9.45,-5.10,6.11,-2.25,0.41,-0.60,1.26,-1.08,229.00,551.00,830.00,1172.00,2114.00,4095.00,556.00,1679.00,,,,,,,,,,,,1,0,0,,-1176,16224,996,-183,158,-126
30.445,30.32,-0.08,1.66,-1.23,2.16,-1.45,-1.03,1.52,-2.21,3.99,214.00,676.00,854.00,1341.00,1935.00,4095.00,450.00,1681.00,,,,,,,,,,,,1,0,0,,-1224,16228,904,-45,196,-190
30.549,30.37,-0.07,-9.28,14.57,-2.82,3.95,0.06,-0.08,1.72,-0.49,111.00,682.00,698.00,1413.00,2069.00,4095.00,534.00,1623.00,,,,,,,,,,,,1,0,0,,-1292,16196,636,33,30,-222
30.57,30.43,-0.03,6.18,-5.09,1.79,-0.37,0.84,-1.24,2.03,-2.12,243.00,627.00,811.00,1322.00,2171.00,4095.00,580.00,1675.00,,,,,,,,,,,,1,0,0,,-1236,16220,968,-125,-34,-246
30.61,30.48,-0.02,6.59,-7.38,4.20,-3.61,0.07,-0.11,-0.66,0.48,273.00,656.00,925.00,1311.00,2071.00,4095.00,529.00,1737.00,,,,,,,,,,,,1,0,0,,-1256,16176,872,-150,86,-217
30.712,30.54,-0.04,-3.54,2.72,-1.68,0.46,-0.34,0.50,-0.41,1.48,190.00,747.00,826.00,1483.00,2019.00,4095.00,499.00,1675.00,,,,,,,,,,,,1,0,0,,-1320,16116,924,-143,255,-98
30.733,30.59,0.02,0.04,3.14,-0.29,1.73,1.10,-1.63,3.83,-3.45,174.00,641.00,752.00,1357.00,2207.00,4095.00,603.00,1616.00,,,,,,,,,,,,1,0,0,,-1364,16140,804,-106,131,-212
30.795,30.65,0.03,11.26,-10.75,6.19,-4.65,0.19,-0.28,-0.04,-0.21,301.00,597.00,944.00,1246.00,2086.00,4095.00,543.00,1727.00,,,,,,,,,,,,1,0,0,,-1328,16112,900,-152,96,30
30.815,30.70,-0.02,-0.07,0.88,1.19,-0.48,-0.93,1.37,-2.13,4.00,197.00,684.00,825.00,1358.00,1947.00,4095.00,449.00,1675.00,,,,,,,,,,,,1,0,0,,-1300,16024,940,-128,224,58
30.918,30.76,-0.00,-6.47,11.89,-1.42,3.72,0.27,-0.39,3.40,-2.07,122.00,656.00,689.00,1345.00,2096.00,4095.00,564.00,1584.00,,,,,,,,,,,,1,0,0,,-1248,16120,1000,-94,339,89
30.94,30.82,0.01,9.35,-5.62,5.85,-2.32,0.37,-0.54,0.90,-0.80,236.00,561.00,837.00,1186.00,2109.00,4095.00,551.00,1690.00,,,,,,,,,,,,1,0,0,,-1220,16208,860,-41,342,114
31.0,30.87,-0.05,1.30,-1.19,2.55,-1.67,-1.16,1.72,-2.72,4.62,215.00,685.00,858.00,1328.00,1919.00,4095.00,439.00,1687.00,,,,,,,,,,,,1,0,0,,-1172,16232,900,-21,197,32
31.041,30.92,-0.04,-10.45,16.53,-2.31,4.13,-0.03,0.04,2.89,-1.36,102.00,678.00,685.00,1378.00,2058.00,4095.00,548.00,1586.00,,,,,,,,,,,,1,0,0,,-1224,16220,716,-61,145,68
31.101,30.98,-0.00,5.91,-2.74,3.22,-0.80,0.76,-1.11,2.67,-2.72,215.00,595.00,809.00,1264.00,2160.00,4095.00,592.00,1659.00,,,,,,,,,,,,1,0,0,,-1008,16196,780,-143,183,-3
31.162,31.03,-0.00,6.73,-7.36,4.29,-3.60,0.00,-0.00,-0.59,0.70,272.00,652.00,923.00,1306.00,2062.00,4095.00,522.00,1722.00,,,,,,,,,,,,1,0,0,,-1188,16140,1108,-82,220,-10
31.224,31.09,-0.02,-3.18,2.99,-1.17,0.58,-0.25,0.37,0.23,0.82,186.00,731.00,813.00,1449.00,2030.00,4095.00,511.00,1662.00,,,,,,,,,,,,1,0,0,,-980,16164,716,-107,166,-11
31.284,31.14,0.04,1.52,1.02,0.45,1.01,1.16,-1.72,3.87,-3.73,190.00,640.00,771.00,1343.00,2215.00,4095.00,612.00,1626.00,,,,,,,,,,,,1,0,0,,-1008,16300,956,-197,125,-53
31.326,31.20,0.05,10.93,-11.01,6.51,-4.80,0.10,-0.15,-0.59,0.32,307.00,609.00,946.00,1235.00,2075.00,4095.00,533.00,1740.00,,,,,,,,,,,,1,0,0,,-992,16156,832,-196,145,-45
31.387,31.25,0.01,-2.72,1.96,-0.87,0.03,-0.74,1.09,-1.33,2.58,195.00,738.00,833.00,1453.00,1970.00,4095.00,478.00,1686.00,,,,,,,,,,,,1,0,0,,-1040,16192,1008,-174,145,-54
31.449,31.31,0.03,-5.69,10.74,-1.67,3.56,0.38,-0.57,3.39,-2.36,128.00,656.00,698.00,1364.00,2111.00,4095.00,573.00,1597.00,,,,,,,,,,,,1,0,0,,-940,16176,928,-119,236,-42
31.51,31.36,0.04,9.60,-6.32,5.33,-2.45,0.37,-0.54,0.49,-0.52,244.00,566.00,851.00,1215.00,2109.00,4095.00,547.00,1705.00,,,,,,,,,,,,1,0,0,,-1056,16248,896,-139,210,-63
31.552,31.42,-0.01,0.78,-0.58,1.33,-1.23,-1.06,1.57,-3.15,4.76,210.00,688.00,857.00,1378.00,1931.00,4095.00,439.00,1709.00,,,,,,,,,,,,1,0,0,,-1056,16272,960,-176,245,-29
31.593,31.48,-0.00,-12.58,19.56,-3.61,5.17,0.22,-0.33,2.78,-1.43,90.00,680.00,663.00,1411.00,2090.00,4095.00,551.00,1596.00,,,,,,,,,,,,1,0,0,,-984,16000,920,-259,282,-118
31.654,31.53,0.03,8.49,-4.28,4.60,-1.43,0.64,-0.95,1.85,-1.84,223.00,560.00,816.00,1217.00,2145.00,4095.00,573.00,1674.00,,,,,,,,,,,,1,0,0,,-968,16216,992,-172,377,-12
31.715,31.58,0.02,6.21,-7.05,3.95,-3.52,-0.16,0.24,-0.89,1.23,270.00,660.00,925.00,1321.00,2041.00,4095.00,510.00,1718.00,,,,,,,,,,,,1,0,0,,-920,16264,740,-127,274,-48
31.756,31.64,0.01,-3.59,2.54,-1.33,0.89,-0.23,0.34,0.50,0.73,192.00,752.00,802.00,1446.00,2033.00,4095.00,511.00,1648.00,,,,,,,,,,,,1,0,0,,-1036,16252,684,-261,-17,-191
31.818,31.70,0.06,-3.10,7.95,0.91,0.93,1.03,-1.52,3.65,-3.38,142.00,638.00,768.00,1322.00,2197.00,4095.00,603.00,1625.00,,,,,,,,,,,,1,0,0,,-1036,16160,1036,-346,16,-193
31.901,31.75,0.06,9.97,-10.50,6.24,-5.06,0.02,-0.03,-0.76,0.55,304.00,624.00,964.00,1257.00,2064.00,4095.00,528.00,1741.00,,,,,,,,,,,,1,0,0,,-1020,16156,1056,-295,187,-224
31.922,31.80,0.01,-3.56,2.15,-1.17,0.42,-0.85,1.25,-1.34,3.13,196.00,759.00,820.00,1455.00,1957.00,4095.00,464.00,1662.00,,,,,,,,,,,,1,0,0,,-964,16268,1052,-278,359,2
32.047,31.86,0.03,-3.56,7.59,-1.10,3.16,0.27,-0.39,3.67,-1.99,146.00,656.00,706.00,1348.00,2096.00,4095.00,559.00,1564.00,,,,,,,,,,,,1,0,0,,-1020,16276,792,-187,229,-123
32.067,31.92,0.04,8.48,-5.64,5.87,-2.59,0.26,-0.38,0.75,-0.58,240.00,581.00,849.00,1194.00,2095.00,4095.00,546.00,1690.00,,,,,,,,,,,,1,0,0,,-1008,16164,892,-154,0,-135
32.149,31.97,-0.03,0.75,-0.48,1.68,-1.18,-1.32,1.94,-2.23,4.16,209.00,687.00,849.00,1357.00,1901.00,4095.00,446.00,1675.00,,,,,,,,,,,,1,0,0,,-952,16176,996,-137,-58,-159
32.17,32.03,-0.02,-10.76,16.82,-2.76,4.69,0.27,-0.39,3.40,-1.97,101.00,681.00,670.00,1382.00,2096.00,4095.00,561.00,1580.00,,,,,,,,,,,,1,0,0,,-980,16256,988,-177,140,-154
32.211,32.08,0.01,8.89,-4.75,4.96,-1.59,0.52,-0.77,1.30,-1.16,227.00,558.00,818.00,1205.00,2129.00,4095.00,558.00,1680.00,,,,,,,,,,,,1,0,0,,-1020,16140,912,-115,178,-136
32.273,32.14,-0.01,3.00,-3.64,2.80,-2.36,-0.38,0.56,-1.51,1.96,238.00,684.00,887.00,1340.00,2014.00,4095.00,496.00,1727.00,,,,,,,,,,,,1,0,0,,-964,16192,936,-167,110,-157
32.313,32.19,-0.01,-4.33,4.19,-1.64,1.06,-0.04,0.07,0.78,0.03,178.00,741.00,799.00,1457.00,2056.00,4095.00,528.00,1661.00,,,,,,,,,,,,1,0,0,,-900,16220,1184,-218,110,-167
32.375,32.25,0.04,2.55,-0.91,0.69,0.58,1.04,-1.53,2.84,-3.08,207.00,647.00,786.00,1346.00,2198.00,4095.00,602.00,1664.00,,,,,,,,,,,,1,0,0,,-904,16128,932,-250,106,-112
32.414,32.30,0.05,7.91,-9.38,4.85,-4.45,0.23,-0.34,-0.61,0.05,297.00,657.00,957.00,1307.00,2091.00,4095.00,541.00,1754.00,,,,,,,,,,,,1,0,0,,-832,16300,1072,-153,147,-64
32.476,32.35,0.02,-4.33,2.32,-2.14,0.61,-0.51,0.75,-1.10,2.46,197.00,779.00,826.00,1504.00,1998.00,4095.00,479.00,1676.00,,,,,,,,,,,,1,0,0,,-844,16216,1004,-107,127,-311
32.537,32.41,0.06,-3.56,6.97,-1.14,2.81,0.82,-1.21,3.71,-2.84,151.00,667.00,720.00,1363.00,2169.00,4095.00,585.00,1598.00,,,,,,,,,,,,1,0,0,,-912,16120,1156,-109,47,-128
32.62,32.47,0.07,8.27,-5.72,4.92,-2.18,0.26,-0.38,0.66,-0.45,242.00,587.00,845.00,1226.00,2095.00,4095.00,543.00,1690.00,,,,,,,,,,,,1,0,0,,-960,16072,1004,-105,179,-153
32.64,32.52,0.01,0.41,-0.63,1.44,-0.88,-1.10,1.62,-2.13,4.25,212.00,699.00,839.00,1359.00,1927.00,4095.00,443.00,1664.00,,,,,,,,,,,,1,0,0,,-1000,16180,1040,-88,157,-42
32.703,32.58,0.03,-7.49,12.38,-2.24,4.48,0.23,-0.34,3.66,-1.86,121.00,674.00,671.00,1361.00,2091.00,4095.00,555.00,1559.00,,,,,,,,,,,,1,0,0,,-1008,16156,932,-87,145,-41
32.744,32.63,0.04,9.87,-5.72,5.95,-2.46,0.34,-0.50,1.31,-0.93,235.00,551.00,842.00,1186.00,2105.00,4095.00,551.00,1669.00,,,,,,,,,,,,1,0,0,,-968,16212,1180,14,155,7
32.805,32.69,-0.01,2.89,-3.21,2.87,-2.15,-0.96,1.42,-2.10,3.63,233.00,679.00,876.00,1329.00,1943.00,4095.00,458.00,1690.00,,,,,,,,,,,,1,0,0,,-900,16188,972,20,145,-8
32.865,32.74,-0.01,-6.57,7.74,-2.61,2.75,-0.12,0.17,1.33,-0.08,153.00,736.00,742.00,1447.00,2047.00,4095.00,526.00,1630.00,,,,,,,,,,,,1,0,0,,-820,16184,1120,-51,181,13
32.928,32.80,0.03,2.63,-1.03,1.36,0.26,0.81,-1.19,2.85,-2.30,208.00,647.00,790.00,1322.00,2167.00,4095.00,577.00,1629.00,,,,,,,,,,,,1,0,0,,-852,16216,1024,2,203,-72
32.97,32.85,0.03,6.96,-8.04,4.44,-3.63,0.02,-0.03,-0.21,0.40,281.00,658.00,922.00,1299.00,2064.00,4095.00,527.00,1710.00,,,,,,,,,,,,1,0,0,,-780,16188,1064,25,85,-40
33.031,32.91,-0.00,-3.99,2.20,-1.81,0.75,-0.60,0.88,-0.70,2.48,197.00,771.00,815.00,1479.00,1987.00,4095.00,475.00,1649.00,,,,,,,,,,,,1,0,0,,-844,16240,1096,19,36,-46
33.111,32.96,0.05,-1.72,4.83,-1.14,2.81,0.99,-1.47,4.32,-3.30,164.00,657.00,720.00,1363.00,2192.00,4095.00,593.00,1579.00,,,,,,,,,,,,1,0,0,,-700,16196,948,-24,85,30
33.132,33.02,0.06,10.49,-9.87,5.36,-3.88,0.27,-0.39,0.45,0.07,291.00,601.00,919.00,1261.00,2096.00,4095.00,530.00,1681.00,,,,,,,,,,,,1,0,0,,-884,16128,1012,-11,85,-147
33.194,33.07,0.01,-0.05,0.05,0.37,-0.52,-0.88,1.30,-2.38,4.67,206.00,699.00,839.00,1404.00,1953.00,4095.00,435.00,1662.00,,,,,,,,,,,,1,0,0,,-808,16256,940,-11,78,-135
33.256,33.13,0.03,-7.86,13.93,-2.40,3.76,0.39,-0.58,3.51,-1.97,112.00,656.00,700.00,1397.00,2112.00,4095.00,560.00,1573.00,,,,,,,,,,,,1,0,0,,-832,16200,1012,-104,122,-125
33.318,33.18,0.05,9.64,-5.24,4.96,-2.15,0.44,-0.66,1.35,-0.95,230.00,549.00,843.00,1223.00,2119.00,4095.00,551.00,1667.00,,,,,,,,,,,,1,0,0,,-892,16260,988,-132,173,9
33.379,33.24,-0.00,1.89,-1.90,1.47,-1.77,-1.02,1.50,-2.12,4.67,221.00,682.00,880.00,1390.00,1936.00,4095.00,433.00,1645.00,,,,,,,,,,,,1,0,0,,-860,16264,968,-109,243,56
33.482,33.29,0.01,-10.73,16.44,-3.39,3.94,0.30,-0.44,1.92,-0.63,103.00,687.00,706.00,1446.00,2100.00,4095.00,536.00,1616.00,,,,,,,,,,,,1,0,0,,-804,16132,964,-170,272,183
33.503,33.35,0.06,4.45,-1.82,0.95,0.12,0.98,-1.44,2.97,-2.34,210.00,615.00,802.00,1349.00,2190.00,4095.00,577.00,1623.00,,,,,,,,,,,,1,0,0,,-776,16168,1040,-144,267,-12
33.524,33.40,0.06,6.92,-6.94,4.07,-3.76,0.02,-0.03,0.02,0.39,265.00,640.00,935.00,1323.00,2064.00,4095.00,525.00,1695.00,,,,,,,,,,,,1,0,0,,-716,16340,984,-93,246,104
33.586,33.46,0.05,-3.57,3.63,-1.74,0.71,-0.03,0.04,0.21,1.75,181.00,730.00,816.00,1477.00,2058.00,4095.00,486.00,1622.00,,,,,,,,,,,,1,0,0,,-620,16268,948,-72,262,75
33.627,33.51,0.10,-1.37,5.87,-0.37,2.17,1.00,-1.48,4.48,-3.32,154.00,630.00,735.00,1345.00,2193.00,4095.00,592.00,1570.00,,,,,,,,,,,,1,0,0,,-640,16212,992,-103,143,84
33.689,33.57,0.10,11.32,-10.02,6.03,-4.44,0.13,-0.19,0.49,0.24,289.00,584.00,936.00,1247.00,2078.00,4095.00,525.00,1671.00,,,,,,,,,,,,1,0,0,,-596,16316,964,-60,222,172
33.751,33.62,0.05,0.07,1.51,0.99,-0.55,-1.02,1.50,-1.48,3.95,190.00,669.00,831.00,1371.00,1936.00,4095.00,445.00,1635.00,,,,,,,,,,,,1,0,0,,-592,16196,888,157,340,162
33.852,33.67,0.06,-6.31,12.92,-2.16,4.05,0.31,-0.45,3.84,-1.55,115.00,634.00,686.00,1373.00,2101.00,4095.00,544.00,1535.00,,,,,,,,,,,,1,0,0,,-540,16224,1064,210,295,219
33.892,33.73,0.08,9.90,-4.59,5.16,-1.95,0.39,-0.58,1.62,-0.80,221.00,534.00,831.00,1207.00,2112.00,4095.00,544.00,1643.00,,,,,,,,,,,,1,0,0,,-528,16440,936,411,557,429
33.912,33.78,0.02,2.10,-0.76,1.36,-0.96,-1.05,1.55,-2.32,4.78,207.00,656.00,844.00,1366.00,1932.00,4095.00,432.00,1653.00,,,,,,,,,,,,1,0,0,,-524,16084,1012,669,837,429
33.973,33.84,0.02,-12.45,21.69,-3.49,5.04,0.10,-0.15,3.03,-1.07,80.00,639.00,666.00,1409.00,2075.00,4095.00,538.00,1565.00,,,,,,,,,,,,1,0,0,,-456,16192,808,435,1126,462
34.014,33.90,0.07,5.16,-1.06,1.88,-0.31,0.87,-1.29,2.84,-2.59,199.00,586.00,807.00,1315.00,2176.00,4095.00,586.00,1642.00,,,,,,,,,,,,1,0,0,,-408,16440,728,663,1461,380
34.076,33.95,0.06,7.18,-6.39,3.70,-3.38,-0.05,0.08,-0.21,0.58,256.00,624.00,922.00,1329.00,2055.00,4095.00,522.00,1702.00,,,,,,,,,,,,1,0,0,,-400,16152,804,1309,2069,457
34.139,34.01,0.05,-3.47,5.41,-1.66,0.37,-0.21,0.31,0.22,1.19,164.00,693.00,830.00,1486.00,2035.00,4095.00,501.00,1646.00,,,,,,,,,,,,1,0,0,,-148,16368,-88,1014,2702,454
34.223,34.06,0.11,1.65,3.92,-0.30,1.65,1.23,-1.81,4.33,-4.07,162.00,589.00,755.00,1360.00,2224.00,4095.00,618.00,1611.00,,,,,,,,,,,,1,0,0,,-48,16156,-552,262,1412,159
34.244,34.12,0.11,13.24,-10.22,5.33,-4.37,0.27,-0.39,-0.00,-0.05,282.00,544.00,944.00,1279.00,2096.00,4095.00,538.00,1717.00,,,,,,,,,,,,1,0,0,,0,16284,-180,-302,93,242
34.305,34.17,0.08,-1.83,4.20,-0.94,0.03,-0.62,0.92,-1.13,3.14,170.00,671.00,834.00,1457.00,1984.00,4095.00,462.00,1648.00,,,,,,,,,,,,1,0,0,,96,16424,184,-542,-388,34
34.346,34.23,0.10,-7.27,16.20,-2.66,4.09,0.51,-0.76,3.91,-2.27,98.00,603.00,691.00,1399.00,2128.00,4095.00,565.00,1561.00,,,,,,,,,,,,1,0,0,,56,16492,464,-596,-203,-240
34.408,34.28,0.12,9.44,-3.84,4.37,-2.06,0.51,-0.76,0.98,-0.69,214.00,533.00,848.00,1249.00,2128.00,4095.00,547.00,1680.00,,,,,,,,,,,,1,0,0,,20,16320,412,-338,13,-227
34.47,34.34,0.06,1.42,1.05,0.45,-0.74,-0.98,1.44,-2.59,4.96,190.00,642.00,848.00,1408.00,1941.00,4095.00,430.00,1663.00,,,,,,,,,,,,1,0,0,,-124,16240,360,-248,-21,-323
34.613,34.39,0.08,-13.53,24.52,-3.38,4.57,0.29,-0.43,3.40,-1.47,70.00,618.00,682.00,1421.00,2099.00,4095.00,546.00,1559.00,,,,,,,,,,,,1,0,0,,-168,16288,492,-393,105,-193
34.634,34.45,0.11,9.23,-1.96,3.71,-1.06,0.72,-1.06,2.53,-2.26,194.00,511.00,813.00,1248.00,2155.00,4095.00,579.00,1648.00,,,,,,,,,,,,1,0,0,,-248,16372,352,-270,107,-250
34.654,34.50,0.10,7.75,-6.44,3.54,-3.27,0.02,-0.03,-0.55,1.08,254.00,611.00,919.00,1333.00,2064.00,4095.00,511.00,1702.00,,,,,,,,,,,,1,0,0,,-160,16240,272,-248,-158,-201
34.695,34.56,0.09,-3.29,5.58,-1.76,1.22,-0.13,0.19,0.58,0.70,162.00,685.00,794.00,1458.00,2045.00,4095.00,511.00,1644.00,,,,,,,,,,,,1,0,0,,-256,16304,368,-266,-282,-209
34.775,34.61,0.13,1.83,3.41,0.18,1.25,0.79,-1.17,4.00,-3.53,166.00,593.00,765.00,1349.00,2165.00,4095.00,604.00,1609.00,,,,,,,,,,,,1,0,0,,-224,16296,392,-144,-160,-170
34.816,34.67,0.13,12.58,-10.26,5.33,-4.37,0.23,-0.34,-0.41,0.29,286.00,559.00,944.00,1279.00,2091.00,4095.00,532.00,1729.00,,,,,,,,,,,,1,0,0,,-148,16264,612,-302,47,-98
34.836,34.72,0.08,-3.56,5.22,-1.48,0.59,-0.80,1.19,-1.01,3.10,166.00,699.00,817.00,1466.00,1962.00,4095.00,462.00,1642.00,,,,,,,,,,,,1,0,0,,-192,16256,516,-348,129,-50
34.898,34.78,0.10,-5.26,13.06,-1.93,3.76,0.41,-0.61,3.74,-2.05,112.00,606.00,694.00,1371.00,2115.00,4095.00,560.00,1562.00,,,,,,,,,,,,1,0,0,,-188,16436,368,-52,-40,-137
34.961,34.83,0.12,9.82,-4.06,4.59,-2.03,0.40,-0.59,0.92,-0.46,215.00,528.00,843.00,1237.00,2113.00,4095.00,541.00,1674.00,,,,,,,,,,,,1,0,0,,-176,16256,464,-2,-274,-134
35.023,34.89,0.07,2.75,-0.62,0.94,-0.91,-0.88,1.30,-0.94,2.53,203.00,637.00,848.00,1387.00,1953.00,4095.00,476.00,1663.00,,,,,,,,,,,,1,0,0,,-140,16244,436,-66,-250,22
35.084,34.94,0.08,-15.30,26.77,-3.97,5.48,0.32,-0.47,3.51,-1.54,64.00,624.00,656.00,1419.00,2103.00,4095.00,547.00,1555.00,,,,,,,,,,,,1,0,0,,-100,16372,512,271,-6,40
35.125,35.00,0.11,10.48,-2.85,3.93,-1.22,0.73,-1.08,2.00,-1.56,199.00,498.00,817.00,1243.00,2157.00,4095.00,563.00,1652.00,,,,,,,,,,,,1,0,0,,16,16352,680,341,316,46
35.165,35.05,0.11,6.62,-4.78,2.66,-2.77,0.03,-0.04,-0.79,1.20,237.00,611.00,909.00,1362.00,2065.00,4095.00,510.00,1713.00,,,,,,,,,,,,1,0,0,,-16,16388,296,515,395,-39
35.227,35.10,0.10,-3.11,5.86,-2.25,1.10,0.04,-0.06,0.90,-0.01,159.00,675.00,806.00,1491.00,2067.00,4095.00,528.00,1655.00,,,,,,,,,,,,1,0,0,,36,16220,80,518,9,-167
35.328,35.16,0.16,2.46,2.54,-0.25,0.87,1.29,-1.91,3.30,-3.24,172.00,592.00,787.00,1386.00,2233.00,4095.00,602.00,1641.00,,,,,,,,,,,,1,0,0,,-28,16320,-64,382,-330,-191
35.348,35.22,0.17,10.40,-8.80,4.44,-4.28,0.34,-0.50,-0.95,0.44,275.00,586.00,955.00,1322.00,2105.00,4095.00,533.00,1759.00,,,,,,,,,,,,1,0,0,,-16,16244,196,304,-242,-92
35.39,35.27,0.14,-3.63,4.81,-2.38,0.61,-0.45,0.67,-1.34,2.74,170.00,709.00,830.00,1519.00,2005.00,4095.00,474.00,1680.00,,,,,,,,,,,,1,0,0,,-72,16580,-8,462,-15,-89
35.452,35.33,0.16,-4.34,12.26,-2.37,3.30,0.49,-0.72,3.66,-2.38,115.00,597.00,717.00,1412.00,2125.00,4095.00,571.00,1581.00,,,,,,,,,,,,1,0,0,,-40,16096,-76,533,13,-88
35.513,35.38,0.17,10.85,-4.06,4.31,-2.00,0.39,-0.58,1.19,-1.03,211.00,507.00,846.00,1250.00,2112.00,4095.00,555.00,1681.00,,,,,,,,,,,,1,0,0,,0,16392,-388,508,-226,6
35.576,35.44,0.12,0.89,2.54,0.80,-0.84,-0.89,1.32,-2.12,4.04,177.00,630.00,847.00,1392.00,1951.00,4095.00,448.00,1673.00,,,,,,,,,,,,1,0,0,,120,16488,-496,470,-547,-51
35.618,35.49,0.13,-13.92,25.46,-3.23,4.65,0.32,-0.47,3.85,-2.25,67.00,612.00,677.00,1409.00,2103.00,4095.00,565.00,1564.00,,,,,,,,,,,,1,0,0,,72,16244,-304,302,-828,-44
35.7,35.55,0.15,10.97,-2.74,4.42,-1.41,0.51,-0.75,1.61,-1.33,196.00,487.00,818.00,1225.00,2127.00,4095.00,560.00,1667.00,,,,,,,,,,,,1,0,0,,56,16148,76,-186,-580,113
35.721,35.60,0.11,5.28,-3.04,2.19,-2.26,-0.50,0.74,-0.98,1.78,221.00,615.00,892.00,1369.00,1999.00,4095.00,496.00,1699.00,,,,,,,,,,,,1,0,0,,96,16428,0,-121,-92,5
35.782,35.66,0.11,-4.45,7.89,-2.63,1.86,0.02,-0.03,1.08,-0.14,146.00,674.00,779.00,1483.00,2064.00,4095.00,530.00,1649.00,,,,,,,,,,,,1,0,0,,184,16304,-44,278,72,-2
35.823,35.71,0.16,3.34,2.14,0.18,0.91,1.07,-1.59,3.43,-3.13,173.00,578.00,779.00,1361.00,2203.00,4095.00,597.00,1628.00,,,,,,,,,,,,1,0,0,,120,16568,-464,217,-54,-325
35.908,35.77,0.16,10.00,-7.63,4.09,-3.93,0.18,-0.27,-0.18,-0.02,260.00,577.00,943.00,1328.00,2085.00,4095.00,539.00,1728.00,,,,,,,,,,,,1,0,0,,24,16264,-468,14,-297,-397
35.928,35.82,0.11,-4.55,6.58,-2.43,0.80,-0.74,1.09,-1.36,3.14,157.00,701.00,822.00,1514.00,1970.00,4095.00,464.00,1663.00,,,,,,,,,,,,1,0,0,,84,16280,-248,-249,-151,-26
35.99,35.88,0.15,-4.99,13.47,-2.36,3.67,0.87,-1.29,4.20,-3.29,109.00,593.00,703.00,1398.00,2176.00,4095.00,594.00,1586.00,,,,,,,,,,,,1,0,0,,-28,16516,-244,-406,356,-179
36.053,35.93,0.17,8.47,-2.90,4.22,-1.99,0.43,-0.63,0.71,-0.50,207.00,540.00,847.00,1254.00,2117.00,4095.00,544.00,1689.00,,,,,,,,,,,,1,0,0,,44,16468,-488,-51,362,-226
36.135,35.99,0.11,-0.13,2.37,0.16,-0.71,-0.97,1.43,-2.30,4.48,182.00,659.00,851.00,1423.00,1942.00,4095.00,439.00,1665.00,,,,,,,,,,,,1,0,0,,-44,16432,-644,271,-183,-462
36.155,36.04,0.12,-11.11,22.68,-3.27,4.37,0.36,-0.53,4.05,-2.64,74.00,590.00,688.00,1422.00,2108.00,4095.00,575.00,1568.00,,,,,,,,,,,,1,0,0,,-148,16176,-384,-60,-580,-649
36.215,36.10,0.15,11.53,-3.48,4.15,-1.52,0.68,-1.00,1.21,-1.30,202.00,486.00,827.00,1242.00,2150.00,4095.00,563.00,1692.00,,,,,,,,,,,,1,0,0,,-248,16208,-120,-193,-241,-275
36.278,36.15,0.11,2.94,-0.13,1.50,-1.86,-0.58,0.86,-1.43,2.57,197.00,624.00,884.00,1392.00,1989.00,4095.00,479.00,1693.00,,,,,,,,,,,,1,0,0,,-68,16456,-192,-174,409,-72
36.341,36.21,0.11,-4.02,7.37,-3.40,1.95,0.10,-0.15,1.18,-0.24,149.00,672.00,786.00,1525.00,2075.00,4095.00,532.00,1647.00,,,,,,,,,,,,1,0,0,,-48,16244,-368,-279,528,-66
36.446,36.26,0.15,3.35,1.61,0.05,0.84,0.96,-1.41,3.09,-2.70,178.00,586.00,784.00,1371.00,2187.00,4095.00,587.00,1631.00,,,,,,,,,,,,1,0,0,,-44,16468,-384,-359,300,-278
36.468,36.32,0.15,8.91,-7.47,4.23,-3.99,0.13,-0.19,-0.07,0.01,263.00,600.00,944.00,1323.00,2078.00,4095.00,537.00,1719.00,,,,,,,,,,,,1,0,0,,-100,16416,-248,-315,175,-318
36.488,36.37,0.11,-4.02,5.37,-2.34,0.88,-0.75,1.11,-0.62,2.49,166.00,709.00,817.00,1505.00,1968.00,4095.00,474.00,1643.00,,,,,,,,,,,,1,0,0,,-12,16432,-348,-20,21,-270
36.55,36.42,0.15,-4.12,12.19,-1.68,3.31,0.94,-1.39,5.01,-3.84,115.00,593.00,708.00,1374.00,2185.00,4095.00,603.00,1559.00,,,,,,,,,,,,1,0,0,,-120,16344,-408,57,-118,-259
36.611,36.48,0.15,9.97,-4.28,4.93,-2.53,0.19,-0.28,1.22,-0.80,217.00,528.00,861.00,1237.00,2086.00,4095.00,548.00,1669.00,,,,,,,,,,,,1,0,0,,-188,16368,-416,-38,-104,-385
36.651,36.53,0.10,0.51,2.56,0.55,-0.47,-0.94,1.38,-1.55,4.06,178.00,639.00,834.00,1392.00,1946.00,4095.00,443.00,1635.00,,,,,,,,,,,,1,0,0,,-144,16328,-284,-84,-32,-178
36.713,36.59,0.10,-8.40,17.75,-2.95,4.56,0.13,-0.19,4.60,-2.57,92.00,605.00,677.00,1397.00,2078.00,4095.00,567.00,1531.00,,,,,,,,,,,,1,0,0,,-116,16320,-88,-175,231,-139
36.795,36.65,0.12,11.26,-3.39,5.11,-1.85,0.48,-0.70,1.82,-1.17,202.00,490.00,827.00,1206.00,2123.00,4095.00,553.00,1646.00,,,,,,,,,,,,1,0,0,,-140,16512,-284,-57,367,-296
36.815,36.70,0.06,3.13,0.19,1.51,-1.63,-0.97,1.43,-1.73,3.67,193.00,614.00,873.00,1383.00,1942.00,4095.00,454.00,1664.00,,,,,,,,,,,,1,0,0,,-288,16332,-380,-140,55,-472
36.877,36.76,0.06,-8.79,14.25,-3.55,3.09,-0.05,0.08,1.80,-0.45,112.00,675.00,741.00,1488.00,2055.00,4095.00,532.00,1616.00,,,,,,,,,,,,1,0,0,,-340,16216,-112,-168,-128,-336
36.939,36.81,0.10,3.64,0.80,-0.02,0.87,0.87,-1.29,3.28,-2.64,185.00,592.00,784.00,1374.00,2176.00,4095.00,583.00,1616.00,,,,,,,,,,,,1,0,0,,-260,16440,-156,-29,127,-28
36.981,36.87,0.10,9.09,-7.18,3.58,-3.46,0.10,-0.14,0.65,-0.44,258.00,591.00,928.00,1338.00,2074.00,4095.00,543.00,1691.00,,,,,,,,,,,,1,0,0,,-288,16256,-480,231,225,-3
37.042,36.92,0.06,-3.45,4.74,-2.56,0.87,-0.58,0.86,0.02,1.78,170.00,705.00,821.00,1519.00,1989.00,4095.00,487.00,1633.00,,,,,,,,,,,,1,0,0,,-220,16440,-516,58,75,93
37.084,36.98,0.12,-2.96,10.40,-2.31,3.55,1.14,-1.68,4.87,-3.55,124.00,594.00,707.00,1400.00,2212.00,4095.00,595.00,1555.00,,,,,,,,,,,,1,0,0,,-188,16384,-388,-397,83,-2
37.167,37.03,0.13,10.73,-7.59,4.75,-3.53,0.27,-0.39,1.19,-0.28,256.00,560.00,912.00,1280.00,2096.00,4095.00,533.00,1648.00,,,,,,,,,,,,1,0,0,,-84,16264,-284,-621,396,134
37.228,37.09,0.07,0.09,3.02,-0.07,-0.52,-0.89,1.32,-2.24,4.84,175.00,642.00,846.00,1429.00,1951.00,4095.00,430.00,1645.00,,,,,,,,,,,,1,0,0,,-96,16448,-20,-597,899,239
37.248,37.14,0.09,-7.16,15.42,-3.19,4.26,0.34,-0.50,4.58,-2.30,102.00,613.00,691.00,1422.00,2105.00,4095.00,559.00,1521.00,,,,,,,,,,,,1,0,0,,100,16400,-252,-226,829,-88
37.311,37.20,0.11,12.34,-4.29,4.71,-2.04,0.47,-0.69,1.98,-1.12,208.00,481.00,842.00,1232.00,2122.00,4095.00,550.00,1634.00,,,,,,,,,,,,1,0,0,,108,16576,-280,-40,205,86
37.373,37.25,0.05,2.43,0.61,1.62,-1.48,-1.00,1.48,-1.50,4.25,191.00,624.00,864.00,1371.00,1938.00,4095.00,438.00,1623.00,,,,,,,,,,,,1,0,0,,116,16384,36,368,-41,-109
37.456,37.31,0.04,-10.95,19.01,-3.44,3.74,-0.20,0.29,2.31,-0.48,90.00,647.00,714.00,1456.00,2037.00,4095.00,528.00,1585.00,,,,,,,,,,,,1,0,0,,180,16428,-36,668,147,-154
37.517,37.36,0.08,5.03,0.23,0.79,0.52,0.83,-1.22,3.44,-2.40,186.00,569.00,787.00,1343.00,2170.00,4095.00,574.00,1596.00,,,,,,,,,,,,1,0,0,,-4,16432,-368,655,149,-208
37.537,37.42,0.07,9.21,-6.78,3.95,-3.72,-0.12,0.18,0.70,0.06,252.00,582.00,935.00,1328.00,2046.00,4095.00,528.00,1665.00,,,,,,,,,,,,1,0,0,,-40,16280,-684,722,108,-388
37.6,37.47,0.03,-3.24,5.56,-2.35,1.30,-0.61,0.89,0.23,2.09,162.00,684.00,799.00,1489.00,1986.00,4095.00,477.00,1606.00,,,,,,,,,,,,1,0,0,,-100,16368,-936,508,-118,-349
37.661,37.53,0.08,-1.76,9.85,-1.20,3.07,0.87,-1.29,5.87,-4.31,125.00,575.00,711.00,1357.00,2176.00,4095.00,609.00,1526.00,,,,,,,,,,,,1,0,0,,-328,16300,-888,-32,-106,-400
37.723,37.58,0.07,13.59,-9.19,5.66,-4.02,0.02,-0.03,1.82,-1.00,265.00,522.00,921.00,1251.00,2064.00,4095.00,548.00,1639.00,,,,,,,,,,,,1,0,0,,-240,16316,-736,-72,124,-318
37.763,37.64,0.01,1.05,3.01,0.66,-0.68,-1.13,1.67,-1.61,4.63,172.00,618.00,842.00,1394.00,1923.00,4095.00,430.00,1614.00,,,,,,,,,,,,1,0,0,,-204,16428,-716,11,279,-187
37.804,37.69,0.02,-8.02,18.44,-2.68,4.15,0.10,-0.14,5.13,-2.72,88.00,585.00,689.00,1398.00,2074.00,4095.00,566.00,1505.00,,,,,,,,,,,,1,0,0,,-16,16212,-636,-96,518,-236
37.905,37.75,0.03,12.68,-4.41,4.94,-1.97,0.28,-0.42,1.89,-1.30,208.00,476.00,835.00,1218.00,2098.00,4095.00,556.00,1647.00,,,,,,,,,,,,1,0,0,,-104,16400,-548,-62,618,-171
37.926,37.80,-0.03,3.31,-0.44,1.42,-1.46,-1.11,1.64,-0.93,2.95,199.00,620.00,866.00,1381.00,1925.00,4095.00,465.00,1643.00,,,,,,,,,,,,1,0,0,,-152,16388,-628,5,558,-230
37.968,37.85,-0.03,-11.45,19.80,-3.48,3.81,-0.03,0.04,2.81,-1.57,87.00,646.00,712.00,1456.00,2058.00,4095.00,555.00,1600.00,,,,,,,,,,,,1,0,0,,-192,16288,-944,-214,308,-116
38.03,37.91,0.02,4.32,0.37,1.06,-0.08,0.90,-1.32,3.54,-2.95,187.00,583.00,809.00,1350.00,2179.00,4095.00,590.00,1613.00,,,,,,,,,,,,1,0,0,,-108,16480,-708,-173,29,-286
38.092,37.97,0.02,8.97,-7.07,3.46,-3.70,0.03,-0.04,0.63,-0.12,257.00,592.00,942.00,1353.00,2065.00,4095.00,534.00,1678.00,,,,,,,,,,,,1,0,0,,-196,16296,-888,-30,-187,-389
38.153,38.02,-0.01,-3.45,4.74,-2.98,1.14,-0.52,0.76,0.27,1.40,170.00,705.00,815.00,1533.00,1997.00,4095.00,495.00,1634.00,,,,,,,,,,,,1,0,0,,-172,16128,-884,-33,-331,-236
38.236,38.08,0.05,-0.70,6.88,-1.23,2.17,1.05,-1.54,5.62,-4.17,144.00,597.00,747.00,1392.00,2199.00,4095.00,607.00,1535.00,,,,,,,,,,,,1,0,0,,-256,16592,-456,-192,2,-270
38.257,38.13,0.05,12.78,-9.33,5.10,-3.99,0.10,-0.14,1.61,-0.70,271.00,541.00,929.00,1278.00,2074.00,4095.00,541.00,1639.00,,,,,,,,,,,,1,0,0,,-292,16316,-624,-169,262,-406
38.32,38.19,-0.02,0.54,2.76,0.03,-0.21,-1.37,2.02,-1.11,4.08,176.00,635.00,830.00,1411.00,1895.00,4095.00,439.00,1606.00,,,,,,,,,,,,1,0,0,,-344,16396,-776,-29,207,-264
38.361,38.24,-0.02,-7.05,15.94,-2.73,4.43,0.07,-0.10,4.98,-2.47,99.00,602.00,679.00,1390.00,2070.00,4095.00,560.00,1504.00,,,,,,,,,,,,1,0,0,,-224,16340,-764,-106,17,-167
38.421,38.30,-0.01,11.66,-4.07,5.42,-2.17,0.16,-0.23,2.07,-0.78,208.00,491.00,837.00,1202.00,2082.00,4095.00,539.00,1613.00,,,,,,,,,,,,1,0,1,,-376,16352,-556,-221,10,-182
38.506,38.35,-0.07,3.05,-0.35,1.97,-1.66,-1.30,1.92,-1.01,3.88,199.00,625.00,867.00,1359.00,1903.00,4095.00,443.00,1608.00,,,,,,,,,,,,1,0,1,,-248,16344,-592,-49,187,-126
38.548,38.41,-0.08,-11.59,20.06,-3.17,4.10,-0.24,0.35,3.72,-1.37,86.00,645.00,697.00,1427.00,2032.00,4095.00,540.00,1535.00,,,,,,,,,,,,1,0,1,,-212,16352,-688,152,252,-41
38.631,38.46,-0.04,4.39,0.85,1.24,-0.09,0.67,-0.99,4.07,-2.68,182.00,574.00,807.00,1341.00,2149.00,4095.00,576.00,1568.00,,,,,,,,,,,,1,0,1,,-204,16324,-768,180,184,23
38.652,38.52,-0.05,8.80,-7.43,3.99,-3.70,-0.23,0.34,1.60,-0.24,263.00,602.00,933.00,1325.00,2033.00,4095.00,528.00,1620.00,,,,,,,,,,,,1,0,1,,-248,16256,-776,188,157,-143
38.693,38.57,-0.08,-2.14,3.66,-1.55,0.39,-0.58,0.86,0.52,2.23,176.00,689.00,827.00,1478.00,1989.00,4095.00,471.00,1582.00,,,,,,,,,,,,1,0,1,,-272,16412,-1196,285,-348,-243
38.776,38.63,-0.03,-1.11,7.81,-0.57,1.94,0.87,-1.29,6.29,-4.00,138.00,592.00,747.00,1364.00,2176.00,4095.00,594.00,1488.00,,,,,,,,,,,,1,0,1,,-84,16016,-512,-328,-287,73
38.798,38.68,-0.03,12.72,-9.51,5.73,-4.24,0.04,-0.06,2.22,-0.69,274.00,545.00,931.00,1255.00,2067.00,4095.00,535.00,1600.00,,,,,,,,,,,,1,0,1,,236,16900,-812,679,293,1250
38.86,38.74,-0.08,0.98,1.30,0.73,-0.73,-1.10,1.63,-1.25,4.42,189.00,649.00,843.00,1392.00,1926.00,4095.00,432.00,1600.00,,,,,,,,,,,,1,0,1,,-16,16920,-1044,1089,340,-450
38.922,38.79,-0.07,-6.62,15.06,-2.50,3.87,0.07,-0.10,5.38,-2.64,103.00,606.00,697.00,1398.00,2070.00,4095.00,561.00,1487.00,,,,,,,,,,,,1,0,1,,-520,16148,-580,83,935,-1816
39.024,38.85,-0.05,8.82,-0.03,3.79,-0.63,0.38,-0.55,2.41,-1.24,176.00,493.00,793.00,1230.00,2110.00,4095.00,549.00,1611.00,,,,,,,,,,,,1,0,1,,-772,16168,-608,-663,2363,-644
39.045,38.90,-0.11,3.74,-0.95,1.43,-1.44,-1.15,1.70,-1.13,4.13,203.00,618.00,865.00,1380.00,1920.00,4095.00,438.00,1605.00,,,,,,,,,,,,1,0,1,,-628,16112,-476,-264,3506,-90
39.086,38.96,-0.11,-10.54,19.93,-3.62,4.14,-0.13,0.19,3.55,-1.79,85.00,621.00,701.00,1451.00,2045.00,4095.00,554.00,1563.00,,,,,,,,,,,,1,0,1,,-440,16036,-1232,1280,3975,766
39.146,39.01,-0.06,3.80,2.63,0.59,0.61,0.91,-1.35,3.81,-2.91,167.00,560.00,786.00,1350.00,2181.00,4095.00,586.00,1594.00,,,,,,,,,,,,1,0,1,,124,15956,-1404,1267,3486,1868
39.209,39.07,-0.05,9.31,-6.67,4.14,-4.18,0.01,-0.02,1.31,-0.46,250.00,578.00,955.00,1334.00,2063.00,4095.00,537.00,1648.00,,,,,,,,,,,,1,0,1,,616,16920,-1940,642,2392,958
39.249,39.12,-0.09,-3.72,5.72,-2.55,0.98,-0.74,1.09,1.04,0.99,162.00,694.00,816.00,1514.00,1970.00,4095.00,499.00,1602.00,,,,,,,,,,,,1,0,1,,604,16564,-2396,-217,429,-11
39.353,39.17,-0.04,0.30,7.33,-1.09,2.44,0.91,-1.35,6.45,-4.96,138.00,567.00,734.00,1374.00,2181.00,4095.00,624.00,1517.00,,,,,,,,,,,,1,0,1,,480,16704,-2028,-204,-1261,-587
39.374,39.23,-0.04,13.88,-9.83,7.17,-5.04,0.02,-0.03,1.73,-1.07,273.00,525.00,947.00,1211.00,2064.00,4095.00,551.00,1648.00,,,,,,,,,,,,1,0,1,,68,16924,-1580,401,-1830,-1620
39.416,39.28,-0.10,1.20,2.43,0.85,-0.61,-1.41,2.08,-1.15,3.92,177.00,624.00,836.00,1381.00,1890.00,4095.00,443.00,1615.00,,,,,,,,,,,,1,0,1,,100,16080,-1364,-108,-1270,-656
39.457,39.34,-0.10,-9.06,20.55,-2.64,4.57,0.02,-0.03,5.47,-3.63,80.00,576.00,673.00,1380.00,2064.00,4095.00,591.00,1522.00,,,,,,,,,,,,1,0,1,,-176,16264,-1856,88,-1361,-753
39.519,39.40,-0.08,13.12,-4.11,6.16,-2.42,0.29,-0.43,1.99,-1.82,203.00,464.00,837.00,1175.00,2099.00,4095.00,571.00,1664.00,,,,,,,,,,,,1,0,1,,-324,16028,-1640,79,-1364,-296
39.56,39.45,-0.14,4.30,-0.30,2.35,-2.09,-1.29,1.90,-1.04,2.60,194.00,594.00,881.00,1354.00,1904.00,4095.00,475.00,1666.00,,,,,,,,,,,,1,0,1,,-248,15764,-1224,-710,-990,6
39.643,39.51,-0.15,-12.57,23.17,-3.75,4.53,-0.27,0.39,3.35,-2.44,74.00,617.00,688.00,1443.00,2028.00,4095.00,576.00,1603.00,,,,,,,,,,,,1,0,1,,-212,16956,-1372,-707,-90,-93
39.684,39.56,-0.09,6.58,-0.39,1.26,0.41,0.95,-1.40,3.19,-3.17,187.00,544.00,785.00,1322.00,2186.00,4095.00,601.00,1645.00,,,,,,,,,,,,1,0,1,,-204,16628,-1704,619,-153,-634
39.724,39.62,-0.10,9.03,-7.16,5.38,-5.24,-0.20,0.29,1.07,-1.83,258.00,592.00,989.00,1307.00,2037.00,4095.00,581.00,1726.00,,,,,,,,,,,,1,0,1,,-456,15960,-1396,254,134,-720
