Time_Host,Time_Arduino,easingdata,CH1_Oxy,CH1_Deoxy,CH2_Oxy,CH2_Deoxy,CH3_Oxy,CH3_Deoxy,CH4_Oxy,CH4_Deoxy,CH1_PD730,CH1_PD850,CH2_PD730,CH2_PD850,CH3_PD730,CH3_PD850,CH4_PD730,CH4_PD850,Answers,airplane_playstate,trail_times,frameRate,Airplane X,Airplane Y,Correct,Wrong,Slow,AnswerRate,CorrectRate,VFTstates,VFTchoose,VFTCount,Culfstates,ax,ay,az,gx,gy,gz
1.114,0.04,0.00,0.00,0.00,0.00,0.00,0.00,0.00,0.00,0.00,256.00,419.00,442.00,329.00,654.00,1201.00,360.00,433.00,,,,,,,,,,,,0,0,0,,-4368,15880,-1108,202,306,-46
1.136,0.10,0.00,0.00,0.00,0.00,0.00,0.00,0.00,0.00,0.00,233.00,425.00,421.00,333.00,624.00,1178.00,384.00,382.00,,,,,,,,,,,,0,0,0,,-4224,15968,-940,83,202,-39
1.155,0.15,0.00,0.00,0.00,0.00,0.00,0.00,0.00,0.00,0.00,200.00,400.00,358.00,338.00,751.00,1101.00,446.00,389.00,,,,,,,,,,,,0,0,0,,-4172,15656,-1008,126,75,-308
1.176,0.21,0.00,0.00,0.00,0.00,0.00,0.00,0.00,0.00,0.00,304.00,369.00,560.00,252.00,682.00,1277.00,387.00,462.00,,,,,,,,,,,,0,0,0,,-4356,15668,-1076,187,149,-270
1.196,0.26,0.00,0.00,0.00,0.00,0.00,0.00,0.00,0.00,0.00,231.00,496.00,458.00,432.00,575.00,1205.00,354.00,418.00,,,,,,,,,,,,0,0,0,,-4312,15776,-1168,-12,209,-398
1.216,1.05,0.00,0.00,0.00,0.00,0.00,0.00,0.00,0.00,0.00,188.00,434.00,389.00,384.00,691.00,1157.00,439.00,389.00,,,,,,,,,,,,0,0,0,,-3908,15484,-2024,87,435,-122
1.237,1.11,0.00,0.00,0.00,0.00,0.00,0.00,0.00,0.00,0.00,234.00,410.00,407.00,353.00,704.00,1142.00,458.00,435.00,,,,,,,,,,,,0,0,0,,-3960,15324,-1796,-714,-120,-434
1.279,1.16,0.00,0.00,0.00,0.00,0.00,0.00,0.00,0.00,0.00,256.00,405.00,464.00,290.00,667.00,1215.00,400.00,468.00,,,,,,,,,,,,0,0,0,,-4108,15860,-1500,-1684,-328,-373
1.361,1.22,0.00,0.00,0.00,0.00,0.00,0.00,0.00,0.00,0.00,220.00,482.00,432.00,432.00,596.00,1169.00,402.00,422.00,,,,,,,,,,,,0,0,0,,-4292,15780,-1272,-1952,-905,-598
1.403,1.27,0.00,0.00,0.00,0.00,0.00,0.00,0.00,0.00,0.00,183.00,409.00,334.00,354.00,753.00,1067.00,510.00,400.00,,,,,,,,,,,,0,0,0,,-4432,15700,-692,-2471,-1253,-511
1.445,1.33,-0.12,11.53,-9.35,15.36,-8.93,-2.36,0.70,-5.06,1.39,310.00,346.00,523.00,242.00,673.00,1262.00,421.00,494.00,,,,,,,,,,,,0,0,0,,-4268,15608,-420,-858,-114,529
1.505,1.38,-0.28,-7.55,2.82,-8.93,2.56,-3.37,4.47,-5.42,4.66,227.00,531.00,437.00,465.00,559.00,1187.00,355.00,459.00,,,,,,,,,,,,0,0,0,,-3984,16052,-824,275,737,1216
1.588,1.44,-0.07,-8.74,12.28,-7.10,7.87,3.91,-3.43,4.77,-3.71,139.00,432.00,317.00,375.00,751.00,1100.00,464.00,384.00,,,,,,,,,,,,0,0,0,,-4016,16560,-1312,1161,605,809
1.608,1.49,-0.12,8.06,-7.82,7.27,-5.01,-1.01,-0.40,-2.21,-0.71,304.00,381.00,490.00,300.00,697.00,1232.00,448.00,467.00,,,,,,,,,,,,0,0,0,,-3980,16268,-1584,1528,116,-516
1.671,1.55,-0.25,-2.93,0.24,-1.79,-0.55,-2.83,2.29,-5.90,4.26,240.00,474.00,454.00,381.00,623.00,1232.00,366.00,473.00,,,,,,,,,,,,0,0,0,,-4088,15624,-1420,1627,102,-845
1.753,1.60,-0.35,-4.20,4.22,-5.44,3.20,-2.13,1.55,-0.02,-0.26,198.00,448.00,396.00,398.00,640.00,1222.00,420.00,423.00,,,,,,,,,,,,0,0,0,,-4052,15484,-1532,1090,195,-490
1.773,1.66,-0.27,-1.38,1.24,-3.52,2.79,1.11,-1.63,0.12,-1.50,221.00,434.00,391.00,373.00,717.00,1171.00,448.00,435.00,,,,,,,,,,,,0,0,0,,-4080,15548,-1516,761,302,-136
1.834,1.71,-0.39,4.66,-4.63,15.87,-7.79,-2.65,0.77,-13.85,5.48,272.00,400.00,487.00,230.00,674.00,1274.00,396.00,627.00,,,,,,,,,,,,0,0,0,,-4020,15764,-1616,195,66,-111
1.895,1.77,-0.50,-4.49,1.15,-7.24,2.20,-2.58,3.59,-1.78,1.99,235.00,492.00,432.00,439.00,578.00,1178.00,384.00,427.00,,,,,,,,,,,,0,0,0,,-4156,15936,-1568,-207,-118,-254
2.019,1.82,-0.21,-3.54,6.28,-4.41,6.05,5.32,-3.81,4.52,-3.35,175.00,413.00,333.00,354.00,747.00,1051.00,457.00,384.00,,,,,,,,,,,,0,0,0,,-4064,15856,-1768,213,78,-387
2.04,1.88,-0.34,13.85,-10.89,17.94,-10.18,-2.77,0.92,-5.33,1.26,323.00,329.00,534.00,226.00,670.00,1275.00,426.00,501.00,,,,,,,,,,,,0,0,0,,-4096,15744,-1796,337,215,-181
2.061,1.93,-0.51,-7.25,2.89,-8.62,2.58,-3.70,4.65,-6.30,5.65,225.00,524.00,434.00,459.00,557.00,1197.00,342.00,463.00,,,,,,,,,,,,0,0,0,,-4068,15856,-1888,63,305,-75
2.103,1.99,-0.35,-5.29,7.19,-5.27,5.26,2.57,-2.12,3.57,-2.62,172.00,432.00,353.00,374.00,717.00,1120.00,447.00,391.00,,,,,,,,,,,,0,0,0,,-4108,15468,-1900,-211,240,-55
2.166,2.04,-0.36,8.24,-6.69,6.87,-3.67,-0.45,-0.21,-1.96,-0.76,285.00,367.00,459.00,294.00,683.00,1199.00,447.00,463.00,,,,,,,,,,,,0,0,0,,-3964,15792,-1952,63,96,-55
2.229,2.10,-0.44,-0.83,-1.00,0.06,-1.38,-2.04,1.12,-5.52,3.54,247.00,451.00,459.00,362.00,654.00,1232.00,378.00,475.00,,,,,,,,,,,,0,0,0,,-4104,15900,-2012,53,-72,-235
2.331,2.15,-0.51,-1.50,-0.01,-3.67,0.49,-1.85,1.60,-0.71,0.24,237.00,451.00,444.00,399.00,635.00,1207.00,414.00,429.00,,,,,,,,,,,,0,0,0,,-4104,15760,-1840,183,-96,-339
2.351,2.21,-0.37,-1.59,2.17,-3.76,3.64,2.25,-2.60,0.80,-2.33,211.00,427.00,375.00,368.00,740.00,1149.00,463.00,433.00,,,,,,,,,,,,0,0,0,,-4096,15580,-1904,-206,-118,-197
2.393,2.26,-0.53,7.54,-8.30,10.19,-7.41,-3.52,0.77,-5.82,2.36,315.00,394.00,529.00,285.00,685.00,1319.00,405.00,496.00,,,,,,,,,,,,0,0,0,,-4120,15644,-1924,-765,53,-253
2.455,2.32,-0.73,-6.68,1.97,-8.35,1.78,-4.58,4.01,-3.68,2.92,234.00,525.00,451.00,464.00,586.00,1261.00,378.00,449.00,,,,,,,,,,,,0,0,0,,-4216,15752,-1784,-661,125,-284
2.517,2.37,-0.51,-6.74,8.22,-7.33,7.04,3.85,-4.58,4.49,-4.36,167.00,445.00,333.00,387.00,800.00,1137.00,483.00,395.00,,,,,,,,,,,,0,0,0,,-4176,15696,-1696,-391,-75,-195
2.557,2.43,-0.66,13.39,-12.84,14.01,-9.91,-3.51,0.50,-5.58,1.05,362.00,353.00,565.00,262.00,695.00,1328.00,433.00,509.00,,,,,,,,,,,,0,0,0,,-4116,15668,-1464,-402,-291,-196
2.639,2.48,-0.78,-4.93,0.76,-6.01,0.99,-3.06,2.79,-6.02,4.20,242.00,506.00,451.00,432.00,609.00,1227.00,368.00,476.00,,,,,,,,,,,,0,0,0,,-4156,15588,-1516,-265,-197,-218
2.701,2.54,-0.63,-3.62,4.98,-5.49,4.32,2.05,-1.56,3.07,-2.07,188.00,429.00,373.00,387.00,702.00,1126.00,438.00,393.00,,,,,,,,,,,,0,0,0,,-4152,15748,-1484,93,197,-38
2.721,2.59,-0.57,7.21,-5.28,5.35,-2.67,0.69,-1.08,-1.89,-0.70,269.00,368.00,447.00,304.00,701.00,1173.00,445.00,461.00,,,,,,,,,,,,0,0,0,,-4144,15672,-1648,-167,299,-187
2.783,2.65,-0.61,1.53,-2.09,3.65,-2.55,-1.40,0.32,-5.18,2.80,251.00,423.00,458.00,324.00,675.00,1227.00,391.00,478.00,,,,,,,,,,,,0,0,0,,-4208,15852,-1708,-679,25,-30
2.823,2.70,-0.69,-2.05,1.47,-4.03,1.04,-2.31,2.50,-1.27,1.06,221.00,443.00,434.00,399.00,610.00,1200.00,400.00,429.00,,,,,,,,,,,,0,0,0,,-4116,15900,-1348,-691,-80,64
2.885,2.76,-0.49,-0.43,1.60,-3.38,2.98,3.35,-3.34,1.14,-2.49,213.00,414.00,386.00,369.00,755.00,1122.00,464.00,429.00,,,,,,,,,,,,0,0,0,,-4044,15784,-1332,-402,25,-28
2.948,2.81,-0.61,9.54,-8.92,12.60,-8.39,-2.93,0.51,-5.57,1.92,314.00,370.00,534.00,266.00,687.00,1297.00,413.00,497.00,,,,,,,,,,,,0,0,0,,-4052,15956,-1236,-120,55,-84
3.008,2.87,-0.79,-5.19,1.00,-7.78,1.42,-4.16,4.25,-4.85,3.91,240.00,508.00,455.00,458.00,574.00,1232.00,366.00,458.00,,,,,,,,,,,,0,0,0,,-4032,15936,-1256,-114,180,-161
3.069,2.92,-0.54,-5.89,8.15,-7.60,7.24,4.28,-4.28,5.42,-4.67,165.00,431.00,331.00,389.00,781.00,1109.00,483.00,384.00,,,,,,,,,,,,0,0,0,,-4016,15868,-1392,-132,188,-227
3.111,2.98,-0.66,13.03,-11.67,12.50,-9.07,-2.88,0.05,-4.52,0.14,342.00,347.00,555.00,272.00,704.00,1311.00,446.00,500.00,,,,,,,,,,,,0,0,0,,-4016,15644,-1244,-204,68,-181
3.151,3.03,-0.80,-4.53,-0.20,-5.52,0.18,-3.62,2.20,-7.00,4.18,253.00,511.00,467.00,433.00,635.00,1274.00,375.00,495.00,,,,,,,,,,,,0,0,0,,-4004,15744,-1148,-155,-76,-56
3.212,3.09,-0.78,-5.56,5.25,-6.78,3.98,-0.27,-1.09,1.68,-1.77,192.00,460.00,389.00,411.00,714.00,1219.00,442.00,412.00,,,,,,,,,,,,0,0,0,,-4032,15860,-968,-222,130,-102
3.275,3.14,-0.79,2.68,-3.96,-0.24,-1.03,-1.03,-1.14,-1.85,-1.08,272.00,425.00,453.00,363.00,726.00,1258.00,454.00,465.00,,,,,,,,,,,,0,0,0,,-4012,15760,-1260,-88,397,33
3.336,3.20,-0.90,0.65,-2.51,2.50,-3.41,-3.07,0.35,-6.02,2.66,261.00,443.00,490.00,347.00,695.00,1310.00,400.00,496.00,,,,,,,,,,,,0,0,0,,-3952,15736,-1508,-163,217,-264
3.377,3.25,-1.00,-3.68,0.88,-6.19,1.26,-2.77,2.54,-1.89,1.04,235.00,480.00,446.00,432.00,614.00,1221.00,405.00,440.00,,,,,,,,,,,,0,0,0,,-4072,15848,-1456,-377,-75,-195
3.439,3.31,-0.78,-3.78,5.13,-5.13,4.96,3.40,-3.48,1.48,-2.64,187.00,430.00,358.00,375.00,760.00,1124.00,465.00,425.00,,,,,,,,,,,,0,0,0,,-4112,15680,-1196,-189,41,-128
3.521,3.36,-0.88,9.67,-8.90,11.90,-8.33,-2.78,0.36,-5.65,1.59,313.00,368.00,539.00,273.00,691.00,1295.00,421.00,503.00,,,,,,,,,,,,0,0,0,,-3888,15784,-1020,-287,195,-143
3.542,3.42,-1.05,-7.62,2.93,-9.13,2.20,-4.26,4.67,-5.63,4.17,226.00,531.00,447.00,473.00,562.00,1223.00,366.00,469.00,,,,,,,,,,,,0,0,0,,-4132,16012,-1264,-412,192,-113
3.604,3.47,-0.80,-8.98,12.63,-8.90,8.59,3.97,-3.81,4.31,-4.18,137.00,432.00,315.00,395.00,766.00,1109.00,480.00,396.00,,,,,,,,,,,,0,0,0,,-4056,15672,-1088,-250,104,-94
3.666,3.53,-0.85,10.41,-9.39,9.40,-6.50,-1.95,-0.55,-4.34,-0.12,317.00,362.00,511.00,287.00,715.00,1284.00,451.00,500.00,,,,,,,,,,,,0,0,0,,-4048,15908,-1024,-80,159,-117
3.748,3.58,-0.98,-4.01,0.15,-4.71,0.03,-3.46,2.41,-6.51,3.92,246.00,496.00,464.00,421.00,626.00,1259.00,377.00,489.00,,,,,,,,,,,,0,0,0,,-4016,15912,-1232,-193,145,-150
3.808,3.64,-0.96,-6.45,6.63,-6.98,4.10,-0.60,-0.30,0.79,-1.18,181.00,459.00,388.00,413.00,688.00,1209.00,435.00,420.00,,,,,,,,,,,,0,0,0,,-4016,15820,-1036,-340,84,-267
3.828,3.69,-0.92,-1.05,-0.00,-4.34,2.14,-0.05,-1.32,-1.64,-1.15,235.00,443.00,411.00,392.00,720.00,1216.00,454.00,462.00,,,,,,,,,,,,0,0,0,,-4096,15760,-1032,-303,25,-214
3.868,3.75,-1.04,1.33,-2.67,6.74,-4.72,-3.34,0.44,-5.96,2.05,260.00,433.00,487.00,304.00,695.00,1321.00,413.00,503.00,,,,,,,,,,,,0,0,0,,-4048,15836,-824,-222,52,-137
3.93,3.80,-1.21,-7.24,2.16,-9.81,2.43,-4.39,2.78,-3.41,1.46,234.00,534.00,447.00,483.00,624.00,1293.00,407.00,462.00,,,,,,,,,,,,0,0,0,,-3992,15956,-908,-69,186,-170
4.011,3.86,-1.05,-5.24,4.29,-8.36,6.05,2.03,-3.62,0.87,-2.87,201.00,466.00,358.00,414.00,785.00,1191.00,476.00,438.00,,,,,,,,,,,,0,0,0,,-3984,15816,-1064,23,210,-186
4.031,3.91,-1.23,7.16,-8.41,8.62,-7.49,-4.67,0.28,-7.61,1.78,319.00,401.00,547.00,304.00,718.00,1398.00,432.00,541.00,,,,,,,,,,,,0,0,0,,-4028,15892,-1040,107,140,-149
4.092,3.97,-1.49,-9.75,2.08,-12.56,2.75,-6.48,4.46,-7.63,4.74,246.00,591.00,462.00,534.00,592.00,1343.00,368.00,500.00,,,,,,,,,,,,0,0,0,,-4092,16176,-1272,26,201,-229
4.174,4.02,-1.31,-9.11,10.16,-10.22,7.19,2.16,-3.38,2.63,-3.54,157.00,464.00,348.00,432.00,773.00,1177.00,478.00,416.00,,,,,,,,,,,,0,0,0,,-3972,15704,-1136,-415,-17,-374
4.195,4.08,-1.33,6.74,-8.15,4.24,-4.76,-1.86,-0.71,-4.27,-0.67,317.00,405.00,511.00,336.00,720.00,1285.00,464.00,506.00,,,,,,,,,,,,0,0,0,,-4016,15680,-980,-62,-152,-345
4.255,4.13,-1.47,-4.34,0.72,-4.01,-0.29,-3.98,2.58,-7.63,4.59,240.00,495.00,466.00,413.00,626.00,1279.00,371.00,502.00,,,,,,,,,,,,0,0,0,,-4204,15924,-940,102,113,-370
4.318,4.19,-1.50,-6.20,5.95,-7.69,3.63,-2.04,0.76,-1.33,-0.47,187.00,463.00,403.00,430.00,667.00,1244.00,435.00,448.00,,,,,,,,,,,,0,0,0,,-4072,15624,-1224,-48,217,-191
4.379,4.24,-1.40,-2.05,1.05,-5.28,2.96,0.49,-1.65,-1.53,-1.06,226.00,448.00,400.00,398.00,726.00,1201.00,451.00,459.00,,,,,,,,,,,,0,0,0,,-4132,15864,-1024,113,100,-303
4.42,4.30,-1.51,1.45,-2.92,3.18,-3.86,-3.67,0.42,-8.30,2.79,263.00,434.00,496.00,342.00,700.00,1339.00,414.00,541.00,,,,,,,,,,,,0,0,0,,-4024,15716,-1152,105,107,-274
4.483,4.35,-1.64,-5.72,-0.09,-9.56,2.06,-4.09,3.01,-4.11,1.92,257.00,534.00,454.00,483.00,613.00,1270.00,402.00,469.00,,,,,,,,,,,,0,0,0,,-4156,15744,-1176,50,-1,-209
4.565,4.41,-1.43,-4.95,4.75,-7.87,5.67,2.50,-3.75,0.49,-2.90,195.00,455.00,362.00,410.00,784.00,1173.00,480.00,445.00,,,,,,,,,,,,0,0,0,,-4212,15752,-1108,-101,-63,-145
4.586,4.46,-1.62,7.19,-7.89,9.45,-7.61,-5.22,0.83,-8.48,1.77,310.00,395.00,542.00,295.00,704.00,1408.00,439.00,560.00,,,,,,,,,,,,0,0,0,,-4244,15684,-956,-137,38,-194
4.647,4.52,-1.83,-9.97,2.15,-12.22,2.59,-5.86,4.15,-7.53,4.07,246.00,595.00,463.00,529.00,595.00,1321.00,381.00,507.00,,,,,,,,,,,,0,0,0,,-4104,15676,-1060,-114,144,-118
4.708,4.57,-1.74,-10.25,10.19,-11.14,8.04,0.08,-2.70,0.45,-2.92,160.00,485.00,338.00,438.00,774.00,1255.00,481.00,446.00,,,,,,,,,,,,0,0,0,,-4180,15772,-1084,22,173,-25
4.749,4.63,-1.80,3.95,-7.21,1.44,-3.82,-3.03,-0.75,-5.48,-0.54,317.00,441.00,511.00,366.00,737.00,1347.00,471.00,529.00,,,,,,,,,,,,0,0,0,,-4160,15756,-1040,48,164,1
4.811,4.68,-1.98,-6.01,-0.41,-5.87,0.18,-5.37,2.08,-9.56,4.51,263.00,545.00,470.00,439.00,660.00,1370.00,386.00,543.00,,,,,,,,,,,,0,0,0,,-4164,15932,-1000,131,168,16
4.894,4.74,-2.11,-8.02,3.73,-8.91,2.67,-4.62,1.22,-4.34,0.34,218.00,528.00,434.00,463.00,682.00,1361.00,440.00,494.00,,,,,,,,,,,,0,0,0,,-4060,16116,-1228,243,333,-116
4.914,4.79,-2.04,-2.99,0.26,-6.36,2.47,-0.62,-1.64,-2.63,-1.57,240.00,475.00,419.00,421.00,740.00,1254.00,473.00,486.00,,,,,,,,,,,,0,0,0,,-4088,15784,-1256,-70,190,-90
4.999,4.85,-2.16,2.54,-4.71,3.50,-4.00,-4.42,0.67,-9.00,2.94,284.00,436.00,497.00,339.00,700.00,1370.00,416.00,554.00,,,,,,,,,,,,0,0,0,,-3968,15788,-1216,92,163,-124
5.018,4.90,-2.28,-7.50,1.86,-10.43,2.35,-4.63,3.37,-5.15,2.14,239.00,544.00,454.00,496.00,607.00,1285.00,405.00,486.00,,,,,,,,,,,,0,0,0,,-4144,15872,-1348,267,188,-177
5.08,4.96,-2.06,-7.31,7.33,-11.43,7.55,2.03,-3.50,-0.45,-2.58,177.00,466.00,349.00,449.00,780.00,1187.00,480.00,458.00,,,,,,,,,,,,0,0,0,,-4076,16044,-1448,153,141,-99
5.141,5.01,-2.24,7.61,-8.79,9.51,-7.69,-5.50,1.06,-9.12,1.86,323.00,398.00,544.00,295.00,699.00,1415.00,442.00,573.00,,,,,,,,,,,,0,0,0,,-3976,15816,-1500,73,186,-137
5.202,5.07,-2.42,-10.31,2.72,-12.00,2.48,-5.94,4.24,-8.74,4.77,240.00,594.00,464.00,526.00,593.00,1322.00,375.00,522.00,,,,,,,,,,,,0,0,0,,-4028,15844,-1312,-30,119,-282
5.284,5.12,-2.32,-9.89,9.28,-9.19,5.77,-0.34,-2.20,-0.35,-2.65,167.00,490.00,369.00,431.00,759.00,1259.00,481.00,457.00,,,,,,,,,,,,0,0,0,,-4032,15804,-1332,141,170,-219
5.304,5.18,-2.37,4.28,-7.44,1.11,-3.24,-3.48,-0.22,-6.11,-0.44,319.00,438.00,498.00,365.00,722.00,1352.00,474.00,541.00,,,,,,,,,,,,0,0,0,,-4080,15864,-1436,13,134,-360
5.367,5.23,-2.51,-5.53,-0.29,-5.14,-0.30,-5.13,1.97,-9.94,4.59,259.00,533.00,476.00,432.00,661.00,1361.00,387.00,550.00,,,,,,,,,,,,0,0,0,,-4008,15704,-1216,-114,194,-474
5.408,5.29,-2.62,-8.01,2.82,-8.64,2.21,-4.67,1.56,-4.70,0.71,229.00,541.00,443.00,464.00,670.00,1351.00,434.00,496.00,,,,,,,,,,,,0,0,0,,-4108,15720,-1304,-39,79,-344
5.469,5.34,-2.57,-4.82,1.34,-7.70,3.14,-1.65,-1.66,-3.46,-1.49,234.00,496.00,414.00,436.00,755.00,1307.00,478.00,501.00,,,,,,,,,,,,0,0,0,,-4172,15804,-1128,227,58,-181
5.55,5.40,-2.74,0.87,-5.82,0.66,-4.16,-6.00,0.68,-9.61,2.45,311.00,480.00,528.00,381.00,720.00,1458.00,432.00,575.00,,,,,,,,,,,,0,0,0,,-4084,15760,-1172,407,345,-124
5.57,5.45,-2.94,-9.98,2.23,-12.53,2.15,-6.60,3.32,-6.28,1.94,245.00,594.00,477.00,542.00,631.00,1391.00,418.00,511.00,,,,,,,,,,,,0,0,0,,-4148,15804,-1368,259,404,-388
5.632,5.51,-2.71,-8.26,6.64,-10.25,6.48,1.48,-3.62,-0.48,-3.03,187.00,493.00,362.00,441.00,793.00,1217.00,492.00,464.00,,,,,,,,,,,,0,0,0,,-4120,15668,-1568,204,126,-490
5.693,5.56,-2.85,8.18,-9.82,8.51,-8.05,-5.43,0.64,-9.21,1.60,338.00,400.00,565.00,310.00,714.00,1427.00,449.00,579.00,,,,,,,,,,,,0,0,0,,-4220,15600,-1440,464,-124,-241
5.753,5.62,-3.02,-9.31,1.12,-11.50,1.61,-6.16,4.29,-9.59,4.76,257.00,596.00,482.00,528.00,594.00,1332.00,381.00,540.00,,,,,,,,,,,,0,0,0,,-4340,15684,-1436,461,10,-211
5.794,5.67,-2.89,-9.25,7.58,-10.02,5.80,-0.41,-2.42,-2.66,-0.52,181.00,500.00,374.00,445.00,769.00,1270.00,447.00,473.00,,,,,,,,,,,,0,0,0,,-4156,15624,-1708,239,204,-300
5.854,5.73,-2.91,2.94,-5.98,0.87,-3.08,-3.39,-0.33,-6.45,0.07,302.00,444.00,496.00,367.00,725.00,1351.00,464.00,541.00,,,,,,,,,,,,0,0,0,,-4292,15720,-1800,141,44,-311
5.916,5.78,-3.03,-5.90,0.05,-4.76,-0.77,-5.27,2.04,-10.44,4.66,256.00,536.00,485.00,431.00,660.00,1366.00,389.00,560.00,,,,,,,,,,,,0,0,0,,-4332,15680,-1576,407,40,-224
6.018,5.84,-3.11,-5.39,1.07,-8.25,1.70,-4.69,1.43,-5.23,0.38,240.00,511.00,452.00,463.00,675.00,1357.00,446.00,511.00,,,,,,,,,,,,0,0,0,,-4376,15556,-1632,416,220,-131
6.039,5.89,-3.03,-4.55,0.94,-7.32,2.92,-1.40,-1.91,-3.99,-1.00,238.00,496.00,416.00,432.00,762.00,1303.00,470.00,505.00,,,,,,,,,,,,0,0,0,,-4228,15596,-1740,386,387,-92
6.081,5.95,-3.18,0.90,-5.95,2.22,-5.27,-6.04,0.67,-9.67,2.47,313.00,481.00,545.00,369.00,721.00,1461.00,432.00,576.00,,,,,,,,,,,,0,0,0,,-4220,15568,-1956,386,342,-130
6.142,6.00,-3.35,-9.09,1.05,-12.00,2.21,-6.54,3.21,-7.51,2.53,257.00,592.00,471.00,530.00,634.00,1392.00,414.00,528.00,,,,,,,,,,,,0,0,0,,-4212,15596,-2032,193,349,60
6.185,6.06,-3.17,-9.00,6.40,-10.76,6.15,0.19,-3.71,-1.63,-2.75,192.00,511.00,372.00,454.00,816.00,1284.00,495.00,482.00,,,,,,,,,,,,0,0,0,,-4192,15928,-2020,324,602,-12
6.247,6.11,-3.32,7.73,-11.24,7.57,-8.10,-6.15,0.60,-9.85,1.41,368.00,423.00,576.00,322.00,725.00,1470.00,459.00,597.00,,,,,,,,,,,,0,0,0,,-4064,15652,-2092,-49,457,-40
6.288,6.17,-3.47,-10.48,2.48,-11.81,2.42,-6.38,4.11,-10.15,4.90,244.00,602.00,464.00,523.00,602.00,1350.00,382.00,550.00,,,,,,,,,,,,0,0,0,,-4104,15580,-2200,111,191,-104
6.369,6.22,-3.31,-9.64,8.22,-9.81,5.83,-0.25,-2.59,-1.58,-2.28,176.00,499.00,372.00,441.00,774.00,1268.00,482.00,475.00,,,,,,,,,,,,0,0,0,,-4188,15732,-1964,255,352,311
6.389,6.28,-3.31,3.25,-5.83,1.42,-3.08,-3.39,-0.30,-6.27,-0.54,298.00,437.00,491.00,359.00,724.00,1350.00,478.00,546.00,,,,,,,,,,,,0,0,0,,-4076,16116,-2344,100,524,67
6.471,6.33,-3.41,-4.97,-0.76,-4.83,-0.75,-5.22,1.94,-10.11,4.04,263.00,528.00,485.00,432.00,663.00,1367.00,400.00,562.00,,,,,,,,,,,,0,0,0,,-3956,15708,-2136,-54,400,-164
6.512,6.39,-3.46,-6.36,1.70,-8.14,1.87,-4.33,1.01,-5.05,0.12,236.00,522.00,447.00,459.00,686.00,1353.00,451.00,511.00,,,,,,,,,,,,0,0,0,,-4008,15732,-2308,65,183,-201
6.574,6.44,-3.38,-3.88,0.79,-5.32,2.84,-1.98,-0.85,-4.05,-1.14,237.00,485.00,403.00,400.00,727.00,1296.00,474.00,508.00,,,,,,,,,,,,0,0,0,,-4064,15788,-2164,28,108,-180
6.616,6.50,-3.49,2.32,-6.78,3.20,-6.00,-5.64,0.56,-10.27,2.45,319.00,465.00,557.00,362.00,720.00,1442.00,437.00,590.00,,,,,,,,,,,,0,0,0,,-4060,15712,-2128,-85,154,-116
6.677,6.55,-3.65,-9.22,1.67,-12.10,2.64,-6.59,3.52,-7.41,2.32,249.00,585.00,461.00,526.00,624.00,1383.00,418.00,529.00,,,,,,,,,,,,0,0,0,,-4028,15388,-2192,-333,89,-287
6.738,6.61,-3.46,-8.51,5.67,-10.56,6.18,0.09,-3.38,-1.66,-2.78,198.00,511.00,370.00,450.00,803.00,1278.00,496.00,483.00,,,,,,,,,,,,0,0,0,,-4156,15732,-2116,-257,17,-29
6.8,6.66,-3.62,6.66,-10.52,7.92,-8.37,-6.55,0.41,-10.19,1.28,361.00,433.00,581.00,320.00,738.00,1501.00,465.00,607.00,,,,,,,,,,,,0,0,0,,-4012,15712,-2236,-66,4,-468
6.842,6.72,-3.76,-10.25,2.32,-12.18,2.19,-6.52,4.16,-10.31,4.67,245.00,599.00,473.00,534.00,602.00,1356.00,388.00,557.00,,,,,,,,,,,,0,0,0,,-4212,15880,-1984,-322,-30,-151
6.903,6.77,-3.60,-9.44,8.16,-10.40,6.27,-0.54,-2.08,-1.68,-2.36,176.00,496.00,367.00,446.00,757.00,1265.00,485.00,478.00,,,,,,,,,,,,0,0,0,,-4212,15512,-2108,-71,-11,-54
6.965,6.83,-3.59,3.47,-5.91,1.23,-3.20,-3.44,0.08,-6.32,-0.41,298.00,434.00,496.00,363.00,710.00,1339.00,475.00,545.00,,,,,,,,,,,,0,0,0,,-4248,15792,-2112,120,206,93
7.028,6.88,-3.66,-4.34,-0.48,-4.47,-0.33,-4.89,1.77,-10.07,3.98,256.00,511.00,471.00,421.00,665.00,1355.00,401.00,562.00,,,,,,,,,,,,0,0,0,,-4132,16012,-2044,-124,347,4
7.131,6.94,-3.68,-4.93,0.84,-7.13,1.29,-4.18,1.45,-0.70,-1.14,241.00,505.00,453.00,448.00,668.00,1329.00,446.00,445.00,,,,,,,,,,,,0,0,0,,-3988,15876,-2188,-301,217,-46
7.151,6.99,-3.54,-4.22,1.22,-6.80,3.38,-0.85,-1.85,-4.14,-1.22,233.00,486.00,402.00,418.00,752.00,1273.00,477.00,511.00,,,,,,,,,,,,0,0,0,,-4028,15808,-2004,-287,129,-246
7.171,7.05,-3.64,1.50,-5.49,3.84,-5.27,-5.57,0.92,-10.00,2.58,302.00,464.00,529.00,346.00,705.00,1424.00,432.00,582.00,,,,,,,,,,,,0,0,0,,-3988,15796,-1996,-171,132,-178
7.232,7.10,-3.76,-9.31,2.38,-10.74,1.70,-6.04,3.34,-7.35,2.30,240.00,576.00,473.00,511.00,624.00,1360.00,418.00,528.00,,,,,,,,,,,,0,0,0,,-3996,15764,-2128,-94,145,-296
7.274,7.16,-3.55,-8.01,5.97,-10.15,6.49,0.51,-3.57,-1.73,-2.76,193.00,497.00,361.00,439.00,805.00,1263.00,496.00,484.00,,,,,,,,,,,,0,0,0,,-3964,15800,-2092,-143,91,-194
7.336,7.21,-3.70,6.76,-9.45,7.58,-7.87,-6.51,0.67,-10.22,1.45,340.00,419.00,569.00,320.00,727.00,1488.00,461.00,605.00,,,,,,,,,,,,0,0,0,,-4020,16060,-1936,21,232,-171
7.417,7.27,-3.84,-10.08,1.82,-11.96,2.07,-6.49,4.00,-10.70,5.04,251.00,603.00,474.00,531.00,607.00,1360.00,383.00,560.00,,,,,,,,,,,,0,0,0,,-3992,15684,-2076,-207,164,-231
7.482,7.32,-3.65,-10.78,10.14,-10.17,7.12,-0.04,-2.49,-1.55,-2.63,162.00,496.00,349.00,432.00,767.00,1254.00,491.00,479.00,,,,,,,,,,,,0,0,0,,-3980,15644,-1932,-87,109,-202
7.503,7.38,-3.62,3.78,-6.20,1.68,-2.94,-3.06,-0.31,-6.91,-0.21,301.00,432.00,485.00,354.00,720.00,1333.00,475.00,555.00,,,,,,,,,,,,0,0,0,,-3952,15832,-2120,134,235,-114
7.546,7.43,-3.68,-4.92,0.38,-4.54,-0.30,-4.79,2.02,-10.08,4.26,247.00,511.00,471.00,422.00,655.00,1341.00,395.00,558.00,,,,,,,,,,,,0,0,0,,-4016,15728,-2112,43,302,-31
7.607,7.49,-3.69,-5.95,2.78,-7.83,2.31,-3.93,1.29,-4.36,0.22,221.00,499.00,434.00,448.00,671.00,1322.00,443.00,496.00,,,,,,,,,,,,0,0,0,,-3924,15760,-2100,43,255,-259
7.67,7.54,-3.53,-3.47,0.97,-6.32,2.86,-0.60,-1.96,-4.19,-0.85,233.00,475.00,410.00,416.00,753.00,1264.00,468.00,507.00,,,,,,,,,,,,0,0,0,,-4068,15836,-2228,62,175,-269
7.752,7.60,-3.63,1.72,-5.01,3.00,-4.88,-5.45,0.81,-9.89,2.67,293.00,454.00,526.00,354.00,708.00,1422.00,429.00,578.00,,,,,,,,,,,,0,0,0,,-4056,15748,-2180,110,107,-264
7.772,7.65,-3.75,-8.50,2.11,-11.26,2.47,-6.01,3.33,-6.36,2.05,240.00,562.00,458.00,511.00,624.00,1359.00,416.00,511.00,,,,,,,,,,,,0,0,0,,-4096,15636,-2264,10,32,-383
7.855,7.71,-3.53,-7.73,6.17,-10.03,6.92,0.63,-3.47,-0.86,-2.86,190.00,489.00,352.00,432.00,799.00,1254.00,491.00,469.00,,,,,,,,,,,,0,0,0,,-4128,15680,-2144,-154,-30,-225
7.915,7.76,-3.67,6.75,-9.61,8.47,-7.88,-6.35,0.32,-9.75,1.37,343.00,421.00,560.00,309.00,739.00,1493.00,459.00,595.00,,,,,,,,,,,,0,0,0,,-4096,15960,-2048,-225,107,-95
7.935,7.82,-3.80,-10.59,2.82,-12.33,2.55,-6.33,4.03,-11.85,5.81,240.00,599.00,465.00,532.00,604.00,1350.00,375.00,574.00,,,,,,,,,,,,0,0,0,,-4076,15596,-2004,-376,40,-229
7.996,7.87,-3.61,-9.95,9.97,-9.98,6.59,0.11,-2.73,-0.81,-2.54,161.00,482.00,358.00,435.00,775.00,1255.00,482.00,464.00,,,,,,,,,,,,0,0,0,,-4220,15600,-2016,-170,-84,-121
8.057,7.93,-3.59,4.55,-6.46,1.96,-3.45,-3.14,-0.36,-6.52,0.09,301.00,422.00,496.00,355.00,723.00,1339.00,464.00,542.00,,,,,,,,,,,,0,0,0,,-4124,15884,-2040,85,149,-1
8.118,7.98,-3.65,-4.47,0.61,-5.06,-0.32,-4.89,2.05,-9.82,4.55,242.00,499.00,476.00,431.00,655.00,1345.00,387.00,548.00,,,,,,,,,,,,0,0,0,,-4100,15852,-2116,340,212,94
8.22,8.04,-3.66,-6.60,4.12,-8.54,3.11,-3.82,0.92,-4.44,0.41,208.00,494.00,421.00,451.00,683.00,1329.00,439.00,495.00,,,,,,,,,,,,0,0,0,,-4212,15728,-1812,64,11,-50
8.24,8.09,-3.54,-3.20,0.80,-6.80,3.29,-1.36,-1.68,-3.89,-1.23,234.00,472.00,404.00,419.00,752.00,1293.00,475.00,506.00,,,,,,,,,,,,0,0,0,,-4080,15876,-2184,357,201,-114
8.281,8.15,-3.63,1.29,-4.29,2.65,-4.05,-5.36,0.54,-10.06,2.73,284.00,453.00,506.00,351.00,717.00,1427.00,429.00,581.00,,,,,,,,,,,,0,0,0,,-4008,15728,-2248,590,173,-79
8.344,8.20,-3.73,-8.93,2.41,-10.97,2.33,-5.63,2.73,-6.62,1.57,238.00,567.00,459.00,507.00,640.00,1360.00,429.00,523.00,,,,,,,,,,,,0,0,0,,-4108,15656,-2120,83,-67,-303
8.405,8.26,-3.53,-8.03,6.76,-9.94,6.53,0.38,-3.55,-2.27,-2.57,185.00,487.00,359.00,435.00,806.00,1269.00,496.00,492.00,,,,,,,,,,,,0,0,0,,-4092,15612,-2332,-240,20,-200
8.427,8.31,-3.68,6.43,-9.23,6.66,-7.20,-6.48,0.49,-10.27,1.47,338.00,422.00,558.00,326.00,734.00,1494.00,461.00,606.00,,,,,,,,,,,,0,0,0,,-4180,16184,-2252,-76,206,-145
8.508,8.37,-3.81,-10.61,2.29,-12.92,2.24,-6.41,3.88,-10.51,5.17,247.00,608.00,478.00,549.00,610.00,1360.00,379.00,554.00,,,,,,,,,,,,0,0,0,,-4128,15604,-2296,-106,136,-244
8.591,8.42,-3.61,-9.68,8.66,-10.53,7.14,0.29,-3.01,-1.18,-2.87,172.00,494.00,351.00,438.00,784.00,1255.00,494.00,475.00,,,,,,,,,,,,0,0,0,,-4104,15620,-2092,-131,55,-75
8.611,8.48,-3.60,4.04,-6.83,1.09,-3.41,-3.41,-0.55,-7.15,-0.33,310.00,435.00,503.00,367.00,734.00,1360.00,480.00,562.00,,,,,,,,,,,,0,0,0,,-4028,15844,-2076,51,323,-38
8.652,8.53,-3.68,-5.35,-0.21,-5.98,0.18,-5.23,2.14,-10.35,4.25,257.00,528.00,471.00,441.00,656.00,1360.00,397.00,564.00,,,,,,,,,,,,0,0,0,,-4108,15952,-2340,-94,403,-77
8.714,8.59,-3.69,-7.38,4.38,-9.80,4.07,-3.90,0.68,-5.08,0.17,208.00,506.00,409.00,462.00,693.00,1342.00,450.00,511.00,,,,,,,,,,,,0,0,0,,-4172,15792,-2416,-128,250,-43
8.775,8.64,-3.58,-4.48,0.84,-7.17,2.96,-1.49,-1.66,-5.24,-0.89,239.00,496.00,414.00,429.00,753.00,1299.00,478.00,529.00,,,,,,,,,,,,0,0,0,,-3980,15700,-2380,-101,142,-17
8.837,8.70,-3.68,-0.41,-2.92,1.12,-3.35,-5.59,0.57,-10.25,2.36,272.00,467.00,501.00,366.00,719.00,1439.00,439.00,591.00,,,,,,,,,,,,0,0,0,,-3972,15652,-2336,-83,153,-105
8.899,8.75,-3.80,-8.69,1.35,-12.01,2.29,-6.05,2.67,-6.93,1.46,251.00,578.00,469.00,529.00,647.00,1385.00,434.00,531.00,,,,,,,,,,,,0,0,0,,-3992,15748,-2152,-141,37,-210
8.961,8.81,-3.64,-8.42,6.21,-10.87,6.63,-0.56,-2.84,-3.15,-2.54,192.00,502.00,363.00,450.00,789.00,1292.00,503.00,509.00,,,,,,,,,,,,0,0,0,,-4084,15628,-2368,-56,86,-136
8.981,8.86,-3.76,4.55,-8.27,5.70,-6.91,-6.15,0.05,-10.35,1.46,332.00,443.00,559.00,336.00,747.00,1492.00,462.00,608.00,,,,,,,,,,,,0,0,0,,-4056,16024,-2172,-108,192,-267
9.064,8.92,-3.89,-10.83,2.07,-13.59,2.62,-6.36,3.89,-10.34,4.58,251.00,617.00,474.00,558.00,609.00,1357.00,390.00,559.00,,,,,,,,,,,,0,0,0,,-4044,15640,-2272,-368,94,-130
9.104,8.97,-3.66,-10.39,9.56,-11.02,6.94,0.86,-3.66,-0.75,-3.34,166.00,496.00,358.00,449.00,804.00,1249.00,503.00,473.00,,,,,,,,,,,,0,0,0,,-3916,15656,-2188,-15,65,34
9.165,9.03,-3.65,4.52,-8.48,1.83,-4.90,-3.57,-0.72,-7.35,-0.75,336.00,446.00,538.00,371.00,743.00,1375.00,493.00,573.00,,,,,,,,,,,,0,0,0,,-3884,15704,-2108,104,339,8
9.226,9.08,-3.75,-6.13,-0.37,-7.41,0.39,-5.54,2.16,-11.05,4.12,263.00,547.00,478.00,464.00,659.00,1376.00,405.00,582.00,,,,,,,,,,,,0,0,0,,-3992,15796,-2368,-74,371,-100
9.309,9.14,-3.73,-8.42,5.55,-9.93,4.02,-3.44,0.08,-4.48,-0.72,199.00,511.00,411.00,465.00,710.00,1339.00,467.00,511.00,,,,,,,,,,,,0,0,0,,-3964,15764,-2276,4,203,-121
9.33,9.19,-3.64,-4.67,0.67,-7.58,2.70,-1.85,-1.59,-6.00,-0.94,242.00,502.00,423.00,439.00,755.00,1315.00,486.00,546.00,,,,,,,,,,,,0,0,0,,-3920,15788,-2344,78,90,-197
9.394,9.25,-3.72,-1.13,-3.34,-0.13,-3.29,-5.23,0.07,-9.52,1.87,282.00,486.00,511.00,384.00,734.00,1438.00,445.00,582.00,,,,,,,,,,,,0,0,0,,-3912,15788,-2432,56,121,-287
9.434,9.30,-3.82,-10.14,2.59,-12.65,2.46,-5.82,2.14,-7.26,1.32,241.00,592.00,470.00,540.00,663.00,1392.00,440.00,540.00,,,,,,,,,,,,0,0,0,,-4000,15500,-2244,-2,81,-236
9.495,9.36,-3.64,-9.00,6.40,-8.73,4.40,-0.20,-3.65,-4.09,-2.51,192.00,511.00,394.00,439.00,819.00,1302.00,511.00,528.00,,,,,,,,,,,,0,0,0,,-3968,15764,-2308,63,164,-105
9.557,9.41,-3.75,4.23,-8.38,5.53,-6.89,-5.89,0.31,-9.62,1.13,336.00,450.00,560.00,338.00,733.00,1466.00,464.00,596.00,,,,,,,,,,,,0,0,0,,-3996,15632,-2196,-242,104,-331
9.619,9.47,-3.88,-10.89,2.17,-13.65,2.72,-6.33,3.76,-10.17,4.20,250.00,617.00,472.00,558.00,613.00,1360.00,397.00,561.00,,,,,,,,,,,,0,0,0,,-3992,15596,-2260,-228,-100,-175
9.723,9.52,-3.63,-11.02,10.33,-12.27,8.37,1.21,-3.94,-0.91,-3.58,161.00,498.00,339.00,454.00,811.00,1241.00,511.00,479.00,,,,,,,,,,,,0,0,0,,-4048,15804,-2196,27,170,29
9.744,9.58,-3.66,4.28,-8.29,2.84,-5.48,-4.28,-0.53,-8.49,-0.29,334.00,448.00,545.00,362.00,745.00,1407.00,491.00,592.00,,,,,,,,,,,,0,0,0,,-3952,15976,-2300,-147,372,-63
9.763,9.63,-3.76,-6.88,-0.74,-8.35,0.36,-5.72,2.11,-11.15,3.88,272.00,569.00,487.00,482.00,663.00,1388.00,411.00,588.00,,,,,,,,,,,,0,0,0,,-3860,15612,-2440,-183,215,-233
9.824,9.69,-3.72,-9.93,6.33,-10.10,4.35,-2.85,-0.51,-3.85,-1.28,196.00,531.00,405.00,464.00,725.00,1329.00,476.00,506.00,,,,,,,,,,,,0,0,0,,-3988,15840,-2248,173,55,-163
9.885,9.74,-3.65,-3.65,-1.42,-6.87,1.40,-2.42,-1.47,-6.54,-1.10,266.00,510.00,448.00,442.00,758.00,1341.00,495.00,560.00,,,,,,,,,,,,0,0,0,,-3996,15648,-2404,117,104,-220
9.925,9.80,-3.72,-1.89,-3.28,-1.66,-2.56,-5.01,-0.13,-9.97,1.90,285.00,500.00,505.00,400.00,739.00,1433.00,448.00,592.00,,,,,,,,,,,,0,0,0,,-3984,15700,-2324,-41,72,-351
10.047,9.85,-3.85,-8.15,0.10,-11.40,1.46,-6.36,2.35,-7.60,1.14,266.00,585.00,485.00,528.00,662.00,1414.00,447.00,550.00,,,,,,,,,,,,0,0,0,,-4004,15624,-2452,5,58,-228
10.067,9.91,-3.69,-7.58,3.08,-10.20,4.66,-0.64,-3.46,-4.65,-2.32,224.00,528.00,399.00,462.00,817.00,1318.00,511.00,537.00,,,,,,,,,,,,0,0,0,,-4068,15948,-2404,-173,132,-318
10.088,9.96,-3.78,3.82,-8.19,4.63,-6.75,-5.53,0.07,-10.19,1.40,335.00,455.00,565.00,349.00,738.00,1455.00,462.00,605.00,,,,,,,,,,,,0,0,0,,-4052,15616,-2384,-267,102,-124
10.15,10.02,-3.93,-9.88,1.90,-12.52,2.62,-6.78,4.40,-10.51,4.03,249.00,597.00,465.00,535.00,597.00,1361.00,403.00,571.00,,,,,,,,,,,,0,0,0,,-4128,15732,-1868,51,56,11
10.21,10.07,-3.68,-10.08,8.58,-12.03,7.86,1.15,-4.04,-1.01,-4.11,174.00,503.00,347.00,456.00,816.00,1247.00,527.00,488.00,,,,,,,,,,,,0,0,0,,-3944,15864,-2272,125,380,-29
10.252,10.13,-3.74,6.47,-10.00,5.74,-7.09,-4.94,-0.26,-9.58,0.26,352.00,430.00,564.00,337.00,743.00,1434.00,486.00,609.00,,,,,,,,,,,,0,0,0,,-3936,15988,-2296,-117,335,-168
10.354,10.18,-3.85,-7.78,-0.44,-8.93,0.22,-5.97,1.95,-11.41,3.71,272.00,585.00,496.00,495.00,672.00,1408.00,417.00,597.00,,,,,,,,,,,,0,0,0,,-3856,15756,-2548,34,64,-192
10.375,10.24,-3.79,-7.29,4.98,-10.13,4.32,-2.51,-0.95,-6.78,-0.33,201.00,496.00,406.00,465.00,738.00,1327.00,477.00,554.00,,,,,,,,,,,,0,0,0,,-3900,15768,-2396,218,-18,-227
10.416,10.29,-3.76,-0.75,-4.05,-4.21,-0.26,-3.31,-1.10,-6.79,-1.05,291.00,488.00,467.00,416.00,755.00,1375.00,496.00,565.00,,,,,,,,,,,,0,0,0,,-4100,15832,-2556,94,123,-348
10.478,10.35,-3.85,-4.00,-1.98,-2.64,-2.12,-5.57,0.11,-8.72,-0.33,276.00,525.00,502.00,411.00,737.00,1456.00,494.00,598.00,,,,,,,,,,,,0,0,0,,-3996,15500,-2492,36,129,-278
10.539,10.40,-3.98,-7.44,0.35,-10.40,1.28,-6.46,2.08,-7.70,0.89,259.00,565.00,481.00,510.00,673.00,1430.00,454.00,556.00,,,,,,,,,,,,0,0,0,,-4032,15620,-2452,131,171,-30
10.601,10.46,-3.81,-6.67,1.81,-10.23,4.63,-0.61,-3.44,-4.39,-2.84,236.00,527.00,400.00,463.00,816.00,1316.00,523.00,539.00,,,,,,,,,,,,0,0,0,,-3996,15680,-2216,-154,140,-366
10.641,10.51,-3.91,2.76,-7.27,4.33,-6.42,-5.79,0.61,-10.63,1.75,325.00,463.00,558.00,350.00,720.00,1449.00,457.00,610.00,,,,,,,,,,,,0,0,0,,-4004,15628,-2548,-23,-29,-229
10.703,10.57,-4.07,-9.91,2.13,-12.25,2.56,-6.97,4.44,-9.63,3.33,246.00,594.00,464.00,530.00,598.00,1370.00,412.00,562.00,,,,,,,,,,,,0,0,0,,-4104,15772,-2224,264,159,-95
10.804,10.62,-3.79,-14.95,15.46,-11.59,8.03,1.38,-4.40,-1.75,-4.39,131.00,507.00,341.00,446.00,829.00,1248.00,542.00,506.00,,,,,,,,,,,,0,0,0,,-4020,15820,-2412,203,279,-167
10.824,10.68,-3.90,6.79,-10.72,6.35,-7.43,-5.97,0.44,-10.14,0.60,364.00,433.00,568.00,332.00,729.00,1466.00,482.00,617.00,,,,,,,,,,,,0,0,0,,-4052,15712,-2648,37,183,-252
10.865,10.73,-4.03,-9.26,0.61,-11.10,1.51,-6.40,2.40,-11.22,3.55,264.00,603.00,481.00,521.00,661.00,1415.00,419.00,595.00,,,,,,,,,,,,0,0,0,,-4004,15628,-2372,205,134,-249
10.926,10.79,-3.95,-8.28,3.07,-10.24,4.40,-2.48,-1.31,-3.05,-2.31,227.00,543.00,405.00,466.00,752.00,1338.00,496.00,504.00,,,,,,,,,,,,0,0,0,,-4128,15668,-2596,152,84,-285
10.967,10.84,-3.96,0.39,-5.12,-2.18,-1.79,-4.08,-1.08,-7.68,-0.79,302.00,480.00,489.00,400.00,765.00,1417.00,497.00,581.00,,,,,,,,,,,,0,0,0,,-4104,15656,-2668,152,37,-403
11.029,10.90,-4.05,-4.93,-1.80,-4.00,-1.81,-5.88,0.39,-10.99,2.41,278.00,542.00,506.00,430.00,730.00,1463.00,444.00,608.00,,,,,,,,,,,,0,0,0,,-4096,15696,-2532,149,-39,-240
11.093,10.95,-4.17,-8.50,1.07,-9.83,1.40,-6.40,1.84,-7.51,0.54,254.00,578.00,473.00,497.00,681.00,1436.00,461.00,557.00,,,,,,,,,,,,0,0,0,,-4152,15992,-2488,258,160,-398
11.153,11.01,-4.00,-7.62,3.42,-9.87,4.83,-0.75,-3.12,-4.95,-2.22,220.00,524.00,393.00,454.00,804.00,1312.00,511.00,542.00,,,,,,,,,,,,0,0,0,,-4152,15528,-2564,-92,108,-217
11.194,11.06,-4.09,2.39,-6.80,4.85,-6.33,-5.75,0.47,-10.90,2.21,319.00,464.00,550.00,342.00,725.00,1452.00,448.00,609.00,,,,,,,,,,,,0,0,0,,-4084,15672,-2524,137,66,-142
11.235,11.12,-4.21,-9.88,1.90,-12.31,2.58,-6.53,3.71,-9.07,2.44,249.00,597.00,464.00,531.00,617.00,1373.00,428.00,563.00,,,,,,,,,,,,0,0,0,,-4160,15628,-2680,224,199,-48
11.296,11.17,-3.97,-10.90,8.34,-11.74,8.08,0.63,-3.86,-2.13,-3.60,179.00,523.00,341.00,448.00,816.00,1267.00,523.00,503.00,,,,,,,,,,,,0,0,0,,-4112,15872,-2596,1,308,-54
11.357,11.23,-4.09,6.61,-10.71,6.35,-7.88,-6.40,0.53,-10.75,1.08,365.00,436.00,582.00,336.00,731.00,1487.00,475.00,624.00,,,,,,,,,,,,0,0,0,,-4092,15672,-2840,-16,269,-100
11.419,11.28,-4.25,-10.69,1.44,-11.93,2.02,-7.27,3.55,-11.47,4.04,259.00,624.00,475.00,531.00,631.00,1420.00,410.00,593.00,,,,,,,,,,,,0,0,0,,-4028,15656,-2836,126,188,-164
11.502,11.34,-4.16,-9.35,3.84,-11.72,5.41,-2.52,-1.61,-3.44,-2.25,222.00,555.00,394.00,481.00,765.00,1351.00,498.00,511.00,,,,,,,,,,,,0,0,0,,-4048,15748,-2816,182,105,-147
11.523,11.39,-4.19,0.69,-5.40,-0.79,-2.71,-4.65,-0.50,-8.41,-0.47,305.00,478.00,501.00,388.00,749.00,1427.00,495.00,593.00,,,,,,,,,,,,0,0,0,,-4048,15532,-2844,118,79,-192
11.627,11.45,-4.30,-6.41,-1.96,-6.18,-0.86,-6.47,1.07,-11.47,3.12,288.00,577.00,500.00,457.00,711.00,1470.00,431.00,608.00,,,,,,,,,,,,0,0,0,,-4160,15748,-2732,98,128,-64
11.648,11.50,-4.38,-7.57,0.61,-9.64,1.73,-5.94,1.58,-6.97,0.28,256.00,564.00,463.00,489.00,685.00,1420.00,463.00,549.00,,,,,,,,,,,,0,0,0,,-4060,15552,-2812,-302,59,-225
11.688,11.56,-4.23,-6.26,1.13,-7.66,2.82,-1.34,-2.05,-5.79,-1.39,243.00,528.00,421.00,439.00,767.00,1305.00,496.00,548.00,,,,,,,,,,,,0,0,0,,-4116,15656,-2824,-336,-4,-149
11.75,11.61,-4.32,1.02,-6.74,2.57,-5.59,-5.95,0.66,-11.39,2.62,326.00,489.00,551.00,367.00,720.00,1456.00,442.00,614.00,,,,,,,,,,,,0,0,0,,-4060,15808,-2732,13,169,22
11.811,11.67,-4.42,-9.26,1.62,-12.36,2.80,-6.39,3.31,-8.51,2.08,250.00,587.00,459.00,529.00,629.00,1380.00,432.00,556.00,,,,,,,,,,,,0,0,0,,-4100,15732,-2696,-22,314,-9
11.893,11.72,-4.18,-8.96,6.49,-10.76,7.06,0.45,-3.71,-2.50,-2.90,191.00,509.00,354.00,443.00,812.00,1271.00,507.00,501.00,,,,,,,,,,,,0,0,0,,-3988,15704,-2756,-125,264,-160
11.913,11.78,-4.29,5.26,-8.89,7.22,-7.46,-6.50,0.20,-11.56,1.63,339.00,438.00,560.00,321.00,746.00,1507.00,468.00,635.00,,,,,,,,,,,,0,0,0,,-4076,15632,-2732,67,180,-249
11.953,11.83,-4.45,-11.53,1.80,-13.38,2.59,-7.47,3.73,-11.93,4.79,258.00,639.00,473.00,554.00,627.00,1424.00,397.00,592.00,,,,,,,,,,,,0,0,0,,-4096,15736,-2984,7,87,-195
12.017,11.89,-4.34,-11.19,7.43,-12.28,6.86,-2.15,-2.40,-4.09,-2.51,189.00,542.00,368.00,473.00,793.00,1360.00,511.00,528.00,,,,,,,,,,,,0,0,0,,-4128,15616,-2768,-224,17,-276
12.079,11.94,-4.37,1.35,-7.08,-0.47,-3.75,-4.95,-0.84,-8.62,-0.47,330.00,487.00,527.00,394.00,767.00,1457.00,497.00,598.00,,,,,,,,,,,,0,0,0,,-4216,15576,-2856,-268,-13,-182
12.14,12.00,-4.48,-7.73,-0.39,-7.37,0.57,-6.58,1.71,-11.74,3.82,271.00,583.00,473.00,461.00,688.00,1451.00,417.00,603.00,,,,,,,,,,,,0,0,0,,-4188,15940,-2744,-242,33,-268
12.182,12.05,-4.49,-8.43,3.36,-9.19,2.86,-4.79,0.93,-6.70,0.15,224.00,542.00,432.00,466.00,695.00,1381.00,464.00,545.00,,,,,,,,,,,,0,0,0,,-4112,15688,-2672,-357,130,-98
12.285,12.11,-4.36,-4.27,0.31,-6.67,2.40,-1.89,-1.53,-6.61,-0.66,245.00,499.00,423.00,427.00,753.00,1315.00,484.00,555.00,,,,,,,,,,,,0,0,0,,-4052,15500,-2476,-162,238,-74
12.305,12.16,-4.44,-1.03,-3.18,0.78,-3.05,-5.86,0.92,-10.52,2.33,279.00,482.00,496.00,368.00,709.00,1441.00,442.00,598.00,,,,,,,,,,,,0,0,0,,-4012,15700,-2756,-29,394,-61
12.346,12.22,-4.53,-9.71,2.60,-12.57,3.32,-6.29,3.21,-7.76,1.78,239.00,582.00,448.00,526.00,631.00,1378.00,433.00,544.00,,,,,,,,,,,,0,0,0,,-4016,15876,-2816,-270,316,-101
12.407,12.27,-4.29,-8.70,6.40,-9.69,5.98,0.25,-3.71,-3.97,-2.55,191.00,505.00,368.00,437.00,815.00,1281.00,511.00,526.00,,,,,,,,,,,,0,0,0,,-3732,15820,-2796,-82,180,-141
12.468,12.33,-4.39,4.55,-7.93,7.00,-7.02,-6.35,0.80,-10.51,1.51,326.00,439.00,549.00,320.00,720.00,1474.00,462.00,611.00,,,,,,,,,,,,0,0,0,,-4020,15840,-2868,167,171,-234
12.51,12.38,-4.55,-12.22,2.98,-14.01,3.12,-7.46,4.11,-11.25,4.42,245.00,636.00,465.00,560.00,614.00,1409.00,400.00,582.00,,,,,,,,,,,,0,0,0,,-4008,15920,-2736,31,224,-303
12.611,12.44,-4.35,-12.21,9.84,-12.30,8.00,-0.58,-3.43,-1.98,-3.22,169.00,529.00,346.00,459.00,815.00,1314.00,511.00,495.00,,,,,,,,,,,,0,0,0,,-4100,15524,-2784,-95,163,-264
12.632,12.49,-4.40,3.17,-8.67,2.10,-5.10,-5.28,-0.73,-9.23,-0.01,348.00,473.00,541.00,369.00,767.00,1472.00,490.00,605.00,,,,,,,,,,,,0,0,0,,-3932,15556,-2656,-110,194,-184
12.693,12.55,-4.48,-6.80,-1.50,-8.28,0.49,-6.15,1.79,-11.39,4.06,283.00,579.00,483.00,479.00,680.00,1424.00,409.00,591.00,,,,,,,,,,,,0,0,0,,-4020,15596,-2868,-291,109,-378
12.754,12.60,-4.40,-7.76,4.87,-9.11,4.20,-2.84,-0.36,-3.45,-1.65,204.00,507.00,401.00,448.00,719.00,1323.00,482.00,503.00,,,,,,,,,,,,0,0,0,,-4096,15652,-2844,-234,-128,-278
12.795,12.66,-4.29,-3.55,-0.31,-5.78,1.97,-2.18,-1.41,-5.89,-1.32,250.00,493.00,426.00,417.00,752.00,1326.00,495.00,549.00,,,,,,,,,,,,0,0,0,,-4048,15624,-2664,-264,-71,27
12.917,12.71,-4.32,-1.42,-2.37,0.23,-2.33,-4.88,0.33,-9.87,2.45,269.00,479.00,482.00,369.00,719.00,1408.00,434.00,581.00,,,,,,,,,,,,0,0,0,,-4068,15696,-2436,-530,199,-112
12.937,12.77,-4.38,-8.21,2.02,-9.73,2.08,-5.45,2.27,-7.64,1.74,240.00,557.00,455.00,486.00,654.00,1367.00,433.00,542.00,,,,,,,,,,,,0,0,0,,-3980,15732,-2708,-424,227,-214
12.979,12.82,-4.16,-6.94,4.32,-8.52,4.95,0.04,-3.44,-3.94,-2.38,207.00,498.00,381.00,429.00,806.00,1282.00,506.00,523.00,,,,,,,,,,,,0,0,0,,-4096,15708,-2688,-69,28,-153
13.0,12.88,-4.25,4.63,-7.79,6.61,-6.78,-6.04,0.47,-10.32,2.10,323.00,436.00,546.00,323.00,729.00,1469.00,446.00,597.00,,,,,,,,,,,,0,0,0,,-4056,15628,-2388,-26,-36,-146
13.06,12.93,-4.41,-9.80,2.47,-12.12,2.52,-7.39,4.06,-9.79,3.70,241.00,586.00,464.00,528.00,615.00,1407.00,405.00,560.00,,,,,,,,,,,,0,0,0,,-3976,15864,-2496,-142,-139,-98
13.141,12.99,-4.18,-9.73,8.36,-11.12,7.34,0.22,-4.10,-1.52,-3.98,175.00,499.00,351.00,446.00,833.00,1296.00,528.00,496.00,,,,,,,,,,,,0,0,0,,-4016,15420,-2092,28,197,-149
13.162,13.04,-4.28,6.31,-9.83,5.47,-7.13,-6.22,0.08,-9.61,0.42,350.00,431.00,568.00,341.00,747.00,1495.00,482.00,607.00,,,,,,,,,,,,0,0,0,,-4008,15532,-2440,179,481,157
13.223,13.10,-4.37,-8.84,0.68,-9.49,0.74,-6.14,2.08,-11.13,3.79,261.00,592.00,487.00,499.00,669.00,1412.00,413.00,589.00,,,,,,,,,,,,0,0,0,,-3932,15624,-2760,-17,126,-221
13.284,13.15,-4.26,-8.12,5.92,-8.76,4.37,-2.10,-0.98,-2.97,-1.22,194.00,500.00,395.00,440.00,734.00,1307.00,467.00,488.00,,,,,,,,,,,,0,0,0,,-4000,15508,-2532,-31,-214,-165
13.365,13.21,-4.18,1.42,-3.74,-1.39,-0.85,-2.75,-1.22,-6.12,-0.90,275.00,444.00,458.00,378.00,752.00,1349.00,486.00,548.00,,,,,,,,,,,,0,0,0,,-4088,15664,-2340,162,146,12
13.385,13.26,-4.22,-5.65,-0.25,-0.89,-1.88,-4.97,0.33,-10.16,3.06,259.00,535.00,480.00,381.00,720.00,1413.00,422.00,578.00,,,,,,,,,,,,0,0,0,,-3912,16024,-2564,19,526,5
13.446,13.32,-4.31,-6.52,1.53,-8.28,1.59,-6.06,2.39,-6.78,1.45,239.00,528.00,455.00,465.00,657.00,1396.00,433.00,528.00,,,,,,,,,,,,0,0,0,,-3820,15836,-2748,22,386,-132
13.526,13.37,-4.16,-5.27,2.38,-7.76,4.36,-1.22,-2.80,-4.33,-1.81,223.00,491.00,388.00,423.00,797.00,1325.00,494.00,523.00,,,,,,,,,,,,0,0,0,,-4024,15688,-2872,241,198,-132
13.547,13.43,-4.28,2.84,-6.25,4.20,-5.81,-6.64,0.72,-10.64,2.88,307.00,449.00,541.00,346.00,727.00,1494.00,430.00,592.00,,,,,,,,,,,,0,0,0,,-3984,15616,-2708,195,113,-225
13.607,13.48,-4.44,-9.72,2.99,-12.12,2.52,-7.38,3.52,-9.46,4.57,234.00,576.00,464.00,528.00,633.00,1427.00,384.00,540.00,,,,,,,,,,,,0,0,0,,-4084,15672,-2752,-115,94,-285
13.668,13.54,-4.24,-9.92,8.63,-12.10,8.36,-0.51,-3.88,-1.02,-3.25,173.00,499.00,338.00,451.00,834.00,1326.00,503.00,477.00,,,,,,,,,,,,0,0,0,,-4072,15580,-2744,-251,21,-196
13.73,13.59,-4.40,7.78,-10.95,6.81,-8.00,-7.52,0.29,-10.65,1.84,362.00,419.00,581.00,331.00,756.00,1565.00,455.00,609.00,,,,,,,,,,,,0,0,0,,-4184,16164,-2624,-335,109,-105
13.791,13.65,-4.54,-9.35,0.99,-11.44,1.59,-7.19,3.34,-11.21,5.40,259.00,599.00,482.00,527.00,637.00,1423.00,379.00,566.00,,,,,,,,,,,,0,0,0,,-3960,15716,-2468,-372,37,-164
13.832,13.70,-4.42,-8.45,6.03,-10.41,5.30,-2.07,-1.67,-2.88,-1.14,194.00,505.00,387.00,458.00,761.00,1329.00,464.00,485.00,,,,,,,,,,,,0,0,0,,-4004,15720,-2780,-152,-63,-21
13.894,13.76,-4.40,3.26,-5.34,-0.09,-1.76,-4.12,-0.61,-7.93,0.56,290.00,431.00,470.00,368.00,746.00,1401.00,464.00,566.00,,,,,,,,,,,,0,0,0,,-3884,15688,-2488,356,119,101
13.954,13.81,-4.49,-4.36,-1.45,-5.02,-0.30,-6.07,1.36,-10.89,4.21,270.00,525.00,475.00,430.00,695.00,1436.00,402.00,577.00,,,,,,,,,,,,0,0,0,,-3848,15896,-2596,426,275,-149
14.016,13.87,-4.55,-5.41,-0.12,-8.31,1.24,-5.82,1.41,-6.37,0.85,256.00,528.00,464.00,470.00,690.00,1420.00,444.00,528.00,,,,,,,,,,,,0,0,0,,-3928,15608,-2928,34,147,-268
14.099,13.92,-4.45,-5.53,2.39,-8.00,3.92,-2.39,-2.11,-6.15,-0.66,224.00,496.00,399.00,432.00,784.00,1362.00,480.00,545.00,,,,,,,,,,,,0,0,0,,-3840,15612,-2620,-459,-89,-108
14.119,13.98,-4.57,1.21,-5.94,1.28,-4.89,-6.89,0.48,-11.27,3.01,311.00,475.00,543.00,379.00,740.00,1519.00,432.00,605.00,,,,,,,,,,,,0,0,0,,-4044,15852,-2640,-623,-15,-29
14.182,14.03,-4.73,-9.48,1.61,-12.91,2.71,-7.77,3.39,-9.14,2.94,251.00,592.00,466.00,542.00,642.00,1454.00,417.00,557.00,,,,,,,,,,,,0,0,0,,-3944,15716,-2740,-382,86,-159
14.202,14.09,-4.60,-10.13,7.27,-11.89,7.08,-2.09,-3.17,-3.28,-2.49,187.00,522.00,361.00,463.00,826.00,1385.00,503.00,511.00,,,,,,,,,,,,0,0,0,,-3860,15632,-2508,-20,-1,123
14.263,14.14,-4.77,4.89,-8.61,5.72,-6.95,-7.97,0.71,-11.77,1.81,336.00,441.00,560.00,336.00,745.00,1575.00,465.00,637.00,,,,,,,,,,,,0,0,0,,-3908,15752,-2552,49,-111,-152
14.324,14.20,-4.91,-11.61,2.85,-14.15,3.32,-7.65,4.21,-11.63,5.30,244.00,623.00,461.00,560.00,613.00,1416.00,384.00,577.00,,,,,,,,,,,,0,0,0,,-3956,15860,-2592,10,-89,-120
14.386,14.25,-4.74,-11.40,10.23,-12.23,7.66,-1.43,-2.69,-3.44,-2.18,163.00,507.00,352.00,462.00,795.00,1332.00,496.00,510.00,,,,,,,,,,,,0,0,0,,-3816,15836,-2504,242,40,-24
14.449,14.31,-4.76,1.98,-6.20,-0.39,-3.21,-5.27,-0.29,-8.52,-0.06,311.00,464.00,511.00,387.00,749.00,1454.00,485.00,589.00,,,,,,,,,,,,0,0,0,,-3840,15912,-2588,240,357,-56
14.489,14.36,-4.86,-7.57,0.61,-7.27,0.26,-6.81,1.90,-11.92,4.65,256.00,564.00,480.00,463.00,684.00,1457.00,400.00,594.00,,,,,,,,,,,,0,0,0,,-3796,15704,-2688,-110,246,-272
14.551,14.42,-4.91,-9.99,5.53,-10.75,4.21,-5.79,1.00,-6.87,0.41,205.00,544.00,413.00,478.00,705.00,1434.00,459.00,545.00,,,,,,,,,,,,0,0,0,,-3860,15820,-2704,-181,296,-245
14.592,14.47,-4.83,-5.39,1.07,-7.85,3.10,-3.39,-1.67,-7.03,-0.36,240.00,511.00,416.00,439.00,780.00,1401.00,480.00,560.00,,,,,,,,,,,,0,0,0,,-3764,15652,-2580,50,360,-267
14.653,14.53,-4.93,-2.87,-2.43,-1.04,-2.62,-6.70,0.16,-11.17,2.30,277.00,508.00,501.00,391.00,750.00,1520.00,448.00,614.00,,,,,,,,,,,,0,0,0,,-3896,15788,-2692,-54,464,-260
14.715,14.58,-5.07,-10.42,1.71,-13.75,2.79,-7.83,2.63,-8.26,1.45,254.00,613.00,471.00,559.00,670.00,1488.00,445.00,560.00,,,,,,,,,,,,0,0,0,,-3872,15568,-2604,-132,415,-327
14.837,14.64,-4.92,-8.52,3.56,-6.23,4.08,-1.95,-3.48,-5.11,-1.99,222.00,541.00,383.00,401.00,838.00,1389.00,506.00,542.00,,,,,,,,,,,,0,0,0,,-3920,15836,-2872,-314,381,-324
14.858,14.69,-5.01,3.56,-8.05,4.02,-6.38,-6.79,0.36,-11.13,2.00,334.00,458.00,560.00,354.00,743.00,1517.00,455.00,618.00,,,,,,,,,,,,0,0,0,,-4040,15720,-2712,-249,125,-181
14.878,14.75,-5.17,-12.14,3.34,-13.67,2.42,-8.17,4.53,-11.10,4.65,240.00,628.00,480.00,563.00,608.00,1433.00,394.00,575.00,,,,,,,,,,,,0,0,0,,-3920,15660,-2564,-143,1,11
14.92,14.80,-4.94,-12.69,11.83,-12.94,8.70,-0.54,-3.69,-2.05,-3.20,153.00,511.00,337.00,462.00,826.00,1321.00,511.00,496.00,,,,,,,,,,,,0,0,0,,-3924,15764,-2452,-70,319,57
15.0,14.86,-5.00,4.01,-8.14,3.18,-5.56,-6.29,-0.05,-10.11,0.44,333.00,451.00,544.00,358.00,753.00,1504.00,486.00,619.00,,,,,,,,,,,,0,0,0,,-3932,15936,-2720,-214,403,-78
15.041,14.91,-5.11,-8.11,-0.40,-9.03,0.44,-7.07,1.88,-11.92,3.83,273.00,592.00,491.00,494.00,688.00,1473.00,418.00,607.00,,,,,,,,,,,,0,0,0,,-3888,15820,-2832,30,304,-90
15.103,14.97,-5.07,-10.77,6.34,-11.11,4.74,-4.39,-0.39,-5.24,-0.81,199.00,549.00,404.00,478.00,741.00,1408.00,476.00,528.00,,,,,,,,,,,,0,0,0,,-3812,15720,-2796,281,183,-157
15.207,15.02,-5.04,-3.24,-2.10,-6.77,0.92,-4.46,-1.08,-7.89,-0.34,274.00,511.00,459.00,446.00,770.00,1438.00,487.00,579.00,,,,,,,,,,,,0,0,0,,-3860,15724,-2844,90,-42,-205
15.228,15.08,-5.13,-4.87,-1.76,-2.99,-2.33,-6.74,0.13,-11.03,2.33,277.00,540.00,511.00,419.00,752.00,1524.00,446.00,610.00,,,,,,,,,,,,0,0,0,,-3816,15668,-2704,-84,47,-251
15.268,15.13,-5.24,-8.13,-0.12,-11.98,1.89,-7.40,1.91,-8.83,1.55,269.00,588.00,479.00,534.00,691.00,1491.00,447.00,571.00,,,,,,,,,,,,0,0,0,,-3812,15888,-2840,-282,167,-327
15.331,15.19,-5.06,-6.98,1.99,-10.30,4.65,-1.67,-3.24,-5.49,-2.04,235.00,531.00,400.00,464.00,823.00,1365.00,511.00,551.00,,,,,,,,,,,,0,0,0,,-3848,15688,-2776,-435,95,-103
15.373,15.24,-5.16,2.69,-7.25,4.15,-6.26,-7.01,0.74,-11.55,2.26,325.00,464.00,555.00,351.00,731.00,1515.00,452.00,624.00,,,,,,,,,,,,0,0,0,,-3800,15624,-2536,-109,79,31
15.454,15.30,-5.29,-10.48,2.10,-13.07,2.33,-7.87,3.81,-10.77,3.71,249.00,608.00,477.00,551.00,629.00,1444.00,412.00,582.00,,,,,,,,,,,,0,0,0,,-3720,15836,-2536,-43,304,24
15.494,15.35,-5.05,-12.80,10.37,-12.84,8.40,-0.37,-4.19,-3.23,-3.65,166.00,534.00,342.00,464.00,846.00,1330.00,535.00,526.00,,,,,,,,,,,,0,0,0,,-3788,15916,-2692,-130,334,-142
15.555,15.41,-5.17,5.11,-10.00,4.17,-6.92,-7.53,0.39,-11.32,1.15,361.00,454.00,575.00,357.00,752.00,1561.00,478.00,637.00,,,,,,,,,,,,0,0,0,,-3776,15840,-2720,16,164,-212
15.576,15.46,-5.31,-10.08,0.54,-12.13,1.55,-7.92,2.41,-12.59,3.97,269.00,624.00,489.00,542.00,679.00,1502.00,420.00,621.00,,,,,,,,,,,,0,0,0,,-3872,15816,-2656,119,44,-239
15.636,15.52,-5.25,-10.65,5.21,-11.87,4.86,-4.16,-1.15,-5.06,-1.22,211.00,563.00,407.00,491.00,769.00,1424.00,485.00,530.00,,,,,,,,,,,,0,0,0,,-3880,15812,-2708,-20,-14,-368
15.719,15.57,-5.27,-1.04,-4.45,-3.68,-1.14,-5.71,-0.75,-9.10,-0.20,299.00,499.00,485.00,417.00,774.00,1498.00,494.00,605.00,,,,,,,,,,,,0,0,0,,-3820,15520,-2552,-26,82,-316
15.761,15.63,-5.36,-6.41,-1.63,-6.26,-0.90,-7.08,0.37,-11.34,2.32,283.00,572.00,502.00,459.00,747.00,1535.00,449.00,618.00,,,,,,,,,,,,0,0,0,,-3928,16000,-2736,-155,124,-411
15.822,15.68,-5.43,-8.09,0.86,-10.04,1.70,-6.62,1.73,-8.16,1.17,255.00,572.00,467.00,497.00,688.00,1453.00,451.00,562.00,,,,,,,,,,,,0,0,0,,-3796,15700,-2720,-255,43,-144
15.926,15.74,-5.26,-7.57,2.51,-10.08,4.81,-1.99,-2.50,-6.28,-1.48,231.00,536.00,395.00,458.00,795.00,1355.00,503.00,560.00,,,,,,,,,,,,0,0,0,,-3844,15720,-2596,59,35,31
15.946,15.79,-5.35,0.14,-6.28,1.06,-5.05,-7.11,0.78,-12.20,2.69,323.00,500.00,550.00,384.00,731.00,1520.00,447.00,633.00,,,,,,,,,,,,0,0,0,,-3836,15856,-2624,72,317,-12
15.988,15.85,-5.49,-10.20,0.72,-13.49,2.74,-8.23,3.69,-9.89,2.54,267.00,624.00,470.00,554.00,637.00,1469.00,432.00,580.00,,,,,,,,,,,,0,0,0,,-3864,15888,-2780,-17,379,-228
16.029,15.90,-5.28,-11.45,7.81,-12.47,7.53,-1.27,-3.29,-4.34,-2.43,186.00,542.00,356.00,468.00,819.00,1345.00,511.00,532.00,,,,,,,,,,,,0,0,0,,-3760,15692,-2816,85,75,-193
16.091,15.96,-5.41,4.89,-10.33,5.49,-7.81,-7.78,0.43,-12.59,1.93,369.00,462.00,589.00,347.00,754.00,1575.00,469.00,656.00,,,,,,,,,,,,0,0,0,,-3828,15664,-2676,270,-29,-189
16.133,16.01,-5.59,-12.38,2.01,-13.74,2.52,-9.09,4.16,-13.34,5.45,259.00,657.00,478.00,563.00,631.00,1501.00,393.00,615.00,,,,,,,,,,,,0,0,0,,-3848,15812,-2768,104,24,-389
16.195,16.07,-5.51,-13.70,8.87,-13.66,6.97,-3.89,-2.09,-5.50,-1.89,183.00,576.00,375.00,498.00,805.00,1445.00,507.00,549.00,,,,,,,,,,,,0,0,0,,-3916,15604,-2816,104,69,-313
16.318,16.12,-5.54,-1.11,-6.25,-3.15,-2.71,-6.16,-0.57,-9.58,-0.23,330.00,525.00,523.00,426.00,773.00,1518.00,499.00,617.00,,,,,,,,,,,,0,0,0,,-3960,15884,-2768,40,159,-414
16.338,16.18,-5.60,-7.33,-0.59,-7.80,0.40,-6.85,1.81,-12.32,4.05,272.00,577.00,481.00,471.00,688.00,1463.00,416.00,613.00,,,,,,,,,,,,0,0,0,,-3832,15636,-2876,-183,49,-304
16.379,16.23,-5.62,-8.32,1.97,-10.45,2.61,-5.94,1.37,-7.58,0.45,241.00,560.00,448.00,493.00,693.00,1428.00,464.00,560.00,,,,,,,,,,,,0,0,0,,-3916,15640,-2632,137,-48,-88
16.399,16.29,-5.49,-6.69,1.35,-9.63,4.15,-3.05,-1.50,-7.27,-0.74,242.00,534.00,406.00,458.00,768.00,1376.00,492.00,571.00,,,,,,,,,,,,0,0,0,,-3744,15724,-2824,144,229,-111
16.481,16.34,-5.59,-3.38,-2.98,-0.64,-3.12,-7.46,0.92,-12.53,2.76,288.00,526.00,511.00,390.00,730.00,1535.00,448.00,640.00,,,,,,,,,,,,0,0,0,,-3912,15904,-2856,36,306,-259
16.543,16.40,-5.70,-10.52,1.32,-13.32,2.49,-7.72,2.90,-9.13,1.61,260.00,622.00,475.00,554.00,659.00,1471.00,448.00,577.00,,,,,,,,,,,,0,0,0,,-3816,15792,-3028,123,120,-310
16.585,16.45,-5.50,-11.15,7.03,-11.52,6.85,-1.67,-3.36,-5.19,-2.14,193.00,547.00,363.00,459.00,828.00,1369.00,511.00,546.00,,,,,,,,,,,,0,0,0,,-3980,15800,-2828,300,194,-451
16.668,16.51,-5.62,2.26,-7.72,4.21,-6.34,-8.03,0.56,-12.28,1.99,336.00,478.00,557.00,351.00,752.00,1585.00,465.00,647.00,,,,,,,,,,,,0,0,0,,-4012,15656,-3088,184,63,-533
16.688,16.56,-5.81,-12.70,1.70,-15.56,3.21,-9.46,4.34,-12.48,4.60,265.00,671.00,476.00,594.00,629.00,1516.00,405.00,608.00,,,,,,,,,,,,0,0,0,,-3968,15444,-3024,92,-83,-361
16.729,16.62,-5.63,-15.13,11.04,-13.83,7.38,-2.23,-3.12,-3.47,-3.15,167.00,575.00,368.00,496.00,826.00,1391.00,523.00,524.00,,,,,,,,,,,,0,0,0,,-4032,15732,-3016,-8,-64,-485
16.811,16.67,-5.63,0.55,-7.25,-0.54,-4.21,-5.63,-0.47,-10.04,0.15,338.00,505.00,541.00,400.00,761.00,1482.00,493.00,622.00,,,,,,,,,,,,0,0,0,,-4140,15704,-2908,-25,13,-401
16.872,16.73,-5.69,-8.84,0.68,-8.59,0.63,-6.79,2.08,-12.27,4.17,261.00,592.00,482.00,483.00,677.00,1449.00,413.00,610.00,,,,,,,,,,,,0,0,0,,-4148,15524,-2888,193,42,-298
16.913,16.78,-5.63,-10.32,4.93,-11.16,4.35,-4.40,-0.21,-5.64,-0.72,213.00,560.00,413.00,484.00,734.00,1402.00,477.00,535.00,,,,,,,,,,,,0,0,0,,-3956,15616,-2788,312,215,-101
16.976,16.84,-5.55,-6.12,-0.65,-6.98,1.56,-4.04,-1.22,-7.74,-0.70,267.00,551.00,445.00,442.00,770.00,1420.00,495.00,581.00,,,,,,,,,,,,0,0,0,,-4128,15720,-3064,60,248,-187
17.039,16.89,-5.60,-4.87,-1.82,-1.86,-2.64,-6.48,0.49,-11.61,2.53,278.00,541.00,509.00,404.00,734.00,1494.00,446.00,621.00,,,,,,,,,,,,0,0,0,,-4060,15684,-3100,61,195,-177
17.08,16.95,-5.69,-10.64,1.79,-12.92,2.79,-7.43,2.71,-9.17,1.67,254.00,617.00,464.00,541.00,662.00,1461.00,447.00,577.00,,,,,,,,,,,,0,0,0,,-4128,15736,-2976,280,174,-237
17.141,17.00,-5.51,-8.61,2.54,-11.32,5.60,-2.21,-3.02,-6.02,-1.86,235.00,558.00,387.00,471.00,821.00,1386.00,511.00,560.00,,,,,,,,,,,,0,0,0,,-4060,15572,-3140,461,115,-383
17.202,17.06,-5.64,0.46,-7.33,1.87,-5.76,-8.09,0.58,-11.85,1.88,340.00,508.00,563.00,379.00,752.00,1588.00,464.00,638.00,,,,,,,,,,,,0,0,0,,-4060,15560,-3224,540,160,-159
17.242,17.11,-5.79,-11.89,1.63,-14.10,2.52,-8.66,3.78,-11.23,3.69,262.00,651.00,481.00,571.00,639.00,1491.00,416.00,593.00,,,,,,,,,,,,0,0,0,,-4228,15552,-3100,298,197,-374
17.304,17.17,-5.53,-13.25,9.65,-12.84,8.40,-0.53,-3.76,-2.40,-3.79,174.00,554.00,342.00,464.00,829.00,1323.00,531.00,511.00,,,,,,,,,,,,0,0,0,,-4132,15368,-3332,-68,185,-193
17.406,17.22,-5.57,4.84,-9.45,2.76,-3.57,-6.37,0.03,-10.84,0.80,352.00,452.00,492.00,345.00,751.00,1506.00,483.00,631.00,,,,,,,,,,,,0,0,0,,-3968,15596,-3524,103,186,24
17.426,17.28,-5.67,-10.02,0.45,-10.86,1.09,-7.46,2.56,-12.25,4.08,270.00,624.00,490.00,522.00,668.00,1469.00,415.00,611.00,,,,,,,,,,,,0,0,0,,-4088,15752,-3240,-22,180,-46
17.446,17.33,-5.57,-10.19,4.54,-10.23,4.31,-3.75,-0.90,-5.21,-1.36,217.00,563.00,407.00,467.00,753.00,1392.00,490.00,535.00,,,,,,,,,,,,0,0,0,,-4100,15560,-3396,-426,133,-227
17.509,17.39,-5.54,-1.57,-3.90,-3.56,-0.32,-5.05,-0.66,-8.90,-0.30,293.00,502.00,463.00,406.00,761.00,1456.00,495.00,602.00,,,,,,,,,,,,0,0,0,,-4164,15560,-3392,-195,71,-262
17.611,17.44,-5.59,-6.06,-1.15,-3.98,-1.93,-6.35,0.32,-11.56,2.64,274.00,557.00,509.00,431.00,739.00,1493.00,443.00,618.00,,,,,,,,,,,,0,0,0,,-4124,15588,-3384,-25,2,-196
17.632,17.50,-5.67,-8.88,1.05,-10.46,1.88,-7.36,1.98,-8.83,1.43,256.00,587.00,466.00,503.00,688.00,1486.00,450.00,573.00,,,,,,,,,,,,0,0,0,,-4156,15416,-3260,-95,-37,-134
17.672,17.55,-5.54,-9.36,3.51,-10.67,4.64,-2.92,-2.85,-6.57,-2.03,226.00,560.00,403.00,471.00,824.00,1419.00,521.00,575.00,,,,,,,,,,,,0,0,0,,-4224,15720,-3236,-55,189,2
17.773,17.61,-5.62,-0.27,-6.48,1.38,-5.43,-7.26,0.62,-11.91,2.26,329.00,511.00,558.00,383.00,739.00,1535.00,455.00,633.00,,,,,,,,,,,,0,0,0,,-4128,15400,-2976,-666,108,-150
17.794,17.66,-5.72,-11.16,2.25,-13.25,2.94,-7.68,3.59,-10.67,3.50,250.00,622.00,463.00,546.00,634.00,1441.00,416.00,583.00,,,,,,,,,,,,0,0,0,,-4132,15524,-3124,-580,-69,-19
17.836,17.72,-5.47,-12.29,9.54,-11.92,7.76,-0.61,-3.42,-3.47,-3.22,172.00,535.00,348.00,455.00,815.00,1315.00,525.00,525.00,,,,,,,,,,,,0,0,0,,-4192,15764,-3048,-250,96,-54
17.896,17.77,-5.56,5.49,-10.49,6.57,-7.76,-7.26,0.62,-11.88,1.46,368.00,453.00,576.00,332.00,739.00,1535.00,475.00,646.00,,,,,,,,,,,,0,0,0,,-4148,15804,-2836,-223,199,-47
17.958,17.83,-5.70,-11.18,0.70,-13.05,2.17,-8.29,4.10,-12.52,4.85,272.00,649.00,481.00,553.00,624.00,1457.00,400.00,605.00,,,,,,,,,,,,0,0,0,,-3960,15644,-3076,-177,289,-22
18.02,17.88,-5.57,-10.67,5.31,-11.16,4.89,-3.13,-1.76,-5.07,-1.56,210.00,562.00,401.00,477.00,780.00,1390.00,494.00,535.00,,,,,,,,,,,,0,0,0,,-3996,15664,-3192,150,219,-171
18.144,17.94,-5.56,-0.30,-5.25,-1.95,-2.13,-5.34,-0.47,-8.98,-0.32,308.00,495.00,496.00,400.00,757.00,1465.00,496.00,604.00,,,,,,,,,,,,0,0,0,,-4060,15724,-3232,275,116,-246
18.165,17.99,-5.66,-8.29,-0.13,-7.32,0.01,-7.59,1.87,-13.35,5.22,270.00,592.00,487.00,467.00,695.00,1504.00,398.00,619.00,,,,,,,,,,,,0,0,0,,-4056,15544,-3308,102,84,-240
18.185,18.05,-5.72,-9.41,1.52,-10.38,2.05,-6.83,1.53,-8.22,0.66,252.00,592.00,461.00,499.00,698.00,1473.00,464.00,571.00,,,,,,,,,,,,0,0,0,,-4252,15956,-3324,-86,195,-461
18.227,18.10,-5.56,-6.80,1.16,-8.81,3.51,-2.65,-1.68,-7.03,-0.63,245.00,539.00,414.00,451.00,770.00,1361.00,487.00,564.00,,,,,,,,,,,,0,0,0,,-4112,15400,-3236,-563,64,-117
18.308,18.16,-5.61,-0.08,-6.32,1.30,-4.52,-6.48,0.56,-11.96,2.69,325.00,505.00,532.00,375.00,731.00,1491.00,445.00,627.00,,,,,,,,,,,,0,0,0,,-4248,15532,-2936,-226,-25,4
18.351,18.21,-5.68,-9.75,1.27,-12.49,2.65,-7.00,3.19,-9.44,2.26,257.00,604.00,464.00,534.00,640.00,1418.00,435.00,574.00,,,,,,,,,,,,0,0,0,,-4184,15836,-2976,133,275,14
18.391,18.27,-5.43,-10.25,7.01,-11.48,7.20,-0.62,-3.48,-4.41,-2.26,190.00,528.00,356.00,454.00,818.00,1318.00,507.00,531.00,,,,,,,,,,,,0,0,0,,-3968,15688,-3112,-10,495,-108
18.454,18.32,-5.52,3.92,-8.17,5.96,-6.97,-7.24,0.64,-12.35,2.09,334.00,453.00,558.00,333.00,738.00,1533.00,463.00,647.00,,,,,,,,,,,,0,0,0,,-4040,15676,-3152,77,347,-90
18.496,18.38,-5.64,-12.52,2.27,-14.12,3.07,-7.95,3.95,-12.26,4.90,256.00,656.00,467.00,563.00,625.00,1443.00,397.00,598.00,,,,,,,,,,,,0,0,0,,-4084,15680,-3152,268,106,-174
18.558,18.43,-5.43,-14.07,10.79,-12.84,8.40,-1.52,-3.00,-3.15,-2.68,166.00,555.00,342.00,464.00,810.00,1348.00,507.00,511.00,,,,,,,,,,,,0,0,0,,-4040,15616,-3212,177,124,-206
18.641,18.49,-5.44,0.82,-7.12,-0.59,-3.95,-5.68,-0.55,-9.78,-0.05,334.00,498.00,534.00,398.00,765.00,1488.00,496.00,619.00,,,,,,,,,,,,0,0,0,,-4008,15404,-3320,76,142,-23
18.661,18.54,-5.51,-8.45,-0.15,-9.96,2.65,-6.83,1.85,-4.57,1.67,271.00,596.00,443.00,483.00,686.00,1460.00,411.00,481.00,,,,,,,,,,,,0,0,0,,-4056,15516,-3144,-231,144,-272
18.722,18.60,-5.43,-10.41,6.22,-10.33,4.61,-3.86,-0.06,-6.05,-0.11,199.00,543.00,401.00,465.00,721.00,1367.00,465.00,535.00,,,,,,,,,,,,0,0,0,,-4148,15632,-3144,-411,76,-75
18.785,18.65,-5.28,-4.97,-0.55,-7.28,2.25,-2.50,-1.45,-7.27,-0.74,260.00,525.00,431.00,439.00,758.00,1344.00,492.00,571.00,,,,,,,,,,,,0,0,0,,-4060,15736,-3120,46,164,129
18.887,18.71,-5.28,-2.60,-3.04,-0.32,-3.01,-5.19,0.00,-10.81,2.26,285.00,511.00,505.00,384.00,736.00,1438.00,446.00,606.00,,,,,,,,,,,,0,0,0,,-4044,15572,-3108,48,335,9
18.908,18.76,-5.34,-9.96,2.45,-11.48,2.79,-6.46,2.64,-8.68,1.67,242.00,590.00,452.00,511.00,653.00,1409.00,443.00,566.00,,,,,,,,,,,,0,0,0,,-3928,15676,-3292,-91,287,-119
18.97,18.82,-5.10,-7.87,3.51,-9.99,5.25,-0.53,-3.45,-5.67,-1.98,220.00,528.00,385.00,451.00,815.00,1312.00,511.00,554.00,,,,,,,,,,,,0,0,0,,-3924,15680,-3248,73,168,-115
18.991,18.87,-5.15,2.81,-7.90,5.40,-6.48,-6.22,0.10,-11.14,1.72,336.00,470.00,549.00,336.00,746.00,1494.00,462.00,623.00,,,,,,,,,,,,0,0,0,,-3872,15748,-3224,58,153,-142
19.073,18.93,-5.29,-11.26,2.89,-12.87,2.57,-7.97,4.07,-11.61,4.31,242.00,614.00,469.00,543.00,621.00,1439.00,405.00,592.00,,,,,,,,,,,,0,0,0,,-3960,15524,-3196,19,92,-156
19.155,18.98,-5.05,-12.86,9.63,-9.82,7.22,-0.35,-4.22,-3.10,-3.69,173.00,546.00,345.00,425.00,847.00,1330.00,535.00,524.00,,,,,,,,,,,,0,0,0,,-3932,15944,-3276,102,192,4
19.176,19.04,-5.10,5.73,-10.01,5.97,-7.65,-6.09,0.23,-10.56,0.86,357.00,443.00,579.00,339.00,739.00,1481.00,479.00,623.00,,,,,,,,,,,,0,0,0,,-3944,15572,-3208,-319,216,-386
19.237,19.09,-5.15,-7.82,-0.83,-9.62,1.84,-6.12,2.13,-11.40,3.88,278.00,592.00,460.00,487.00,667.00,1409.00,413.00,594.00,,,,,,,,,,,,0,0,0,,-3952,15428,-3284,-331,73,-371
19.279,19.15,-5.02,-9.36,5.49,-9.56,4.87,-2.44,-1.00,-4.21,-1.12,203.00,531.00,390.00,448.00,739.00,1325.00,475.00,511.00,,,,,,,,,,,,0,0,0,,-4008,15736,-3292,102,-35,-119
19.34,19.20,-4.93,1.24,-5.04,-1.30,-1.47,-3.30,-1.01,-8.35,-0.30,296.00,463.00,473.00,383.00,751.00,1371.00,490.00,589.00,,,,,,,,,,,,0,0,0,,-4120,15912,-3200,115,131,-72
19.383,19.26,-4.93,-2.71,-2.88,-2.03,-2.10,-5.02,0.07,-11.13,2.91,283.00,511.00,496.00,401.00,731.00,1426.00,433.00,603.00,,,,,,,,,,,,0,0,0,,-3988,15612,-3304,48,285,-239
19.444,19.31,-4.96,-7.83,1.66,-9.25,1.92,-5.50,1.49,-7.92,1.21,243.00,554.00,455.00,479.00,683.00,1399.00,448.00,556.00,,,,,,,,,,,,0,0,0,,-4016,15380,-3424,135,227,-145
19.506,19.37,-4.76,-5.53,1.50,-8.72,4.21,-1.00,-3.38,-6.02,-1.86,235.00,508.00,398.00,441.00,819.00,1334.00,511.00,560.00,,,,,,,,,,,,0,0,0,,-3984,15756,-3324,98,130,-93
19.588,19.42,-4.84,1.92,-7.60,3.74,-6.29,-6.37,0.13,-11.67,2.26,336.00,483.00,560.00,357.00,747.00,1502.00,453.00,627.00,,,,,,,,,,,,0,0,0,,-4092,15832,-3492,-62,152,-146
19.609,19.48,-4.99,-10.19,1.49,-12.74,2.73,-7.75,3.68,-10.41,3.37,256.00,611.00,464.00,538.00,632.00,1442.00,417.00,579.00,,,,,,,,,,,,0,0,0,,-4108,16040,-3528,-205,186,-279
19.671,19.53,-4.71,-11.42,8.82,-11.50,7.73,0.59,-3.91,-3.18,-2.64,176.00,527.00,346.00,448.00,819.00,1271.00,506.00,511.00,,,,,,,,,,,,0,0,0,,-4072,15516,-3200,-482,-59,-324
19.731,19.59,-4.78,8.32,-11.49,9.63,-8.98,-6.04,0.24,-11.25,1.64,369.00,416.00,582.00,304.00,738.00,1478.00,465.00,627.00,,,,,,,,,,,,0,0,0,,-4124,15356,-3124,-158,-146,-54
19.792,19.64,-4.88,-9.98,1.42,-10.60,1.50,-6.78,3.62,-12.28,5.04,256.00,607.00,477.00,511.00,623.00,1390.00,394.00,596.00,,,,,,,,,,,,0,0,0,,-4012,15616,-3056,71,212,-3
19.812,19.70,-4.73,-9.44,5.34,-10.70,5.73,-1.86,-1.88,-4.33,-1.81,205.00,535.00,380.00,458.00,767.00,1326.00,494.00,523.00,,,,,,,,,,,,0,0,0,,-4008,15884,-3260,-116,477,-108
19.874,19.75,-4.69,1.75,-5.70,-0.43,-2.27,-4.02,-0.64,-6.91,-1.99,304.00,462.00,486.00,378.00,746.00,1397.00,523.00,582.00,,,,,,,,,,,,0,0,0,,-4000,15672,-3352,-55,314,-126
19.976,19.81,-4.79,-6.07,-0.25,-6.34,0.54,-6.62,2.61,-12.10,4.48,261.00,544.00,465.00,443.00,656.00,1419.00,405.00,601.00,,,,,,,,,,,,0,0,0,,-3840,15708,-3292,130,54,-106
19.997,19.86,-4.82,-7.19,1.67,-8.82,2.22,-5.36,1.28,-8.12,1.23,240.00,540.00,444.00,467.00,689.00,1399.00,449.00,560.00,,,,,,,,,,,,0,0,0,,-3960,15728,-3120,20,76,-293
20.037,19.92,-4.70,-6.64,1.41,-8.88,3.94,-2.44,-1.95,-6.92,-0.67,241.00,532.00,405.00,447.00,778.00,1359.00,487.00,562.00,,,,,,,,,,,,0,0,0,,-4008,15768,-3324,-63,135,-229
20.1,19.97,-4.80,-1.09,-4.32,0.30,-3.44,-6.74,0.55,-12.06,2.89,297.00,498.00,511.00,379.00,735.00,1507.00,441.00,626.00,,,,,,,,,,,,0,0,0,,-4064,16024,-3440,-153,193,-223
20.18,20.03,-4.86,-8.53,0.79,-12.12,2.52,-6.06,2.88,-8.39,2.04,258.00,583.00,464.00,528.00,640.00,1378.00,432.00,554.00,,,,,,,,,,,,0,0,0,,-3900,15568,-3280,-329,141,-225
20.201,20.08,-4.59,-7.61,5.46,-9.08,5.78,0.54,-3.67,-4.76,-0.30,197.00,496.00,368.00,429.00,809.00,1265.00,459.00,511.00,,,,,,,,,,,,0,0,0,,-3916,15500,-3192,-12,61,-35
20.261,20.14,-4.66,4.83,-7.74,7.85,-6.96,-5.84,0.40,-11.18,1.90,321.00,432.00,539.00,309.00,729.00,1460.00,458.00,621.00,,,,,,,,,,,,0,0,0,,-4044,15672,-3176,134,284,-12
20.362,20.19,-4.77,-11.47,2.66,-13.19,3.12,-7.04,3.97,-11.62,5.35,246.00,623.00,458.00,542.00,614.00,1391.00,383.00,576.00,,,,,,,,,,,,0,0,0,,-3944,15804,-3424,-42,439,-133
20.383,20.25,-4.53,-11.63,10.42,-11.76,8.36,0.07,-3.56,-2.86,-2.38,162.00,509.00,336.00,445.00,811.00,1285.00,496.00,501.00,,,,,,,,,,,,0,0,0,,-3960,15588,-3564,31,247,-120
20.424,20.30,-4.52,2.99,-7.69,1.79,-4.54,-4.27,-1.07,-9.25,-0.04,331.00,464.00,528.00,368.00,767.00,1427.00,491.00,606.00,,,,,,,,,,,,0,0,0,,-3960,15652,-3288,142,24,-161
20.485,20.36,-4.60,-7.64,-0.08,-7.10,0.09,-6.16,1.98,-12.20,4.74,266.00,576.00,483.00,462.00,673.00,1417.00,400.00,599.00,,,,,,,,,,,,0,0,0,,-3952,15744,-3340,74,92,-236
20.569,20.41,-4.55,-9.87,5.49,-10.31,4.75,-3.53,-0.53,-5.31,-0.71,205.00,542.00,398.00,463.00,735.00,1366.00,474.00,528.00,,,,,,,,,,,,0,0,0,,-3988,15556,-3404,-101,125,-143
20.589,20.47,-4.48,-3.04,-1.06,-7.09,1.73,-3.23,-1.54,-6.91,-1.01,258.00,493.00,442.00,442.00,772.00,1387.00,496.00,567.00,,,,,,,,,,,,0,0,0,,-4080,15996,-3228,-70,243,-104
20.712,20.52,-4.50,-2.41,-2.58,-0.19,-2.72,-4.93,0.04,-10.41,2.42,277.00,501.00,496.00,379.00,731.00,1422.00,439.00,594.00,,,,,,,,,,,,0,0,0,,-4028,15600,-3196,-521,42,-250
20.734,20.58,-4.55,-8.50,2.11,-9.35,1.75,-5.45,2.38,-7.87,1.61,240.00,562.00,460.00,483.00,650.00,1363.00,438.00,549.00,,,,,,,,,,,,0,0,0,,-4044,15544,-3340,-190,-71,-129
20.754,20.63,-4.30,-5.10,1.76,-8.18,4.45,0.49,-3.56,-4.68,-2.13,230.00,496.00,389.00,429.00,805.00,1264.00,506.00,535.00,,,,,,,,,,,,0,0,0,,-4000,15672,-3224,88,84,-118
20.815,20.69,-4.38,3.64,-7.34,6.70,-6.58,-5.88,0.51,-11.06,2.26,321.00,448.00,539.00,320.00,725.00,1458.00,448.00,612.00,,,,,,,,,,,,0,0,0,,-3952,15924,-3304,-91,317,-68
20.876,20.74,-4.49,-9.54,1.71,-11.81,2.42,-6.70,3.74,-10.44,4.19,250.00,592.00,464.00,523.00,618.00,1381.00,399.00,567.00,,,,,,,,,,,,0,0,0,,-3924,15652,-3444,-126,227,-170
20.939,20.80,-4.22,-9.81,7.66,-11.28,7.66,0.94,-4.32,-1.38,-4.03,182.00,510.00,346.00,445.00,832.00,1267.00,528.00,494.00,,,,,,,,,,,,0,0,0,,-3880,15716,-3360,47,24,-178
20.979,20.85,-4.30,6.89,-10.96,7.69,-8.04,-5.84,0.05,-10.56,0.86,368.00,434.00,573.00,320.00,743.00,1474.00,479.00,623.00,,,,,,,,,,,,0,0,0,,-4032,15712,-3384,-19,-10,-264
21.083,20.91,-4.42,-9.29,0.41,-10.43,1.25,-6.59,1.99,-11.85,3.85,267.00,607.00,482.00,511.00,678.00,1441.00,417.00,605.00,,,,,,,,,,,,0,0,0,,-3908,15452,-3304,-107,45,-206
21.102,20.96,-4.33,-9.75,5.18,-10.44,4.70,-2.73,-1.49,-3.84,-1.67,208.00,544.00,400.00,466.00,763.00,1358.00,486.00,511.00,,,,,,,,,,,,0,0,0,,-3944,15864,-3336,7,185,-117
21.205,21.02,-4.29,0.83,-4.58,-1.71,-1.26,-3.42,-1.26,-8.23,-0.23,291.00,465.00,471.00,387.00,763.00,1387.00,487.00,585.00,,,,,,,,,,,,0,0,0,,-3980,15584,-3292,-485,47,-167
21.225,21.07,-4.30,-4.30,-1.41,-2.28,-1.64,-4.55,0.12,-10.84,2.86,269.00,523.00,486.00,400.00,723.00,1398.00,432.00,597.00,,,,,,,,,,,,0,0,0,,-3940,15520,-3180,-243,-28,-188
21.246,21.13,-4.33,-6.27,0.17,-7.89,1.10,-4.84,1.48,-7.18,0.79,256.00,542.00,464.00,464.00,675.00,1363.00,452.00,546.00,,,,,,,,,,,,0,0,0,,-4020,15700,-3108,48,135,-48
21.307,21.18,-4.14,-6.00,2.63,-8.37,4.47,-0.67,-2.99,-5.85,-1.44,223.00,502.00,390.00,432.00,797.00,1303.00,498.00,550.00,,,,,,,,,,,,0,0,0,,-3884,15816,-3372,-42,299,-41
21.368,21.24,-4.23,0.97,-6.44,2.78,-5.40,-5.91,0.60,-11.37,2.66,321.00,486.00,543.00,362.00,722.00,1456.00,441.00,613.00,,,,,,,,,,,,0,0,0,,-3900,15588,-3376,-37,257,-171
21.45,21.29,-4.35,-10.01,2.09,-12.48,2.84,-6.50,3.32,-9.26,3.11,247.00,597.00,459.00,531.00,630.00,1386.00,414.00,557.00,,,,,,,,,,,,0,0,0,,-3932,15708,-3248,163,94,-240
21.51,21.35,-4.12,-10.59,7.52,-11.14,7.45,0.22,-3.72,-2.57,-2.95,186.00,528.00,349.00,445.00,816.00,1283.00,509.00,503.00,,,,,,,,,,,,0,0,0,,-3912,15696,-3284,54,120,-229
21.531,21.40,-4.25,6.55,-10.54,7.05,-8.02,-6.70,0.19,-12.11,1.97,362.00,435.00,579.00,328.00,749.00,1519.00,464.00,643.00,,,,,,,,,,,,0,0,0,,-3972,15528,-3380,-35,110,-226
21.592,21.46,-4.41,-11.76,2.02,-13.21,2.81,-7.52,3.63,-11.93,4.79,256.00,641.00,466.00,547.00,631.00,1431.00,397.00,592.00,,,,,,,,,,,,0,0,0,,-3964,15624,-3292,46,231,-53
21.653,21.51,-4.27,-12.79,8.97,-15.57,7.96,-1.66,-2.52,-4.35,-1.98,179.00,554.00,368.00,523.00,791.00,1338.00,499.00,526.00,,,,,,,,,,,,0,0,0,,-4000,15456,-3324,-232,112,-208
21.693,21.57,-4.26,2.69,-7.25,0.02,-2.83,-4.06,-0.50,-8.75,0.40,325.00,464.00,497.00,377.00,741.00,1394.00,475.00,587.00,,,,,,,,,,,,0,0,0,,-3984,15572,-3172,-155,17,-192
21.755,21.62,-4.32,-7.23,0.64,-6.27,0.51,-5.46,1.77,-11.77,4.55,254.00,556.00,465.00,442.00,672.00,1386.00,401.00,592.00,,,,,,,,,,,,0,0,0,,-3932,15692,-3276,210,220,-13
21.835,21.68,-4.33,-7.52,2.57,-9.09,2.86,-4.39,0.90,-7.47,1.01,230.00,534.00,431.00,464.00,691.00,1360.00,449.00,549.00,,,,,,,,,,,,0,0,0,,-3832,15676,-3432,-41,359,-32
21.855,21.73,-4.20,-5.39,1.07,-7.36,3.07,-1.83,-1.82,-6.97,-0.46,240.00,511.00,413.00,431.00,764.00,1322.00,482.00,560.00,,,,,,,,,,,,0,0,0,,-3988,15616,-3456,-121,218,-215
21.917,21.79,-4.28,-1.90,-2.89,0.94,-3.29,-5.77,0.35,-11.74,3.08,279.00,495.00,501.00,368.00,730.00,1458.00,434.00,615.00,,,,,,,,,,,,0,0,0,,-4004,15768,-3432,57,73,-151
21.96,21.84,-4.38,-9.97,2.15,-11.40,2.68,-6.39,2.93,-8.57,2.10,246.00,595.00,454.00,511.00,642.00,1394.00,432.00,557.00,,,,,,,,,,,,0,0,0,,-3916,15604,-3240,29,88,-189
22.022,21.90,-4.17,-9.93,6.62,-10.66,6.16,-0.09,-3.64,-4.77,-2.14,193.00,527.00,371.00,452.00,817.00,1296.00,507.00,537.00,,,,,,,,,,,,0,0,0,,-4028,15440,-3412,-88,96,-266
22.084,21.95,-4.28,3.23,-8.05,5.98,-6.78,-6.46,0.28,-11.13,1.64,336.00,464.00,552.00,331.00,742.00,1501.00,464.00,624.00,,,,,,,,,,,,0,0,0,,-3980,15388,-3392,-42,125,-35
22.188,22.01,-4.43,-11.66,1.07,-14.36,3.04,-7.13,3.70,-11.28,4.52,269.00,655.00,470.00,569.00,624.00,1406.00,398.00,581.00,,,,,,,,,,,,0,0,0,,-3868,15584,-3420,-283,119,-339
22.208,22.06,-4.16,-12.63,10.53,-12.20,8.84,0.92,-4.12,-1.78,-3.29,164.00,528.00,330.00,447.00,823.00,1261.00,511.00,492.00,,,,,,,,,,,,0,0,0,,-3988,15604,-3248,-347,-40,-259
22.249,22.12,-4.17,5.80,-9.34,5.72,-6.38,-4.35,-0.60,-9.18,0.17,344.00,434.00,543.00,331.00,749.00,1414.00,485.00,601.00,,,,,,,,,,,,0,0,0,,-3944,15680,-3060,108,103,21
22.31,22.17,-4.22,-8.37,-0.64,-7.12,-0.21,-5.12,1.61,-11.13,3.92,278.00,602.00,491.00,466.00,674.00,1374.00,410.00,587.00,,,,,,,,,,,,0,0,0,,-3884,15732,-3312,31,293,-76
22.373,22.23,-4.12,-8.61,4.53,-9.51,4.38,-2.32,-1.01,-3.92,-1.10,211.00,529.00,400.00,453.00,738.00,1319.00,472.00,505.00,,,,,,,,,,,,0,0,0,,-3972,15772,-3344,-79,274,-171
22.415,22.28,-4.03,-1.19,-3.26,-3.19,-0.12,-2.21,-1.40,-6.64,-0.88,281.00,486.00,455.00,398.00,752.00,1327.00,490.00,559.00,,,,,,,,,,,,0,0,0,,-3944,15656,-3456,109,144,-138
22.475,22.34,-4.07,-4.11,-1.61,-1.54,-1.89,-4.91,-0.04,-10.05,2.00,271.00,522.00,486.00,391.00,734.00,1424.00,446.00,592.00,,,,,,,,,,,,0,0,0,,-3924,15644,-3404,120,153,-128
22.537,22.39,-4.16,-6.35,-0.92,-8.97,1.58,-5.79,2.02,-8.15,1.41,272.00,560.00,461.00,478.00,667.00,1395.00,445.00,558.00,,,,,,,,,,,,0,0,0,,-3988,15520,-3424,-10,136,-323
22.579,22.45,-3.99,-6.89,2.28,-9.94,5.43,-0.84,-3.37,-6.54,-1.69,231.00,525.00,381.00,448.00,816.00,1325.00,511.00,569.00,,,,,,,,,,,,0,0,0,,-3940,15604,-3340,-72,95,-122
22.62,22.50,-4.11,1.32,-7.18,5.24,-6.79,-6.42,0.29,-11.85,2.53,332.00,489.00,560.00,341.00,741.00,1498.00,448.00,627.00,,,,,,,,,,,,0,0,0,,-3912,16052,-3640,-90,189,-103
22.682,22.56,-4.24,-9.76,1.35,-12.18,2.54,-6.74,3.96,-9.96,3.48,256.00,603.00,464.00,529.00,611.00,1375.00,411.00,567.00,,,,,,,,,,,,0,0,0,,-3920,15608,-3400,-399,100,-199
22.742,22.61,-3.93,-10.44,8.81,-10.96,8.04,2.04,-4.89,-2.30,-3.65,173.00,507.00,337.00,435.00,841.00,1232.00,526.00,507.00,,,,,,,,,,,,0,0,0,,-3948,15420,-3324,-116,6,-13
22.803,22.67,-3.99,7.18,-11.20,9.32,-8.52,-5.23,0.04,-10.48,1.22,371.00,432.00,571.00,304.00,735.00,1439.00,469.00,615.00,,,,,,,,,,,,0,0,0,,-3856,15788,-3248,64,200,7
22.865,22.72,-4.10,-8.45,-0.21,-9.76,1.37,-6.03,2.72,-11.86,4.49,272.00,597.00,473.00,496.00,645.00,1382.00,403.00,595.00,,,,,,,,,,,,0,0,0,,-3836,15924,-3404,-63,411,-51
22.927,22.78,-3.97,-8.43,3.36,-10.04,4.42,-1.50,-1.76,-3.87,-1.54,224.00,542.00,403.00,462.00,757.00,1303.00,483.00,510.00,,,,,,,,,,,,0,0,0,,-3804,15752,-3492,51,243,-170
22.989,22.83,-3.94,1.90,-5.20,-1.90,-1.08,-3.42,-0.94,-8.48,0.00,295.00,453.00,468.00,388.00,750.00,1375.00,483.00,587.00,,,,,,,,,,,,0,0,0,,-3900,15548,-3436,142,54,-181
23.009,22.89,-4.00,-5.70,-1.14,-4.94,-0.60,-5.22,0.81,-11.17,3.23,272.00,549.00,482.00,432.00,705.00,1409.00,426.00,599.00,,,,,,,,,,,,0,0,0,,-3956,15776,-3436,65,124,-171
23.071,22.94,-4.06,-7.07,0.80,-8.53,1.96,-5.15,1.15,-7.91,1.12,251.00,550.00,448.00,465.00,691.00,1392.00,450.00,557.00,,,,,,,,,,,,0,0,0,,-3968,15592,-3392,4,131,-259
23.112,23.00,-3.94,-6.58,1.39,-9.22,4.29,-1.75,-2.32,-6.54,-1.10,241.00,531.00,400.00,449.00,784.00,1336.00,495.00,560.00,,,,,,,,,,,,0,0,0,,-3880,15460,-3388,-1,144,-188
23.175,23.05,-4.06,-0.42,-6.26,2.28,-5.26,-6.24,0.43,-12.04,3.52,326.00,511.00,544.00,368.00,733.00,1482.00,426.00,615.00,,,,,,,,,,,,0,0,0,,-3960,15600,-3480,-146,159,-355
23.297,23.11,-4.16,-8.92,0.92,-11.02,2.11,-6.01,3.33,-8.74,2.28,258.00,590.00,465.00,511.00,624.00,1359.00,429.00,558.00,,,,,,,,,,,,0,0,0,,-3988,15716,-3356,-213,99,-187
23.318,23.16,-3.89,-9.65,7.51,-9.85,6.91,1.28,-3.90,-3.34,-2.32,183.00,509.00,351.00,429.00,808.00,1236.00,499.00,510.00,,,,,,,,,,,,0,0,0,,-3988,15556,-3204,148,140,5
23.359,23.22,-3.98,6.29,-9.02,8.59,-7.45,-5.84,0.50,-11.25,1.64,335.00,422.00,546.00,304.00,725.00,1456.00,465.00,627.00,,,,,,,,,,,,0,0,0,,-3904,15584,-3364,66,284,-61
23.401,23.27,-4.12,-10.26,0.81,-11.98,1.96,-6.65,4.23,-12.13,6.11,266.00,624.00,477.00,533.00,601.00,1360.00,371.00,576.00,,,,,,,,,,,,0,0,0,,-3820,15704,-3588,-50,367,-205
23.462,23.33,-3.94,-11.86,9.18,-10.30,6.54,-0.53,-2.73,-2.99,-2.48,174.00,531.00,361.00,441.00,784.00,1287.00,500.00,505.00,,,,,,,,,,,,0,0,0,,-3900,15716,-3660,31,254,-176
23.524,23.38,-3.94,2.03,-7.31,1.23,-3.72,-4.03,-0.76,-8.56,-0.31,330.00,477.00,510.00,368.00,751.00,1402.00,492.00,594.00,,,,,,,,,,,,0,0,0,,-3836,15664,-3684,85,55,-177
23.585,23.44,-4.04,-7.90,0.58,-6.13,-0.20,-5.90,1.95,-11.77,4.55,258.00,572.00,482.00,448.00,671.00,1404.00,401.00,592.00,,,,,,,,,,,,0,0,0,,-3908,15784,-3516,-50,75,-257
23.647,23.49,-4.05,-10.09,5.47,-10.26,4.59,-4.17,0.09,-6.29,-0.38,206.00,547.00,401.00,464.00,719.00,1378.00,474.00,544.00,,,,,,,,,,,,0,0,0,,-3868,15608,-3596,-46,104,-286
23.667,23.55,-3.97,-5.80,0.45,-7.82,3.31,-2.61,-1.72,-6.88,-0.98,250.00,528.00,411.00,436.00,771.00,1360.00,495.00,566.00,,,,,,,,,,,,0,0,0,,-3848,15496,-3456,28,129,-167
23.727,23.60,-4.04,-3.67,-2.68,-0.94,-2.40,-5.35,-0.22,-9.16,2.04,285.00,528.00,494.00,387.00,747.00,1456.00,438.00,571.00,,,,,,,,,,,,0,0,0,,-3852,15596,-3556,-126,177,-394
23.788,23.66,-4.11,-9.68,1.98,-11.55,2.89,-5.30,2.34,-7.64,1.40,247.00,591.00,450.00,511.00,650.00,1357.00,441.00,547.00,,,,,,,,,,,,0,0,0,,-3944,15592,-3676,-437,0,-170
23.83,23.71,-3.84,-7.37,4.74,-9.42,6.45,1.24,-3.75,-4.07,-2.19,204.00,501.00,357.00,427.00,802.00,1233.00,502.00,523.00,,,,,,,,,,,,0,0,0,,-3960,15544,-3252,-14,57,-15
23.891,23.77,-3.91,4.60,-7.66,7.14,-6.76,-5.23,0.24,-10.51,1.75,321.00,435.00,540.00,316.00,727.00,1431.00,456.00,607.00,,,,,,,,,,,,0,0,0,,-3848,15760,-3352,-64,264,-110
23.953,23.82,-4.04,-10.47,2.70,-12.06,2.78,-6.51,4.01,-10.80,4.27,241.00,598.00,457.00,523.00,607.00,1361.00,400.00,574.00,,,,,,,,,,,,0,0,0,,-3884,15664,-3524,-213,214,-269
24.014,23.88,-3.76,-12.72,11.02,-11.38,8.90,1.46,-4.43,-1.31,-3.98,160.00,523.00,324.00,432.00,829.00,1245.00,526.00,492.00,,,,,,,,,,,,0,0,0,,-3844,15652,-3544,-38,71,-189
24.097,23.93,-3.84,6.13,-9.40,6.29,-6.78,-5.31,-0.11,-9.77,0.37,343.00,429.00,549.00,327.00,742.00,1449.00,485.00,612.00,,,,,,,,,,,,0,0,0,,-3932,15608,-3600,94,17,-205
24.116,23.99,-3.95,-8.01,-0.22,-8.22,0.39,-5.93,1.90,-11.61,3.99,270.00,587.00,485.00,479.00,673.00,1407.00,412.00,597.00,,,,,,,,,,,,0,0,0,,-3904,15644,-3576,-69,62,-310
24.179,24.04,-3.88,-8.87,4.36,-9.66,4.43,-2.69,-1.16,-3.94,-1.44,214.00,537.00,400.00,455.00,749.00,1344.00,481.00,510.00,,,,,,,,,,,,0,0,0,,-4108,15476,-3476,-129,62,-316
24.259,24.10,-3.86,3.65,-10.17,-2.66,-0.90,-3.42,-1.47,-7.57,-1.01,374.00,483.00,470.00,398.00,772.00,1395.00,502.00,582.00,,,,,,,,,,,,0,0,0,,-3752,15364,-3368,-58,38,-150
24.28,24.15,-3.93,-4.50,-1.88,-2.83,-1.76,-5.21,0.01,-10.87,2.66,277.00,534.00,494.00,410.00,736.00,1439.00,437.00,601.00,,,,,,,,,,,,0,0,0,,-3888,15504,-3520,-273,48,-366
24.36,24.21,-3.99,-6.83,1.55,-8.46,1.94,-5.13,1.80,-8.01,1.40,240.00,534.00,448.00,464.00,667.00,1367.00,444.00,555.00,,,,,,,,,,,,0,0,0,,-3948,15684,-3560,-463,-31,-161
24.401,24.26,-3.77,-6.34,3.50,-8.92,5.28,0.26,-3.58,-5.61,-2.00,214.00,497.00,377.00,432.00,809.00,1276.00,511.00,553.00,,,,,,,,,,,,0,0,0,,-3972,15636,-3144,18,92,-9
24.441,24.32,-3.86,2.60,-6.87,5.67,-6.09,-5.50,0.36,-11.08,2.23,319.00,461.00,535.00,329.00,726.00,1442.00,449.00,613.00,,,,,,,,,,,,0,0,0,,-3972,15588,-3396,37,217,-101
24.503,24.37,-4.00,-10.14,2.59,-11.59,3.03,-6.73,3.84,-10.03,3.33,241.00,592.00,447.00,510.00,615.00,1379.00,415.00,571.00,,,,,,,,,,,,0,0,0,,-3904,15812,-3504,-159,233,-224
24.563,24.43,-3.75,-10.31,8.77,-11.26,8.47,1.02,-4.19,-2.58,-3.52,173.00,505.00,331.00,435.00,825.00,1259.00,525.00,511.00,,,,,,,,,,,,0,0,0,,-3928,15644,-3460,13,116,-160
24.626,24.48,-3.88,7.42,-11.14,8.99,-8.28,-6.20,0.34,-11.34,1.24,368.00,427.00,567.00,306.00,736.00,1483.00,476.00,636.00,,,,,,,,,,,,0,0,0,,-3848,15600,-3520,145,5,-213
24.668,24.54,-4.04,-9.79,1.14,-11.05,2.16,-7.17,3.42,-12.09,4.70,259.00,607.00,464.00,511.00,634.00,1419.00,400.00,597.00,,,,,,,,,,,,0,0,0,,-4016,15704,-3472,-28,66,-226
24.75,24.59,-3.97,-9.29,3.82,-10.30,4.65,-2.54,-1.75,-4.80,-1.53,222.00,554.00,400.00,464.00,771.00,1357.00,491.00,529.00,,,,,,,,,,,,0,0,0,,-4004,15416,-3408,-117,125,-226
24.77,24.65,-3.99,0.47,-5.39,-0.91,-1.95,-4.56,-0.95,-8.98,0.06,306.00,482.00,482.00,382.00,766.00,1439.00,486.00,598.00,,,,,,,,,,,,0,0,0,,-3904,15436,-3464,-30,133,-40
24.832,24.70,-4.11,-7.47,-0.13,-6.59,0.15,-6.25,1.15,-11.99,3.81,266.00,573.00,477.00,452.00,705.00,1454.00,419.00,609.00,,,,,,,,,,,,0,0,0,,-3924,15484,-3332,-232,79,-278
24.892,24.76,-4.14,-6.26,1.13,-8.39,2.08,-4.67,1.15,-7.11,0.69,243.00,528.00,444.00,461.00,685.00,1366.00,454.00,546.00,,,,,,,,,,,,0,0,0,,-3784,15680,-3440,-295,9,-199
24.953,24.81,-3.98,-5.07,1.19,-7.18,4.11,-1.09,-2.16,-6.43,-1.06,237.00,503.00,389.00,416.00,768.00,1296.00,493.00,557.00,,,,,,,,,,,,0,0,0,,-3876,15592,-3300,62,134,-36
24.995,24.87,-4.08,0.92,-6.14,3.06,-5.08,-5.86,0.53,-11.48,2.69,316.00,483.00,531.00,355.00,724.00,1456.00,441.00,615.00,,,,,,,,,,,,0,0,0,,-3872,15800,-3244,55,209,-86
25.037,24.92,-4.19,-9.35,1.42,-11.33,2.58,-6.27,2.98,-9.13,2.33,253.00,592.00,456.00,511.00,639.00,1386.00,431.00,566.00,,,,,,,,,,,,0,0,0,,-3868,15668,-3396,-182,214,-157
25.12,24.98,-3.97,-9.72,7.53,-8.78,4.56,0.13,-3.74,-4.41,-2.04,183.00,510.00,391.00,438.00,818.00,1288.00,501.00,528.00,,,,,,,,,,,,0,0,0,,-3872,15604,-3492,11,171,-187
25.161,25.03,-4.11,4.38,-8.43,6.60,-6.54,-6.83,0.50,-12.11,1.97,336.00,448.00,539.00,321.00,738.00,1514.00,464.00,643.00,,,,,,,,,,,,0,0,0,,-3896,15568,-3532,116,67,-200
25.222,25.09,-4.29,-11.61,1.97,-13.38,3.07,-7.69,3.98,-12.10,5.03,256.00,638.00,461.00,547.00,621.00,1427.00,393.00,592.00,,,,,,,,,,,,0,0,0,,-4040,15644,-3332,-16,93,-171
25.264,25.14,-4.14,-13.41,10.57,-12.11,7.72,-1.20,-3.22,-3.02,-2.87,166.00,544.00,350.00,459.00,815.00,1339.00,511.00,511.00,,,,,,,,,,,,0,0,0,,-3840,15504,-3392,-87,147,-245
25.326,25.20,-4.20,0.69,-6.63,-0.62,-3.06,-5.42,-0.78,-9.38,-0.22,326.00,494.00,509.00,389.00,771.00,1482.00,497.00,612.00,,,,,,,,,,,,0,0,0,,-3932,15504,-3544,3,211,-18
25.388,25.25,-4.32,-7.90,-0.40,-7.91,0.10,-6.56,1.84,-12.01,3.91,272.00,587.00,490.00,477.00,683.00,1445.00,417.00,608.00,,,,,,,,,,,,0,0,0,,-3772,15456,-3364,-295,137,-120
25.49,25.31,-4.29,-9.61,5.31,-10.24,4.72,-3.67,-0.03,-5.33,-0.90,206.00,539.00,398.00,462.00,717.00,1355.00,479.00,531.00,,,,,,,,,,,,0,0,0,,-3944,15700,-3192,-294,57,-135
25.511,25.36,-4.18,-4.92,0.53,-7.07,3.33,-2.10,-1.58,-6.63,-0.96,245.00,509.00,405.00,423.00,758.00,1328.00,492.00,560.00,,,,,,,,,,,,0,0,0,,-3832,15680,-3256,91,260,-52
25.552,25.42,-4.23,-2.26,-2.37,0.65,-2.86,-5.30,0.32,-10.95,2.35,273.00,495.00,492.00,368.00,725.00,1432.00,445.00,608.00,,,,,,,,,,,,0,0,0,,-3904,15612,-3436,-26,307,-53
25.615,25.47,-4.32,-6.86,-2.06,-10.78,2.35,-5.92,2.29,-8.39,1.57,292.00,589.00,457.00,503.00,659.00,1392.00,443.00,561.00,,,,,,,,,,,,0,0,0,,-3880,15660,-3420,-43,254,-128
25.676,25.53,-4.13,-8.34,4.70,-10.05,6.77,-0.46,-3.49,-4.34,-2.35,208.00,521.00,355.00,434.00,816.00,1310.00,509.00,531.00,,,,,,,,,,,,0,0,0,,-3792,15640,-3580,145,230,-173
25.696,25.58,-4.23,2.95,-7.39,5.41,-6.38,-6.28,0.22,-11.28,1.69,326.00,461.00,546.00,335.00,742.00,1493.00,464.00,627.00,,,,,,,,,,,,0,0,0,,-3920,15580,-3488,180,178,-168
25.759,25.64,-4.40,-11.53,2.98,-12.95,2.84,-7.66,3.68,-11.44,4.44,242.00,619.00,463.00,541.00,631.00,1437.00,401.00,586.00,,,,,,,,,,,,0,0,0,,-3884,15640,-3476,-14,139,-211
25.881,25.69,-4.20,-11.86,8.97,-12.17,8.55,-0.32,-4.21,-2.40,-3.79,176.00,534.00,335.00,450.00,846.00,1328.00,531.00,511.00,,,,,,,,,,,,0,0,0,,-3948,15516,-3496,-61,109,-142
25.902,25.75,-4.32,4.62,-9.53,5.48,-6.71,-6.55,-0.08,-10.52,0.39,355.00,457.00,555.00,337.00,758.00,1521.00,491.00,630.00,,,,,,,,,,,,0,0,0,,-3808,15648,-3536,42,246,91
25.922,25.80,-4.43,-8.02,-1.29,-9.74,0.53,-6.58,1.74,-11.92,3.83,286.00,604.00,495.00,507.00,687.00,1450.00,418.00,607.00,,,,,,,,,,,,0,0,0,,-3784,15416,-3348,-265,206,-128
25.984,25.86,-4.33,-10.01,6.74,-9.60,4.93,-2.42,-1.25,-4.11,-1.27,192.00,527.00,389.00,448.00,749.00,1333.00,478.00,511.00,,,,,,,,,,,,0,0,0,,-3852,15664,-3500,-256,54,-162
26.026,25.91,-4.27,0.28,-4.01,-2.42,-0.01,-3.11,-1.29,-7.48,-0.82,285.00,468.00,446.00,385.00,760.00,1371.00,496.00,577.00,,,,,,,,,,,,0,0,0,,-3816,15652,-3472,141,186,6
26.088,25.97,-4.32,-3.36,-1.93,-1.89,-1.47,-5.25,0.20,-10.94,2.51,272.00,511.00,478.00,392.00,729.00,1434.00,441.00,605.00,,,,,,,,,,,,0,0,0,,-3704,15640,-3428,-1,351,-55
26.149,26.02,-4.39,-6.84,0.87,-9.37,2.24,-5.81,1.75,-8.23,1.39,249.00,544.00,448.00,477.00,677.00,1406.00,446.00,560.00,,,,,,,,,,,,0,0,0,,-3716,15720,-3652,-136,297,-150
26.209,26.08,-4.23,-7.44,2.95,-8.91,4.84,-1.06,-3.29,-5.54,-2.91,225.00,527.00,386.00,437.00,816.00,1334.00,536.00,565.00,,,,,,,,,,,,0,0,0,,-3756,15680,-3644,61,132,-172
26.27,26.13,-4.36,1.79,-7.72,3.27,-5.69,-6.81,0.45,-11.60,2.16,339.00,487.00,547.00,358.00,740.00,1515.00,455.00,627.00,,,,,,,,,,,,0,0,0,,-3652,15580,-3552,63,60,-162
26.312,26.19,-4.52,-10.49,1.81,-12.75,2.81,-7.68,3.45,-10.54,3.37,253.00,613.00,462.00,537.00,639.00,1447.00,418.00,582.00,,,,,,,,,,,,0,0,0,,-3892,15600,-3436,-84,87,-197
26.373,26.24,-4.32,-11.05,7.78,-12.51,7.75,-0.43,-4.10,-3.32,-3.45,185.00,534.00,352.00,466.00,843.00,1330.00,530.00,525.00,,,,,,,,,,,,0,0,0,,-3816,15548,-3628,-61,139,-190
26.434,26.30,-4.48,5.51,-11.33,6.63,-8.28,-7.63,0.30,-11.76,1.11,385.00,463.00,592.00,336.00,757.00,1571.00,483.00,649.00,,,,,,,,,,,,0,0,0,,-3796,15556,-3480,-89,113,-117
26.496,26.35,-4.68,-11.43,1.76,-10.81,0.59,-8.34,3.10,-12.69,4.18,258.00,637.00,503.00,528.00,659.00,1499.00,416.00,620.00,,,,,,,,,,,,0,0,0,,-3840,15944,-3676,-77,160,-332
26.537,26.41,-4.57,-10.31,5.19,-11.09,5.10,-2.54,-1.75,-4.09,-2.51,210.00,556.00,396.00,473.00,771.00,1357.00,511.00,528.00,,,,,,,,,,,,0,0,0,,-3812,15736,-3620,-352,59,-127
26.598,26.46,-4.55,1.20,-5.21,-0.75,-1.50,-4.15,-0.74,-8.63,-0.21,299.00,466.00,469.00,375.00,752.00,1408.00,490.00,594.00,,,,,,,,,,,,0,0,0,,-3804,15484,-3436,28,111,-44
26.661,26.52,-4.62,-6.80,0.21,-5.42,0.03,-6.09,1.34,-11.91,3.70,258.00,553.00,470.00,433.00,696.00,1438.00,421.00,609.00,,,,,,,,,,,,0,0,0,,-3764,15568,-3600,96,250,-163
26.702,26.57,-4.68,-7.04,0.43,-8.56,1.69,-5.71,1.42,-8.26,1.12,256.00,555.00,455.00,469.00,688.00,1413.00,453.00,565.00,,,,,,,,,,,,0,0,0,,-3732,15844,-3636,-95,275,-248
26.763,26.63,-4.55,-5.85,0.40,-7.74,3.11,-2.10,-2.20,-7.37,-0.59,251.00,530.00,415.00,437.00,784.00,1350.00,489.00,571.00,,,,,,,,,,,,0,0,0,,-3704,15640,-3688,16,141,-160
26.845,26.68,-4.67,0.12,-6.61,1.54,-4.98,-6.87,0.42,-12.22,2.65,329.00,505.00,543.00,376.00,742.00,1520.00,448.00,634.00,,,,,,,,,,,,0,0,0,,-3712,15664,-3580,153,62,-202
26.866,26.74,-4.80,-10.47,2.02,-12.98,2.81,-7.28,2.89,-9.76,2.41,250.00,609.00,464.00,542.00,654.00,1446.00,434.00,579.00,,,,,,,,,,,,0,0,0,,-3768,15708,-3612,-16,114,-259
26.987,26.79,-4.63,-10.49,6.34,-11.83,6.90,-1.37,-3.54,-5.01,-2.20,198.00,543.00,364.00,464.00,832.00,1360.00,511.00,543.00,,,,,,,,,,,,0,0,0,,-3844,15640,-3684,-64,156,-245
27.007,26.85,-4.78,3.16,-8.02,5.52,-6.65,-7.77,0.04,-12.52,1.83,336.00,465.00,553.00,336.00,770.00,1591.00,471.00,656.00,,,,,,,,,,,,0,0,0,,-3816,15652,-3584,-128,64,-283
27.028,26.90,-4.99,-12.54,1.30,-14.72,3.24,-8.89,3.74,-12.71,4.82,270.00,674.00,468.00,574.00,643.00,1506.00,402.00,610.00,,,,,,,,,,,,0,0,0,,-3800,15556,-3460,-87,-27,-181
27.089,26.96,-4.88,-14.00,9.38,-13.46,7.66,-2.82,-2.99,-4.74,-2.26,179.00,575.00,360.00,485.00,829.00,1419.00,510.00,538.00,,,,,,,,,,,,0,0,0,,-3792,15956,-3604,-156,75,-479
27.15,27.01,-4.90,1.09,-7.60,-0.63,-3.80,-5.21,-0.51,-9.73,-0.06,341.00,499.00,530.00,397.00,757.00,1459.00,496.00,618.00,,,,,,,,,,,,0,0,0,,-3732,15688,-3632,-310,87,-223
27.191,27.07,-4.98,-7.10,-0.87,-7.42,0.16,-6.56,1.82,-12.39,4.53,275.00,576.00,484.00,467.00,684.00,1446.00,406.00,607.00,,,,,,,,,,,,0,0,0,,-3740,15472,-3364,-10,120,-210
27.253,27.12,-4.96,-10.51,5.88,-10.65,4.77,-4.67,0.26,-6.64,-0.07,203.00,550.00,400.00,469.00,719.00,1399.00,469.00,547.00,,,,,,,,,,,,0,0,0,,-3740,15616,-3492,30,202,-189
27.336,27.18,-4.88,-5.04,-1.09,-8.66,3.37,-3.21,-1.57,-7.49,-0.74,268.00,534.00,416.00,450.00,773.00,1387.00,494.00,576.00,,,,,,,,,,,,0,0,0,,-3764,15804,-3676,-182,141,-255
27.356,27.23,-4.95,-4.05,-1.69,-1.61,-2.17,-6.35,0.22,-11.41,2.18,272.00,522.00,494.00,395.00,743.00,1497.00,453.00,622.00,,,,,,,,,,,,0,0,0,,-3892,15616,-3696,-56,65,-221
27.419,27.29,-5.04,-11.12,2.61,-12.70,2.68,-6.68,2.02,-8.89,1.45,245.00,615.00,465.00,538.00,678.00,1445.00,450.00,574.00,,,,,,,,,,,,0,0,0,,-3864,15580,-3564,86,34,-236
27.461,27.34,-4.84,-9.47,4.56,-11.93,7.45,-1.16,-3.73,-5.29,-2.54,214.00,547.00,354.00,459.00,837.00,1355.00,523.00,554.00,,,,,,,,,,,,0,0,0,,-3960,15512,-3684,-35,138,-274
27.524,27.40,-4.97,1.06,-7.26,4.12,-6.22,-7.39,-0.02,-11.85,1.88,335.00,495.00,554.00,351.00,767.00,1570.00,464.00,638.00,,,,,,,,,,,,0,0,0,,-3928,15632,-3796,-184,113,-164
27.606,27.45,-5.16,-12.39,2.09,-14.56,3.26,-8.76,3.73,-11.75,3.95,258.00,656.00,466.00,570.00,642.00,1499.00,414.00,601.00,,,,,,,,,,,,0,0,0,,-3888,15708,-3524,-218,86,-228
27.627,27.51,-5.00,-13.99,9.69,-13.82,8.35,-1.98,-3.76,-4.33,-3.07,176.00,570.00,349.00,483.00,851.00,1401.00,529.00,541.00,,,,,,,,,,,,0,0,0,,-3808,15652,-3416,-202,30,-40
27.69,27.56,-5.13,2.45,-9.01,2.25,-5.82,-7.51,-0.41,-10.98,0.36,359.00,491.00,561.00,374.00,785.00,1594.00,496.00,642.00,,,,,,,,,,,,0,0,0,,-3880,16116,-3628,-32,258,-95
27.752,27.62,-5.23,-8.41,-1.97,-9.61,0.04,-7.30,1.77,-12.68,4.04,299.00,625.00,507.00,511.00,695.00,1491.00,419.00,622.00,,,,,,,,,,,,0,0,0,,-3816,15480,-3380,-263,273,-207
27.813,27.67,-5.14,-9.56,4.42,-10.55,4.14,-3.39,-0.97,-4.97,-1.29,216.00,551.00,413.00,475.00,751.00,1375.00,486.00,529.00,,,,,,,,,,,,0,0,0,,-3968,15464,-3492,-2,50,-77
27.875,27.73,-5.08,-0.45,-4.65,-3.09,-0.64,-3.96,-1.05,-7.72,-0.85,299.00,490.00,467.00,402.00,762.00,1409.00,499.00,583.00,,,,,,,,,,,,0,0,0,,-3844,15704,-3340,165,209,-4
27.916,27.78,-5.13,-5.10,-1.27,-2.30,-1.52,-6.06,0.35,-11.20,2.35,271.00,538.00,483.00,399.00,734.00,1475.00,447.00,614.00,,,,,,,,,,,,0,0,0,,-3696,15816,-3716,-89,364,-94
27.997,27.84,-5.22,-8.34,1.08,-10.45,2.24,-6.85,2.00,-8.65,1.17,253.00,574.00,457.00,498.00,681.00,1456.00,455.00,573.00,,,,,,,,,,,,0,0,0,,-3840,15592,-3656,-108,271,-152
28.059,27.89,-5.06,-8.04,2.99,-10.62,5.37,-2.11,-3.30,-6.39,-2.31,227.00,539.00,387.00,461.00,832.00,1391.00,527.00,575.00,,,,,,,,,,,,0,0,0,,-3808,15660,-3540,132,80,-146
28.08,27.95,-5.18,0.79,-7.00,1.87,-5.36,-7.48,0.38,-12.32,2.16,332.00,497.00,551.00,375.00,752.00,1559.00,461.00,645.00,,,,,,,,,,,,0,0,0,,-3696,15704,-3660,74,105,-227
28.141,28.00,-5.35,-11.80,2.25,-14.01,3.12,-8.54,3.40,-11.10,3.25,253.00,638.00,465.00,560.00,651.00,1499.00,425.00,597.00,,,,,,,,,,,,0,0,0,,-3876,15544,-3632,7,170,-273
28.182,28.06,-5.16,-12.60,8.30,-14.01,8.63,-1.46,-4.15,-3.84,-3.51,185.00,560.00,345.00,483.00,861.00,1387.00,537.00,537.00,,,,,,,,,,,,0,0,0,,-3876,15528,-3632,-53,136,-213
28.244,28.11,-5.30,3.95,-10.61,4.26,-7.36,-8.05,-0.13,-11.95,0.87,381.00,483.00,588.00,360.00,781.00,1616.00,491.00,658.00,,,,,,,,,,,,0,0,0,,-3804,15568,-3648,-188,77,-22
28.306,28.17,-5.50,-12.20,0.91,-13.36,1.82,-9.22,2.79,-13.26,4.20,274.00,672.00,493.00,565.00,681.00,1565.00,420.00,634.00,,,,,,,,,,,,0,0,0,,-3952,16084,-3768,-218,223,-116
28.367,28.22,-5.41,-9.70,2.52,-11.89,4.28,-3.66,-1.72,-5.65,-1.32,240.00,583.00,420.00,499.00,786.00,1418.00,493.00,544.00,,,,,,,,,,,,0,0,0,,-3800,15540,-3600,-628,159,-195
28.428,28.28,-5.39,0.45,-5.98,-1.29,-2.17,-5.07,-0.60,-9.02,-0.19,316.00,490.00,491.00,390.00,759.00,1455.00,493.00,603.00,,,,,,,,,,,,0,0,0,,-3712,15456,-3508,-445,-45,-105
28.47,28.33,-5.45,-7.45,-0.55,-6.27,-0.15,-6.53,1.04,-12.29,3.35,272.00,579.00,482.00,450.00,713.00,1475.00,432.00,624.00,,,,,,,,,,,,0,0,0,,-3772,15604,-3444,-296,91,-16
28.51,28.39,-5.50,-8.14,1.31,-9.80,2.18,-6.44,1.51,-8.56,1.10,249.00,566.00,453.00,486.00,694.00,1451.00,456.00,572.00,,,,,,,,,,,,0,0,0,,-3752,15908,-3324,-477,282,-138
28.57,28.44,-5.36,-7.27,1.17,-9.24,3.66,-2.72,-2.34,-7.28,-0.93,247.00,549.00,414.00,457.00,799.00,1389.00,497.00,574.00,,,,,,,,,,,,0,0,0,,-3604,15656,-3600,-432,142,-238
28.632,28.50,-5.47,-0.37,-6.33,1.89,-5.20,-7.53,0.52,-12.55,2.85,327.00,511.00,546.00,373.00,747.00,1556.00,446.00,639.00,,,,,,,,,,,,0,0,0,,-3708,15572,-3408,-271,-109,-196
28.693,28.55,-5.62,-10.48,0.54,-13.07,2.33,-8.57,3.72,-10.71,2.99,271.00,634.00,477.00,551.00,640.00,1488.00,428.00,592.00,,,,,,,,,,,,0,0,0,,-3868,15616,-3292,-354,-91,-245
28.774,28.61,-5.44,-10.70,5.50,-12.47,6.82,-2.04,-3.43,-5.19,-2.14,208.00,560.00,370.00,477.00,837.00,1392.00,511.00,546.00,,,,,,,,,,,,0,0,0,,-3848,15708,-3348,-476,54,-273
28.794,28.66,-5.61,3.08,-9.62,4.90,-7.26,-8.87,0.57,-13.28,2.16,367.00,487.00,578.00,350.00,763.00,1638.00,469.00,670.00,,,,,,,,,,,,0,0,0,,-3840,15584,-3244,-529,39,-186
28.875,28.72,-5.81,-12.39,0.31,-15.02,2.53,-9.64,3.68,-14.75,6.99,284.00,688.00,489.00,592.00,654.00,1554.00,371.00,624.00,,,,,,,,,,,,0,0,0,,-3860,15688,-3068,-460,68,-29
28.895,28.77,-5.71,-12.85,6.40,-13.90,6.81,-3.78,-2.89,-6.08,-1.84,206.00,595.00,380.00,505.00,839.00,1470.00,511.00,561.00,,,,,,,,,,,,0,0,0,,-3908,15908,-3348,-454,94,-373
28.958,28.83,-5.72,-1.34,-6.12,-2.02,-3.23,-5.78,-0.75,-9.85,0.05,329.00,528.00,527.00,413.00,775.00,1502.00,494.00,619.00,,,,,,,,,,,,0,0,0,,-3860,15680,-3272,-510,-60,-190
29.019,28.88,-5.78,-8.66,0.48,-7.97,0.73,-7.02,1.87,-12.92,4.71,263.00,591.00,474.00,470.00,688.00,1471.00,406.00,617.00,,,,,,,,,,,,0,0,0,,-3924,15576,-2804,-222,-95,-94
29.079,28.94,-5.78,-10.37,4.02,-10.16,3.57,-5.68,0.70,-7.76,0.50,224.00,575.00,423.00,475.00,715.00,1439.00,464.00,563.00,,,,,,,,,,,,0,0,0,,-3816,15756,-3032,-265,113,-76
29.163,28.99,-5.67,-6.18,-0.98,-8.23,2.66,-3.72,-1.61,-7.91,-0.45,272.00,557.00,429.00,451.00,782.00,1417.00,490.00,581.00,,,,,,,,,,,,0,0,0,,-3968,15868,-3032,-509,182,-225
29.183,29.05,-5.72,-4.18,-2.77,-1.75,-2.23,-6.65,0.10,-11.96,2.69,289.00,540.00,497.00,398.00,752.00,1520.00,445.00,627.00,,,,,,,,,,,,0,0,0,,-3720,15644,-3156,-678,-41,-213
29.244,29.10,-5.82,-11.45,1.91,-13.58,3.01,-7.69,2.50,-9.18,1.76,256.00,635.00,464.00,552.00,673.00,1485.00,445.00,576.00,,,,,,,,,,,,0,0,0,,-3928,15696,-2960,-661,-217,-261
29.285,29.16,-5.63,-9.36,3.51,-10.64,5.23,-2.08,-3.53,-6.14,-1.82,226.00,560.00,390.00,463.00,842.00,1398.00,511.00,562.00,,,,,,,,,,,,0,0,0,,-3888,15740,-2812,-871,-254,-295
29.346,29.21,-5.76,1.66,-8.58,2.95,-6.25,-8.10,0.32,-12.11,1.97,356.00,501.00,567.00,368.00,763.00,1600.00,464.00,643.00,,,,,,,,,,,,0,0,0,,-3924,15684,-2820,-1127,-279,-418
29.407,29.27,-5.93,-13.89,2.52,-15.80,3.68,-9.14,3.40,-12.33,4.51,259.00,688.00,466.00,592.00,658.00,1535.00,406.00,606.00,,,,,,,,,,,,0,0,0,,-3820,15540,-2664,-1421,-316,-325
29.448,29.32,-5.77,-14.69,9.30,-14.51,8.37,-2.83,-3.56,-4.09,-3.22,182.00,592.00,353.00,496.00,855.00,1441.00,531.00,538.00,,,,,,,,,,,,0,0,0,,-3924,15976,-2564,-1903,-385,-432
29.55,29.38,-5.80,1.97,-8.22,3.03,-5.44,-6.25,-0.64,-10.47,0.48,347.00,490.00,542.00,359.00,777.00,1526.00,488.00,627.00,,,,,,,,,,,,0,0,0,,-3996,15608,-2168,-2448,-561,-170
29.57,29.43,-5.86,-9.55,-0.18,-7.93,0.84,-7.02,1.87,-10.08,2.31,277.00,623.00,471.00,468.00,688.00,1471.00,439.00,588.00,,,,,,,,,,,,0,0,0,,-3860,15512,-1736,-2756,-648,-95
29.632,29.49,-5.77,-10.25,3.65,-9.57,5.30,-4.20,-0.80,-4.29,-0.78,228.00,578.00,381.00,443.00,755.00,1413.00,467.00,508.00,,,,,,,,,,,,0,0,0,,-3884,15844,-1468,-2794,-525,136
29.674,29.54,-5.72,-3.69,-4.11,-3.51,0.73,-4.65,-1.13,-7.31,-0.61,308.00,549.00,437.00,394.00,775.00,1451.00,489.00,570.00,,,,,,,,,,,,0,0,0,,-3952,15768,-848,-2777,-596,140
29.735,29.60,-5.78,-5.57,-2.93,-1.54,-1.12,-6.91,0.36,-10.85,2.57,299.00,573.00,466.00,383.00,745.00,1525.00,439.00,602.00,,,,,,,,,,,,0,0,0,,-3832,15932,-620,-2613,-531,348
29.776,29.65,-5.88,-9.65,0.81,-10.17,3.27,-7.74,1.92,-8.51,1.61,263.00,609.00,430.00,479.00,695.00,1511.00,443.00,563.00,,,,,,,,,,,,0,0,0,,-3744,16072,-240,-2297,-458,229
29.839,29.71,-5.73,-9.65,2.89,-10.32,6.91,-2.88,-3.04,-6.20,-1.80,235.00,576.00,354.00,437.00,832.00,1424.00,511.00,563.00,,,,,,,,,,,,0,0,0,,-3768,15872,-188,-1636,-290,-35
29.9,29.76,-5.86,-0.76,-6.98,3.84,-5.27,-8.34,0.30,-12.38,2.54,341.00,528.00,529.00,346.00,767.00,1616.00,452.00,640.00,,,,,,,,,,,,0,0,0,,-3696,15836,176,-1132,-193,36
29.962,29.82,-6.03,-12.42,1.12,-13.57,3.62,-9.27,3.58,-11.53,4.19,272.00,674.00,449.00,543.00,653.00,1535.00,407.00,592.00,,,,,,,,,,,,0,0,0,,-3828,15940,272,-728,-137,156
30.024,29.87,-5.81,-13.24,6.98,-10.59,5.65,-1.73,-4.12,-3.07,-3.67,201.00,595.00,381.00,457.00,864.00,1401.00,534.00,523.00,,,,,,,,,,,,1,1,0,,-3656,15744,476,-918,-384,-31
30.065,29.93,-5.88,4.29,-11.11,7.61,-7.09,-7.25,0.18,-11.15,1.25,389.00,483.00,545.00,313.00,757.00,1553.00,474.00,631.00,,,,,,,,,,,,1,1,0,,-3672,15844,452,-542,-399,87
30.126,29.98,-5.98,-10.71,0.41,-10.84,2.74,-7.70,2.67,-12.30,4.27,274.00,642.00,448.00,499.00,667.00,1479.00,411.00,609.00,,,,,,,,,,,,1,1,0,,-3688,15984,592,-47,-86,102
30.168,30.04,-5.86,-11.05,5.09,-10.86,6.13,-3.74,-1.34,-4.99,-1.39,214.00,574.00,373.00,456.00,771.00,1408.00,489.00,531.00,,,,,,,,,,,,1,1,0,,-3652,16184,512,-39,247,7
30.271,30.09,-5.83,-1.30,-4.68,-1.84,-0.29,-5.22,-0.80,-9.53,0.24,304.00,507.00,448.00,379.00,769.00,1471.00,486.00,608.00,,,,,,,,,,,,1,1,0,,-3648,15976,440,22,308,-99
30.292,30.15,-5.87,-7.90,-0.40,-3.70,-0.47,-6.50,0.29,-11.70,3.02,272.00,587.00,468.00,410.00,742.00,1503.00,435.00,615.00,,,,,,,,,,,,1,1,0,,-3564,15788,336,82,178,-92
30.332,30.20,-5.93,-7.90,-0.40,-8.87,1.43,-7.14,1.64,-8.57,0.98,272.00,587.00,464.00,478.00,698.00,1487.00,459.00,574.00,,,,,,,,,,,,1,1,0,,-3576,15868,216,-95,147,0
30.393,30.26,-5.81,-8.16,0.95,-9.67,4.53,-3.53,-2.25,-7.26,-1.08,254.00,572.00,398.00,454.00,807.00,1431.00,501.00,576.00,,,,,,,,,,,,1,1,0,,-3524,15856,112,-308,204,-6
30.455,30.31,-5.94,-1.48,-6.90,1.55,-5.58,-8.35,0.67,-12.60,2.58,344.00,542.00,561.00,382.00,752.00,1601.00,453.00,645.00,,,,,,,,,,,,1,1,0,,-3460,15952,216,-35,246,250
30.516,30.37,-6.06,-12.09,1.70,-13.99,3.15,-8.33,3.18,-10.56,2.90,262.00,655.00,464.00,559.00,656.00,1495.00,429.00,590.00,,,,,,,,,,,,1,1,0,,-3496,15956,76,1,108,-109
30.618,30.42,-5.80,-11.53,7.25,-11.54,8.28,-0.84,-3.37,-4.35,-2.13,192.00,552.00,336.00,442.00,816.00,1325.00,503.00,528.00,,,,,,,,,,,,1,1,0,,-3504,15836,140,-153,-132,125
30.639,30.48,-5.85,4.82,-9.91,7.78,-7.58,-6.98,0.21,-12.49,1.78,361.00,458.00,558.00,315.00,752.00,1535.00,472.00,656.00,,,,,,,,,,,,1,1,0,,-3480,15756,420,-216,-59,321
30.659,30.53,-5.97,-12.40,2.67,-13.18,3.24,-8.12,3.92,-12.84,5.56,250.00,646.00,455.00,540.00,628.00,1454.00,387.00,601.00,,,,,,,,,,,,1,1,0,,-3376,15908,432,-386,277,219
30.762,30.59,-5.81,-12.98,8.13,-12.19,7.44,-2.77,-2.35,-5.30,-1.70,188.00,571.00,356.00,464.00,800.00,1392.00,500.00,542.00,,,,,,,,,,,,1,1,0,,-3244,16112,468,-317,344,41
30.805,30.64,-5.80,-0.75,-5.04,-1.42,-1.39,-5.72,-0.27,-9.61,0.12,307.00,501.00,472.00,384.00,754.00,1479.00,490.00,612.00,,,,,,,,,,,,1,1,0,,-3232,16460,328,99,223,36
30.825,30.70,-5.87,-8.69,0.21,-6.74,0.71,-7.19,1.68,-13.42,5.19,267.00,596.00,464.00,448.00,697.00,1488.00,399.00,621.00,,,,,,,,,,,,1,1,0,,-3316,16044,596,268,211,-142
30.866,30.75,-5.91,-9.96,3.15,-10.66,3.61,-6.67,1.30,-8.51,0.76,233.00,579.00,426.00,484.00,705.00,1473.00,464.00,576.00,,,,,,,,,,,,1,1,0,,-3300,15948,520,127,49,-342
30.927,30.81,-5.82,-8.42,1.93,-9.86,4.41,-3.99,-1.68,-7.68,-0.79,242.00,563.00,402.00,459.00,789.00,1435.00,497.00,581.00,,,,,,,,,,,,1,1,0,,-3168,15684,356,52,199,-144
31.009,30.86,-5.90,-3.93,-2.73,-1.23,-2.63,-7.53,0.39,-12.69,2.77,287.00,534.00,503.00,394.00,752.00,1561.00,449.00,644.00,,,,,,,,,,,,1,1,0,,-3252,15944,440,-101,240,-483
31.071,30.92,-5.96,-10.63,2.45,-13.44,4.11,-7.13,3.15,-9.44,2.26,245.00,606.00,436.00,533.00,643.00,1427.00,435.00,574.00,,,,,,,,,,,,1,1,0,,-3432,15900,356,-90,244,-452
31.091,30.97,-5.69,-9.70,6.35,-11.16,8.16,-0.50,-3.41,-4.86,-2.14,195.00,526.00,336.00,437.00,813.00,1309.00,508.00,539.00,,,,,,,,,,,,1,1,0,,-3396,15792,280,64,178,-126
31.152,31.03,-5.76,3.07,-7.32,6.52,-6.31,-7.00,0.66,-12.03,2.02,324.00,458.00,533.00,320.00,734.00,1518.00,462.00,640.00,,,,,,,,,,,,1,1,0,,-3364,16152,344,326,282,157
31.214,31.08,-5.87,-13.16,3.23,-14.19,3.78,-8.10,4.33,-12.48,5.16,246.00,656.00,450.00,554.00,614.00,1437.00,393.00,599.00,,,,,,,,,,,,1,1,0,,-3408,16300,76,357,275,-157
31.256,31.14,-5.64,-14.09,11.37,-12.88,9.35,-1.28,-3.24,-3.50,-3.31,161.00,547.00,325.00,453.00,817.00,1344.00,528.00,527.00,,,,,,,,,,,,1,1,0,,-3348,16100,52,399,186,-187
31.358,31.19,-5.65,0.64,-6.78,0.08,-3.22,-5.86,-0.56,-9.89,-0.01,329.00,497.00,507.00,380.00,768.00,1499.00,496.00,621.00,,,,,,,,,,,,1,1,0,,-3336,15992,-116,262,-13,-233
31.378,31.25,-5.73,-9.10,0.00,-10.32,2.20,-7.27,1.95,-12.83,4.27,272.00,609.00,457.00,496.00,688.00,1482.00,415.00,622.00,,,,,,,,,,,,1,1,0,,-3364,15984,-180,148,-166,-452
31.441,31.30,-5.75,-11.34,5.71,-10.89,5.36,-6.02,1.13,-6.62,-0.77,208.00,571.00,389.00,466.00,703.00,1442.00,487.00,557.00,,,,,,,,,,,,1,1,0,,-3536,16052,-168,-80,-160,-443
31.505,31.36,-5.64,-7.35,0.75,-8.47,3.27,-3.57,-1.54,-7.89,-0.61,253.00,557.00,417.00,448.00,777.00,1406.00,494.00,583.00,,,,,,,,,,,,1,1,0,,-3508,15752,316,-735,-503,-779
31.544,31.41,-5.64,-3.42,-1.84,-0.54,-1.61,-5.69,0.14,-11.68,2.51,271.00,511.00,470.00,373.00,737.00,1461.00,447.00,623.00,,,,,,,,,,,,1,1,0,,-3724,16240,372,-585,-179,-1009
31.606,31.47,-5.68,-10.23,2.54,-11.69,3.70,-6.41,2.60,-9.09,1.81,242.00,595.00,432.00,503.00,654.00,1408.00,443.00,573.00,,,,,,,,,,,,1,1,0,,-3824,15836,324,-252,303,-1199
31.668,31.52,-5.44,-9.09,4.95,-9.64,6.94,-0.93,-3.22,-5.91,-1.83,208.00,533.00,349.00,425.00,811.00,1325.00,509.00,557.00,,,,,,,,,,,,1,1,0,,-3880,15760,144,77,239,-1130
31.729,31.58,-5.50,1.44,-7.05,6.07,-5.88,-6.59,0.35,-11.86,2.00,329.00,485.00,525.00,322.00,741.00,1506.00,461.00,636.00,,,,,,,,,,,,1,1,0,,-4044,15780,372,74,-184,-786
31.749,31.63,-5.62,-11.18,2.04,-12.60,3.37,-7.82,3.90,-11.81,4.61,253.00,626.00,447.00,526.00,625.00,1437.00,400.00,592.00,,,,,,,,,,,,1,1,0,,-3956,15752,260,538,-245,-627
31.81,31.69,-5.36,-12.58,9.21,-12.91,9.47,-0.38,-4.12,-3.04,-3.85,176.00,546.00,323.00,452.00,843.00,1328.00,539.00,525.00,,,,,,,,,,,,1,1,0,,-4024,15840,156,855,-56,-816
31.893,31.74,-5.41,4.00,-9.27,4.89,-5.73,-6.55,-0.30,-11.08,0.50,354.00,465.00,532.00,336.00,767.00,1530.00,493.00,642.00,,,,,,,,,,,,1,1,0,,-4176,15712,-152,1132,230,-696
31.934,31.80,-5.52,-9.73,0.08,-9.99,1.33,-7.55,2.04,-12.82,4.14,274.00,623.00,476.00,501.00,688.00,1495.00,418.00,624.00,,,,,,,,,,,,1,1,0,,-4140,16120,-632,1338,98,-767
31.975,31.85,-5.40,-10.33,5.55,-10.21,5.32,-3.12,-0.94,-6.61,-0.31,206.00,551.00,385.00,454.00,746.00,1359.00,475.00,550.00,,,,,,,,,,,,1,1,0,,-4144,15780,-452,550,-643,-906
32.038,31.91,-5.28,-1.06,-3.37,-2.52,-0.06,-3.00,-1.47,-8.50,-0.40,282.00,485.00,448.00,387.00,766.00,1372.00,494.00,594.00,,,,,,,,,,,,1,1,0,,-4312,15764,-320,314,-847,-1081
32.141,31.96,-5.27,-3.32,-3.06,-1.16,-2.36,-5.14,0.06,-11.01,2.25,289.00,526.00,495.00,390.00,733.00,1433.00,448.00,611.00,,,,,,,,,,,,1,1,0,,-4340,15660,-408,485,-910,-1189
32.162,32.02,-5.31,-7.97,1.33,-9.60,2.28,-6.00,2.01,-8.79,1.50,248.00,562.00,449.00,481.00,670.00,1407.00,448.00,571.00,,,,,,,,,,,,1,1,0,,-4648,15776,-428,181,-1234,-1339
32.204,32.07,-5.11,-7.63,3.01,-9.25,5.34,-1.20,-3.24,-6.43,-1.73,225.00,530.00,378.00,437.00,816.00,1340.00,511.00,567.00,,,,,,,,,,,,1,1,0,,-4728,15704,-296,322,-1435,-1250
32.266,32.13,-5.17,0.57,-6.54,3.18,-5.26,-6.48,0.19,-12.08,2.16,325.00,495.00,535.00,355.00,746.00,1506.00,459.00,639.00,,,,,,,,,,,,1,1,0,,-4792,15088,-84,-420,-1470,-1032
32.326,32.18,-5.30,-11.38,2.40,-12.85,2.97,-7.69,3.54,-10.95,3.03,249.00,625.00,459.00,537.00,636.00,1444.00,429.00,597.00,,,,,,,,,,,,1,1,0,,-5064,15484,208,-1232,-1334,-722
32.367,32.24,-5.06,-13.05,9.16,-12.39,8.30,-0.43,-4.19,-3.41,-3.66,178.00,557.00,341.00,457.00,847.00,1333.00,537.00,530.00,,,,,,,,,,,,1,1,0,,-4896,15736,192,-475,-1000,-511
32.409,32.29,-5.14,4.30,-9.63,5.56,-6.93,-6.63,0.09,-11.47,1.32,359.00,464.00,561.00,338.00,752.00,1519.00,475.00,638.00,,,,,,,,,,,,1,1,0,,-4740,15188,292,-137,-642,-498
32.472,32.35,-5.22,-9.94,1.12,-10.73,2.05,-6.91,2.99,-12.36,4.79,260.00,611.00,464.00,506.00,646.00,1421.00,400.00,602.00,,,,,,,,,,,,1,1,0,,-4788,15456,324,-129,-505,-125
32.535,32.40,-5.07,-9.88,5.22,-8.72,2.40,-2.09,-1.46,-4.89,-1.05,208.00,546.00,439.00,463.00,753.00,1323.00,479.00,524.00,,,,,,,,,,,,1,1,0,,-4760,15156,256,-17,62,429
32.596,32.46,-5.00,0.84,-5.39,-0.89,-1.88,-3.70,-0.82,-8.81,0.31,304.00,475.00,480.00,381.00,749.00,1386.00,478.00,590.00,,,,,,,,,,,,1,1,0,,-4596,15380,156,-327,468,944
32.638,32.51,-5.01,-4.74,-1.60,-4.77,-0.85,-5.32,0.48,-11.46,3.15,274.00,535.00,487.00,432.00,719.00,1427.00,430.00,607.00,,,,,,,,,,,,1,1,0,,-4504,15708,252,-261,719,954
32.718,32.57,-5.05,-7.42,0.92,-9.42,2.02,-5.74,2.03,-8.42,1.75,251.00,556.00,454.00,481.00,666.00,1392.00,439.00,559.00,,,,,,,,,,,,1,1,0,,-4096,15900,192,-73,798,851
32.739,32.62,-4.88,-8.13,2.86,-9.39,4.62,-1.69,-2.27,-6.95,-0.62,229.00,543.00,394.00,448.00,781.00,1331.00,486.00,562.00,,,,,,,,,,,,1,1,0,,-4368,15916,320,138,923,725
32.841,32.68,-4.96,-0.81,-5.61,1.48,-4.79,-6.48,0.56,-11.92,2.51,317.00,510.00,538.00,375.00,731.00,1491.00,449.00,629.00,,,,,,,,,,,,1,1,0,,-4248,16044,-296,894,1042,395
32.861,32.73,-5.09,-11.30,2.53,-13.80,3.21,-7.42,3.51,-10.25,2.88,247.00,621.00,461.00,554.00,634.00,1430.00,427.00,583.00,,,,,,,,,,,,1,1,0,,-4228,15652,-324,1294,726,611
32.922,32.79,-4.82,-11.69,7.70,-11.46,7.09,0.24,-3.66,-4.13,-2.46,188.00,549.00,358.00,455.00,813.00,1280.00,510.00,528.00,,,,,,,,,,,,1,1,0,,-4156,15800,-168,134,248,-28
32.963,32.84,-4.85,5.04,-9.41,7.31,-7.59,-5.39,-0.48,-11.41,1.11,350.00,448.00,563.00,321.00,758.00,1468.00,480.00,640.00,,,,,,,,,,,,1,1,1,,-4196,15588,-188,-431,126,-503
33.025,32.90,-4.94,-11.67,2.65,-13.10,2.85,-6.62,3.59,-12.28,5.04,247.00,628.00,464.00,544.00,622.00,1382.00,394.00,596.00,,,,,,,,,,,,1,1,1,,-4292,15568,-372,-802,125,-386
33.089,32.95,-4.76,-12.10,9.05,-11.93,6.74,-1.33,-2.44,-4.72,-2.08,176.00,538.00,368.00,468.00,783.00,1318.00,505.00,535.00,,,,,,,,,,,,1,1,1,,-4348,16132,-168,-261,151,-274
33.129,33.01,-4.72,0.56,-5.30,-1.16,-2.36,-4.05,-0.63,-8.97,-0.21,304.00,479.00,495.00,390.00,746.00,1398.00,493.00,602.00,,,,,,,,,,,,1,1,1,,-4412,15832,-64,208,268,-214
33.212,33.06,-4.78,-6.06,-1.62,-6.70,-0.50,-5.85,1.66,-13.44,5.11,281.00,564.00,495.00,462.00,681.00,1412.00,401.00,623.00,,,,,,,,,,,,1,1,1,,-4240,15832,-372,1011,280,-110
33.254,33.12,-4.80,-8.96,3.05,-10.64,3.05,-5.17,1.16,-8.19,1.01,230.00,558.00,439.00,491.00,691.00,1393.00,455.00,565.00,,,,,,,,,,,,1,1,1,,-4264,15996,-388,1291,301,-169
33.295,33.17,-4.68,-7.00,1.53,-10.05,3.89,-2.53,-1.68,-7.47,-0.45,241.00,538.00,415.00,469.00,768.00,1354.00,486.00,571.00,,,,,,,,,,,,1,1,1,,-4256,15732,-320,1024,481,-206
33.358,33.23,-4.77,-3.03,-3.41,-0.06,-3.89,-6.33,0.34,-12.06,2.60,293.00,525.00,527.00,389.00,738.00,1491.00,448.00,631.00,,,,,,,,,,,,1,1,1,,-4312,16208,-468,644,545,-374
33.419,33.28,-4.82,-9.10,0.63,-11.93,2.10,-5.80,2.82,-8.94,2.18,263.00,599.00,473.00,530.00,639.00,1366.00,433.00,564.00,,,,,,,,,,,,1,1,1,,-4280,15628,-480,-52,424,-408
33.48,33.34,-4.54,-9.51,6.01,-9.98,6.34,0.64,-3.43,-3.51,-2.16,198.00,527.00,363.00,438.00,797.00,1252.00,496.00,511.00,,,,,,,,,,,,1,1,2,,-4368,15676,-336,-8,855,-340
33.563,33.39,-4.61,3.32,-7.29,6.85,-6.21,-5.80,0.33,-10.97,1.58,322.00,453.00,527.00,315.00,731.00,1460.00,464.00,621.00,,,,,,,,,,,,1,1,2,,-4308,15584,-664,528,1169,-16
33.583,33.45,-4.71,-11.92,2.15,-13.45,3.37,-6.72,3.74,-11.29,4.66,255.00,643.00,454.00,544.00,618.00,1382.00,395.00,579.00,,,,,,,,,,,,1,1,2,,-4324,15808,-1092,919,1035,125
33.624,33.50,-4.50,-13.03,9.26,-11.90,8.41,-0.45,-3.11,-2.57,-2.73,177.00,555.00,336.00,447.00,799.00,1296.00,503.00,500.00,,,,,,,,,,,,1,1,2,,-4368,15784,-1032,1425,993,270
33.685,33.56,-4.49,0.24,-6.43,0.69,-3.02,-4.24,-1.08,-8.51,-0.14,325.00,500.00,496.00,369.00,767.00,1426.00,487.00,590.00,,,,,,,,,,,,1,1,2,,-4024,15748,-1508,1059,800,147
33.747,33.61,-4.58,-9.30,0.48,-7.24,1.53,-6.36,1.97,-11.81,4.61,266.00,606.00,448.00,447.00,676.00,1429.00,400.00,592.00,,,,,,,,,,,,1,1,2,,-4200,16060,-1888,668,669,153
33.808,33.67,-4.59,-11.22,4.89,-10.49,4.85,-4.70,-0.04,-6.49,0.12,217.00,581.00,397.00,465.00,731.00,1412.00,463.00,541.00,,,,,,,,,,,,1,1,2,,-4172,15912,-2048,1187,644,-313
33.869,33.72,-4.51,-6.70,-0.80,-8.03,3.03,-3.10,-1.70,-7.05,-0.74,272.00,566.00,419.00,443.00,777.00,1386.00,490.00,566.00,,,,,,,,,,,,1,1,2,,-4288,15696,-2060,601,403,-745
33.931,33.78,-4.55,-3.90,-3.12,0.45,-2.56,-5.21,0.03,-10.62,2.79,293.00,539.00,486.00,368.00,735.00,1438.00,432.00,593.00,,,,,,,,,,,,1,1,2,,-4324,15352,-1548,-252,242,-592
33.952,33.83,-4.61,-10.11,1.25,-12.02,3.81,-5.86,2.67,-7.94,1.84,259.00,613.00,432.00,508.00,645.00,1375.00,433.00,547.00,,,,,,,,,,,,1,1,2,,-4412,15380,-1532,-501,503,-388
34.013,33.89,-4.38,-9.69,5.16,-10.45,7.54,0.02,-3.65,-4.22,-2.32,208.00,543.00,343.00,432.00,816.00,1291.00,507.00,528.00,,,,,,,,,,,,1,1,2,,-4420,15644,-1532,-947,609,34
34.075,33.94,-4.46,0.98,-7.07,5.92,-6.00,-5.96,-0.01,-10.58,1.49,332.00,494.00,530.00,325.00,747.00,1483.00,463.00,613.00,,,,,,,,,,,,1,1,2,,-4232,15624,-1260,-909,616,314
34.116,34.00,-4.60,-12.72,2.63,-12.84,3.37,-7.34,3.77,-11.12,4.28,252.00,655.00,449.00,531.00,624.00,1415.00,402.00,581.00,,,,,,,,,,,,1,1,2,,-4148,15888,-1388,-181,736,495
34.178,34.05,-4.39,-13.41,9.49,-12.74,9.30,-0.29,-3.89,-2.27,-3.69,176.00,560.00,325.00,451.00,831.00,1315.00,527.00,507.00,,,,,,,,,,,,1,1,2,,-4148,16028,-1648,182,593,257
34.239,34.11,-4.46,1.66,-7.68,3.16,-4.79,-5.83,-0.45,-9.98,-0.05,339.00,489.00,522.00,351.00,763.00,1493.00,498.00,624.00,,,,,,,,,,,,1,1,2,,-3892,16012,-1724,54,127,-104
34.302,34.16,-4.58,-9.24,-0.88,-8.62,0.68,-6.74,1.48,-12.50,4.03,286.00,627.00,481.00,483.00,699.00,1470.00,418.00,618.00,,,,,,,,,,,,1,1,2,,-4068,16024,-1652,233,207,-373
34.363,34.22,-4.50,-10.15,3.70,-10.22,4.53,-3.05,-0.77,-5.02,-0.93,227.00,575.00,402.00,464.00,738.00,1349.00,477.00,525.00,,,,,,,,,,,,1,1,2,,-4264,15856,-1536,-64,92,-1159
34.425,34.27,-4.40,-3.42,-2.77,-4.92,1.42,-2.46,-1.58,-7.11,-0.72,285.00,524.00,432.00,409.00,763.00,1347.00,490.00,567.00,,,,,,,,,,,,1,1,2,,-4528,15556,-1672,132,56,-1337
34.488,34.33,-4.42,-4.86,-1.49,-0.84,-1.67,-4.91,-0.04,-10.71,2.73,273.00,536.00,474.00,378.00,734.00,1424.00,434.00,596.00,,,,,,,,,,,,1,1,2,,-4648,15428,-1488,465,81,-923
34.509,34.38,-4.50,-8.77,1.01,-9.99,2.70,-5.88,2.08,-8.50,1.86,256.00,585.00,442.00,483.00,666.00,1398.00,437.00,559.00,,,,,,,,,,,,1,1,2,,-4608,15596,-1604,534,165,-487
34.571,34.44,-4.32,-9.93,3.30,-9.41,5.74,-0.90,-3.32,-5.55,-1.95,231.00,576.00,371.00,435.00,815.00,1327.00,509.00,551.00,,,,,,,,,,,,1,1,2,,-4640,15632,-1648,849,488,-363
34.712,34.49,-4.40,2.14,-8.69,4.35,-6.12,-6.07,-0.03,-11.70,2.48,355.00,493.00,549.00,347.00,749.00,1490.00,448.00,624.00,,,,,,,,,,,,1,1,2,,-4652,15708,-1664,611,632,-493
34.733,34.55,-4.54,-10.67,1.29,-14.32,2.52,-7.04,3.47,-11.30,3.98,261.00,626.00,483.00,576.00,631.00,1410.00,410.00,590.00,,,,,,,,,,,,1,1,2,,-4656,15780,-1740,181,601,-818
34.754,34.60,-4.29,-12.34,8.92,-14.90,6.20,0.34,-4.08,-4.09,-2.51,178.00,545.00,400.00,534.00,830.00,1289.00,511.00,528.00,,,,,,,,,,,,1,1,2,,-4708,15892,-1728,680,1678,-1144
34.796,34.66,-4.35,4.01,-9.99,1.13,-7.32,-5.36,-0.51,-10.99,0.55,368.00,474.00,621.00,407.00,759.00,1468.00,491.00,639.00,,,,,,,,,,,,1,1,2,,-4704,15836,-2180,567,2028,-1716
34.859,34.71,-4.41,-8.72,-0.85,-10.82,-0.79,-5.56,1.97,-12.17,3.96,283.00,614.00,542.00,548.00,666.00,1384.00,417.00,611.00,,,,,,,,,,,,1,1,2,,-4808,15308,-2448,137,1456,-1637
34.92,34.77,-4.28,-9.93,5.24,-11.23,3.54,-1.79,-1.19,-5.46,-0.43,208.00,547.00,432.00,496.00,738.00,1298.00,468.00,527.00,,,,,,,,,,,,1,1,2,,-5192,15560,-2300,457,1357,-1696
34.94,34.82,-4.19,-0.92,-3.35,-4.08,-1.08,-2.48,-1.31,-8.15,-0.22,281.00,482.00,487.00,423.00,752.00,1338.00,486.00,583.00,,,,,,,,,,,,1,1,2,,-5296,15464,-2580,602,1476,-1667
35.044,34.88,-4.21,-5.04,-1.36,-3.95,-2.65,-4.62,0.34,-10.99,2.95,272.00,538.00,529.00,439.00,715.00,1393.00,431.00,599.00,,,,,,,,,,,,1,1,2,,-5236,14920,-3040,-12,1238,-1337
35.064,34.93,-4.26,-7.92,1.39,-11.53,1.50,-5.37,1.99,-8.24,1.48,247.00,560.00,485.00,530.00,663.00,1373.00,444.00,559.00,,,,,,,,,,,,1,1,2,,-5504,14796,-3084,-486,707,-761
35.125,34.99,-4.08,-7.15,2.44,-10.70,4.06,-0.56,-3.46,-6.13,-1.50,230.00,528.00,416.00,479.00,816.00,1314.00,502.00,557.00,,,,,,,,,,,,1,1,2,,-5624,15104,-2896,-60,259,-287
35.167,35.04,-4.17,0.70,-6.81,0.97,-5.97,-5.97,0.42,-11.70,2.48,329.00,496.00,579.00,395.00,730.00,1467.00,448.00,624.00,,,,,,,,,,,,1,1,2,,-5540,15080,-2836,349,-87,-92
35.228,35.10,-4.31,-10.83,1.70,-13.83,1.35,-6.81,3.45,-10.76,3.31,256.00,623.00,510.00,583.00,629.00,1398.00,421.00,588.00,,,,,,,,,,,,1,1,2,,-5752,15332,-2848,458,-155,88
35.29,35.15,-4.01,-11.59,8.16,-12.40,5.63,1.61,-4.35,-2.83,-2.94,183.00,540.00,394.00,491.00,823.00,1235.00,511.00,508.00,,,,,,,,,,,,1,1,2,,-5512,15112,-2564,120,-161,-12
35.352,35.21,-4.07,7.26,-11.33,6.55,-8.72,-5.14,-0.04,-11.09,1.71,373.00,432.00,607.00,341.00,737.00,1437.00,462.00,622.00,,,,,,,,,,,,1,1,2,,-5552,15032,-2544,47,-141,12
35.413,35.26,-4.17,-8.84,-0.02,-11.41,0.50,-6.04,3.31,-12.17,4.82,271.00,603.00,511.00,542.00,625.00,1361.00,398.00,597.00,,,,,,,,,,,,1,1,2,,-5520,15188,-2764,321,10,162
35.433,35.32,-4.03,-10.05,5.28,-11.24,3.93,-1.44,-1.53,-5.28,-0.76,208.00,549.00,423.00,491.00,747.00,1292.00,475.00,528.00,,,,,,,,,,,,1,1,2,,-5432,15128,-2988,-103,-211,167
35.495,35.37,-4.00,0.30,-4.59,-2.84,-2.02,-3.51,-0.59,-8.59,-0.15,294.00,475.00,501.00,413.00,737.00,1367.00,488.00,592.00,,,,,,,,,,,,1,1,2,,-5472,15252,-2884,-306,-415,273
35.557,35.43,-4.05,-6.30,-0.52,-5.45,-1.36,-4.84,0.71,-11.40,3.14,266.00,553.00,507.00,450.00,704.00,1392.00,430.00,606.00,,,,,,,,,,,,1,1,2,,-5304,15324,-2668,133,-235,142
35.62,35.48,-4.12,-7.77,1.04,-10.18,1.24,-5.44,1.88,-8.18,1.13,251.00,562.00,480.00,506.00,668.00,1381.00,452.00,563.00,,,,,,,,,,,,1,1,2,,-5468,15484,-2708,221,-75,81
35.66,35.54,-3.99,-6.18,0.80,-9.31,2.47,-1.63,-2.20,-7.06,-0.93,247.00,531.00,442.00,473.00,777.00,1325.00,495.00,569.00,,,,,,,,,,,,1,1,2,,-5252,15120,-2592,221,204,78
35.785,35.59,-4.08,0.58,-7.37,1.11,-6.08,-5.75,0.44,-11.77,2.71,340.00,506.00,581.00,394.00,726.00,1453.00,443.00,622.00,,,,,,,,,,,,1,1,2,,-5320,15184,-2888,-287,20,-57
35.806,35.65,-4.17,-9.77,1.86,-12.95,2.29,-5.81,3.41,-9.68,3.08,249.00,595.00,477.00,549.00,619.00,1345.00,418.00,567.00,,,,,,,,,,,,1,1,2,,-5264,15296,-2836,-397,-59,-174
35.846,35.70,-3.89,-8.84,6.16,-10.90,5.95,1.40,-3.50,-3.51,-2.16,194.00,511.00,377.00,459.00,789.00,1217.00,496.00,511.00,,,,,,,,,,,,1,1,2,,-5324,15400,-2648,-229,3,3
35.927,35.76,-3.97,7.40,-10.57,6.94,-8.29,-5.59,0.31,-11.21,1.71,357.00,421.00,589.00,332.00,729.00,1449.00,463.00,625.00,,,,,,,,,,,,1,1,2,,-5308,15456,-2624,-279,30,113
35.947,35.81,-4.10,-11.09,2.45,-13.27,2.09,-6.60,3.98,-11.77,4.55,247.00,617.00,485.00,559.00,609.00,1367.00,401.00,592.00,,,,,,,,,,,,1,1,2,,-5144,15440,-2540,-93,4,-8
35.988,35.87,-3.95,-11.89,8.26,-12.11,6.06,-1.13,-2.20,-3.70,-1.87,183.00,545.00,383.00,480.00,770.00,1299.00,490.00,511.00,,,,,,,,,,,,1,1,2,,-5200,15380,-2448,96,97,-122
36.049,35.92,-3.94,1.92,-6.59,-0.94,-3.63,-3.71,-0.67,-8.61,0.20,318.00,470.00,528.00,400.00,743.00,1381.00,479.00,587.00,,,,,,,,,,,,1,1,2,,-5104,15448,-2756,180,210,-223
36.134,35.98,-4.03,-6.41,-1.10,-6.40,-1.19,-5.71,1.58,-13.18,5.02,275.00,564.00,511.00,465.00,682.00,1407.00,401.00,618.00,,,,,,,,,,,,1,1,2,,-5200,15240,-2912,74,135,-182
36.154,36.03,-4.08,-7.98,1.48,-10.11,1.88,-5.00,1.19,-7.74,0.94,246.00,560.00,463.00,496.00,688.00,1383.00,453.00,556.00,,,,,,,,,,,,1,1,2,,-5276,15660,-2976,-134,148,-282
36.235,36.09,-3.95,-5.53,1.42,-8.29,3.16,-1.53,-1.60,-6.93,-0.51,236.00,509.00,418.00,446.00,751.00,1299.00,483.00,560.00,,,,,,,,,,,,1,1,2,,-5212,15064,-2620,-607,-92,-277
36.255,36.14,-4.02,0.02,-4.18,2.18,-4.71,-5.29,0.86,-11.58,3.15,289.00,475.00,529.00,364.00,704.00,1411.00,431.00,610.00,,,,,,,,,,,,1,1,2,,-5236,15084,-2340,-146,-54,80
36.317,36.20,-4.08,-9.37,2.48,-11.93,2.38,-5.15,2.89,-8.91,2.60,239.00,576.00,466.00,526.00,629.00,1329.00,423.00,557.00,,,,,,,,,,,,1,1,2,,-5304,15404,-2592,115,73,218
36.379,36.25,-3.82,-8.03,6.08,-10.57,6.28,1.10,-3.52,-4.39,-1.86,192.00,496.00,368.00,449.00,794.00,1232.00,496.00,525.00,,,,,,,,,,,,1,1,2,,-5124,15476,-2728,-68,159,-48
36.44,36.31,-3.92,5.03,-8.04,2.92,-6.01,-5.95,0.64,-11.57,2.23,325.00,432.00,560.00,366.00,721.00,1457.00,453.00,625.00,,,,,,,,,,,,1,1,2,,-5108,15348,-2712,-149,248,-263
36.522,36.36,-4.06,-10.39,1.06,-12.68,1.55,-6.56,3.78,-12.10,5.22,263.00,623.00,494.00,554.00,615.00,1372.00,389.00,589.00,,,,,,,,,,,,1,1,2,,-5264,15280,-2756,50,158,-273
36.564,36.42,-3.89,-12.34,10.10,-11.99,6.91,-0.76,-2.65,-3.67,-1.92,167.00,528.00,365.00,467.00,784.00,1296.00,491.00,511.00,,,,,,,,,,,,1,1,2,,-5248,15192,-2708,7,-78,-297
36.585,36.47,-3.92,1.18,-6.28,-0.95,-3.52,-4.44,-0.47,-8.72,0.05,317.00,480.00,525.00,399.00,745.00,1414.00,484.00,592.00,,,,,,,,,,,,1,1,2,,-5272,15068,-2556,-43,170,-108
36.647,36.53,-3.98,-7.02,0.07,-7.41,0.39,-5.08,1.84,-11.81,4.61,261.00,560.00,478.00,464.00,665.00,1363.00,400.00,592.00,,,,,,,,,,,,1,1,2,,-5216,15376,-2748,-348,-2,-291
36.709,36.58,-3.96,-8.18,5.19,-9.63,3.74,-3.55,0.70,-6.93,0.83,202.00,511.00,415.00,463.00,688.00,1323.00,449.00,540.00,,,,,,,,,,,,1,1,2,,-5248,15084,-2460,-308,-191,-130
36.772,36.64,-3.81,-4.62,1.28,-7.35,2.63,-1.13,-1.44,-6.71,-0.24,234.00,493.00,423.00,436.00,739.00,1273.00,474.00,551.00,,,,,,,,,,,,1,1,2,,-5220,15244,-2564,105,80,132
36.875,36.69,-3.86,-0.49,-2.96,1.73,-4.35,-4.71,0.38,-11.02,3.01,273.00,469.00,523.00,367.00,715.00,1397.00,430.00,599.00,,,,,,,,,,,,1,1,2,,-5188,15672,-2676,-40,245,29
36.895,36.75,-3.92,-8.97,2.35,-12.24,2.84,-5.17,2.58,-7.95,1.93,239.00,569.00,457.00,526.00,640.00,1341.00,431.00,546.00,,,,,,,,,,,,1,1,2,,-5192,15384,-2908,19,231,-128
36.936,36.80,-3.68,-6.44,3.89,-9.24,5.24,0.94,-3.48,-4.45,-1.84,210.00,494.00,380.00,438.00,795.00,1239.00,496.00,526.00,,,,,,,,,,,,1,1,2,,-5172,15260,-2784,103,40,-220
36.997,36.86,-3.78,5.47,-8.69,6.52,-7.68,-5.59,0.44,-10.76,2.12,334.00,432.00,574.00,332.00,724.00,1444.00,449.00,607.00,,,,,,,,,,,,1,1,2,,-5208,15400,-2760,-4,-40,-269
37.079,36.91,-3.93,-10.85,1.50,-13.32,1.69,-6.89,3.80,-11.27,4.89,259.00,627.00,496.00,566.00,618.00,1389.00,390.00,575.00,,,,,,,,,,,,1,1,2,,-5400,15436,-2660,-42,67,-172
37.099,36.97,-3.70,-11.45,9.15,-12.30,7.68,0.70,-3.82,-2.37,-2.73,173.00,523.00,352.00,463.00,813.00,1262.00,501.00,496.00,,,,,,,,,,,,1,1,2,,-5324,15512,-2808,-83,164,-384
37.14,37.02,-3.68,3.52,-7.59,1.65,-4.53,-3.20,-0.99,-8.38,0.05,326.00,453.00,529.00,370.00,749.00,1365.00,481.00,584.00,,,,,,,,,,,,1,1,2,,-5188,15076,-2560,-484,-113,-142
37.265,37.08,-3.73,-6.45,0.23,-7.23,0.29,-4.84,2.01,-11.14,4.38,256.00,545.00,479.00,462.00,656.00,1344.00,400.00,580.00,,,,,,,,,,,,1,1,2,,-5240,15224,-2428,-151,24,199
37.285,37.13,-3.66,-8.53,6.15,-9.63,4.47,-2.20,-0.39,-4.11,-0.60,193.00,505.00,399.00,454.00,712.00,1291.00,461.00,502.00,,,,,,,,,,,,1,1,2,,-5108,15424,-2448,134,161,271
37.326,37.19,-3.53,-3.36,-0.81,-6.26,1.45,-1.21,-1.73,-6.70,-0.59,256.00,496.00,442.00,431.00,752.00,1287.00,483.00,556.00,,,,,,,,,,,,1,1,2,,-5012,15572,-2692,-58,60,145
37.388,37.24,-3.59,-0.83,-3.25,0.64,-3.55,-4.69,0.32,-10.47,2.69,279.00,479.00,511.00,375.00,717.00,1398.00,433.00,591.00,,,,,,,,,,,,1,1,2,,-4992,15516,-2528,-70,-75,92
37.429,37.30,-3.69,-8.40,1.18,-11.52,1.77,-5.63,2.73,-8.17,2.05,252.00,574.00,478.00,526.00,640.00,1360.00,430.00,549.00,,,,,,,,,,,,1,1,2,,-4988,15444,-2572,116,-133,4
37.491,37.35,-3.49,-6.61,4.21,-9.33,5.37,0.35,-3.45,-4.58,-1.80,207.00,493.00,378.00,438.00,802.00,1267.00,496.00,528.00,,,,,,,,,,,,1,1,2,,-5040,15288,-2448,-19,-70,-193
37.532,37.41,-3.62,3.59,-7.26,5.28,-6.74,-6.11,0.39,-10.65,1.84,320.00,448.00,558.00,340.00,733.00,1476.00,455.00,609.00,,,,,,,,,,,,1,1,2,,-4928,15076,-2644,54,287,-95
37.613,37.46,-3.76,-10.04,2.33,-12.42,2.27,-6.40,3.79,-10.52,4.64,244.00,594.00,473.00,538.00,613.00,1363.00,390.00,562.00,,,,,,,,,,,,1,1,2,,-5048,15300,-2652,-285,120,-321
37.634,37.52,-3.49,-10.69,10.69,-11.16,8.16,1.61,-3.87,-1.64,-3.05,157.00,487.00,336.00,437.00,802.00,1219.00,503.00,486.00,,,,,,,,,,,,1,1,2,,-5064,15052,-2312,-532,-58,-87
37.695,37.57,-3.53,6.67,-8.87,4.98,-5.86,-4.33,-0.14,-8.85,0.25,330.00,414.00,535.00,336.00,730.00,1395.00,480.00,592.00,,,,,,,,,,,,1,1,2,,-4828,15308,-2560,-11,181,191
37.756,37.63,-3.62,-6.50,0.03,-7.01,-0.21,-5.35,2.12,-11.31,4.44,259.00,549.00,490.00,464.00,658.00,1367.00,400.00,583.00,,,,,,,,,,,,1,1,2,,-5040,15668,-2568,-230,206,30
37.84,37.68,-3.54,-8.14,6.02,-9.39,4.62,-1.96,-0.91,-3.43,-1.23,193.00,499.00,394.00,448.00,729.00,1297.00,471.00,497.00,,,,,,,,,,,,1,1,2,,-4956,15460,-2500,-111,239,-135
37.86,37.74,-3.48,-0.59,-2.65,-3.97,0.39,-2.25,-1.11,-6.81,-0.36,269.00,467.00,449.00,405.00,741.00,1319.00,478.00,555.00,,,,,,,,,,,,1,1,2,,-4948,15556,-2500,116,228,-188
37.922,37.79,-3.54,-3.17,-1.08,-1.20,-2.20,-4.79,0.20,-10.17,2.64,259.00,496.00,491.00,389.00,723.00,1408.00,432.00,585.00,,,,,,,,,,,,1,1,2,,-4940,15544,-2660,219,142,-289
37.984,37.85,-3.66,-6.33,0.26,-9.49,1.05,-5.85,2.29,-7.64,1.40,255.00,542.00,479.00,495.00,658.00,1388.00,441.00,547.00,,,,,,,,,,,,1,1,2,,-5108,15544,-2596,79,46,-232
38.046,37.90,-3.51,-6.48,3.13,-8.73,4.40,-0.62,-3.24,-5.37,-1.53,219.00,505.00,394.00,439.00,807.00,1309.00,496.00,541.00,,,,,,,,,,,,1,1,2,,-5100,15808,-2852,-26,203,-394
38.108,37.96,-3.59,4.77,-8.51,6.05,-7.10,-5.20,0.29,-10.19,2.22,335.00,442.00,561.00,333.00,725.00,1428.00,442.00,592.00,,,,,,,,,,,,1,1,2,,-5092,15148,-2596,-558,46,-170
38.148,38.01,-3.72,-8.55,2.05,-10.79,2.07,-6.13,3.91,-10.48,4.91,241.00,564.00,464.00,507.00,606.00,1344.00,384.00,557.00,,,,,,,,,,,,1,1,2,,-4992,15228,-2472,-242,198,103
38.209,38.07,-3.45,-10.35,9.88,-10.79,8.03,1.65,-4.23,-1.18,-3.49,163.00,491.00,336.00,432.00,817.00,1229.00,511.00,483.00,,,,,,,,,,,,1,1,2,,-5060,15544,-2444,-62,273,84
38.25,38.12,-3.53,7.09,-9.40,7.44,-7.43,-4.98,-0.02,-9.64,1.10,337.00,413.00,557.00,318.00,734.00,1427.00,465.00,597.00,,,,,,,,,,,,1,1,2,,-4952,15560,-2556,-96,285,-78
38.374,38.18,-3.63,-8.43,0.90,-9.56,0.99,-5.55,1.89,-11.29,4.16,256.00,579.00,481.00,497.00,669.00,1387.00,406.00,587.00,,,,,,,,,,,,1,1,2,,-4992,15560,-2532,54,514,-103
38.395,38.23,-3.56,-8.94,6.38,-10.20,4.66,-2.37,-1.02,-3.94,-0.86,192.00,510.00,399.00,462.00,739.00,1322.00,466.00,502.00,,,,,,,,,,,,1,1,2,,-4772,15424,-2624,182,580,-24
38.416,38.29,-3.55,0.21,-3.60,-2.72,-0.72,-3.37,-0.96,-7.64,-0.20,279.00,464.00,466.00,397.00,750.00,1373.00,481.00,571.00,,,,,,,,,,,,1,1,2,,-4788,15336,-2664,-16,427,-112
38.477,38.34,-3.65,-3.42,-1.84,-2.11,-2.08,-5.41,0.20,-10.56,2.77,271.00,511.00,496.00,402.00,731.00,1443.00,432.00,592.00,,,,,,,,,,,,1,1,2,,-4852,15132,-2752,-82,573,-5
38.539,38.40,-3.75,-6.47,0.68,-9.95,1.87,-5.69,1.94,-7.68,1.67,250.00,539.00,462.00,493.00,669.00,1393.00,435.00,544.00,,,,,,,,,,,,1,1,2,,-4728,15484,-2656,-453,395,-178
38.6,38.45,-3.57,-5.44,2.95,-8.50,4.75,-0.17,-3.09,-5.25,-1.57,217.00,487.00,385.00,431.00,794.00,1281.00,496.00,539.00,,,,,,,,,,,,1,1,2,,-4800,15320,-2588,-597,194,-194
38.621,38.51,-3.67,3.68,-6.47,5.22,-6.22,-5.61,0.60,-10.84,2.73,306.00,437.00,543.00,336.00,718.00,1439.00,435.00,599.00,,,,,,,,,,,,1,1,2,,-4696,15352,-2436,-29,370,74
38.724,38.56,-3.83,-9.66,2.97,-12.68,2.71,-6.91,4.02,-9.91,3.88,234.00,575.00,464.00,537.00,611.00,1382.00,402.00,560.00,,,,,,,,,,,,1,1,2,,-4828,15868,-2772,-135,420,-130
38.744,38.62,-3.59,-8.65,6.77,-10.24,5.87,1.05,-4.34,-1.67,-3.75,187.00,499.00,374.00,448.00,831.00,1262.00,523.00,496.00,,,,,,,,,,,,1,1,2,,-4832,15588,-2528,-114,296,-378
38.786,38.67,-3.70,9.76,-11.21,6.16,-7.27,-5.71,-0.10,-10.74,1.43,354.00,390.00,565.00,333.00,747.00,1472.00,466.00,618.00,,,,,,,,,,,,1,1,2,,-4904,15352,-2592,68,226,-376
38.848,38.73,-3.85,-9.53,1.63,-10.84,1.85,-6.77,2.58,-11.77,4.55,251.00,593.00,470.00,511.00,659.00,1429.00,401.00,592.00,,,,,,,,,,,,1,1,2,,-5020,15388,-2672,-95,169,-400
38.91,38.78,-3.78,-9.95,5.60,-11.20,4.95,-2.51,-1.59,-3.94,-1.52,204.00,542.00,400.00,477.00,764.00,1350.00,483.00,511.00,,,,,,,,,,,,1,1,2,,-5068,15240,-2836,-224,226,-242
38.974,38.84,-3.80,1.05,-5.46,-2.02,-1.66,-4.08,-1.04,-8.45,-0.16,304.00,472.00,484.00,396.00,763.00,1415.00,487.00,589.00,,,,,,,,,,,,1,1,2,,-5188,16024,-2796,-376,261,-204
39.079,38.89,-3.84,-3.42,-2.77,-2.77,-2.11,-4.67,0.21,-10.73,2.95,285.00,524.00,503.00,413.00,721.00,1401.00,429.00,593.00,,,,,,,,,,,,1,1,2,,-4924,15436,-2532,-647,110,-170
39.1,38.95,-3.91,-5.29,-0.16,-7.62,0.46,-5.13,1.94,-7.49,1.52,256.00,526.00,478.00,467.00,662.00,1362.00,437.00,542.00,,,,,,,,,,,,1,1,2,,-4884,15264,-2284,-358,189,88
39.121,39.00,-3.72,-4.88,1.21,-8.95,3.97,-0.17,-3.32,-9.45,-0.23,236.00,499.00,405.00,448.00,804.00,1289.00,498.00,614.00,,,,,,,,,,,,1,1,2,,-4860,15544,-2408,-115,564,133
39.182,39.06,-3.83,1.85,-6.33,3.03,-5.54,-5.95,0.49,-11.14,2.50,314.00,468.00,545.00,360.00,727.00,1463.00,443.00,610.00,,,,,,,,,,,,1,1,2,,-4796,15724,-2452,-106,543,-205
39.244,39.11,-3.98,-10.02,2.55,-12.82,2.72,-6.77,3.49,-9.36,2.93,241.00,590.00,465.00,540.00,627.00,1394.00,419.00,562.00,,,,,,,,,,,,1,1,2,,-4900,15736,-2812,-49,231,-279
39.306,39.17,-3.76,-9.00,6.40,-11.55,7.07,0.28,-3.81,-2.83,-2.42,192.00,511.00,359.00,457.00,819.00,1283.00,497.00,501.00,,,,,,,,,,,,1,1,2,,-4868,15424,-2600,363,221,-241
39.368,39.22,-3.91,7.86,-11.78,7.03,-8.54,-6.65,0.17,-11.39,1.61,378.00,427.00,596.00,333.00,749.00,1517.00,467.00,631.00,,,,,,,,,,,,1,1,2,,-4892,15356,-2680,-153,-24,-423
39.452,39.28,-4.11,-9.87,0.47,-11.81,1.30,-7.96,3.63,-12.80,5.70,269.00,620.00,493.00,539.00,636.00,1456.00,384.00,598.00,,,,,,,,,,,,1,1,2,,-4976,15176,-2384,-54,-89,-389
39.472,39.33,-4.03,-10.05,5.28,-11.71,5.08,-2.55,-1.82,-4.83,-1.15,208.00,549.00,401.00,485.00,774.00,1360.00,481.00,524.00,,,,,,,,,,,,1,1,2,,-5024,15184,-2600,-300,-398,-512
39.514,39.39,-4.02,1.76,-5.40,-1.65,-2.01,-3.75,-0.53,-8.65,0.45,299.00,458.00,490.00,394.00,738.00,1378.00,473.00,584.00,,,,,,,,,,,,1,1,2,,-5112,15268,-2308,-83,-336,-418
39.574,39.44,-4.09,-4.50,-1.94,-4.32,-1.33,-5.47,1.21,-11.41,4.02,278.00,535.00,496.00,430.00,693.00,1408.00,410.00,592.00,,,,,,,,,,,,1,1,2,,-5112,15196,-2284,4,-49,-77
